sender,sender_type,sender_id,timestamp,meta,,age,blockNo,c1,c2,condition,control_tolerance,correct,correctResponse,duration,ended_on,f1,f1_high,f1_low,f2,f2_high,f2_low,feature_level1,feature_level2,gender,img_left,img_reveal,img_right,n_control_images,n_target_images,practice,range_tolerance,response,response_action,selection_duration,staircase,time_commit,time_end,time_render,time_run,time_show,time_switch,total_blocks,total_trials,trialNo,url
informed_consent,html.Screen,0,2023-11-20T16:33:48.721Z,"{""labjs_version"":""20.2.4"",""labjs_build"":{""flavor"":""development"",""commit"":""f5b4a49f956347addd546a832a3327688c2c0fef""},""location"":""https://labjs.felixhenninger.com/api/labjs_preview/index.html"",""userAgent"":""Mozilla/5.0 (Windows NT 10.0; Win64; x64) AppleWebKit/537.36 (KHTML, like Gecko) Chrome/119.0.0.0 Safari/537.36"",""platform"":""Win32"",""language"":""en-US"",""locale"":""en-US"",""timeZone"":""America/Chicago"",""timezoneOffset"":360,""screen_width"":1680,""screen_height"":1050,""scroll_width"":825,""scroll_height"":888,""window_innerWidth"":825,""window_innerHeight"":936,""devicePixelRatio"":1}",,,,,,,,,,19912.626000023844,response,,,,,,,,,,,,,,,,,consent,click button,,,20621.700000047684,20612.100000023842,682.721,889.7999999523163,699.474,20404.405,,,,{}
Demography form,html.Form,1,2023-11-20T16:33:59.128Z,,,18,,,,,,,,10624.595000000001,form submission,,,,,,,,,female,,,,,,,,,,,,31029.200000047684,31029,20387.805,20621.899999976158,20404.405,30807.941,,,,
Welcome,html.Screen,2,2023-11-20T16:34:19.744Z,,,,,,,"[""bor"",""col""]",,,,20836.159000023843,response,,,,,,,,,,,,,,,,,continue,click button,,,51644.700000047684,51644.10000002384,30791.486,31029.299999952316,30807.941,51431.389,,,,
demo_instructions,html.Screen,3,2023-11-20T16:34:49.593Z,,,,,,,,,,,30060.910999952313,response,,,,,,,,,,,,,,,,,continue,click button,,,81492.79999995232,81492.29999995232,51414.938,51644.799999952316,51431.389,81289.461,,,,
trial,html.Screen,4_0_0,2023-11-20T16:35:17.660Z,,,,0,-1.0865209011322887,-1.1401461171952545,,,true,hh,28270.33899995232,response,1.274417010249866,1.2,-1.2,1.0725495669014795,1.2,-1.2,high,high,,ISIC_0016145.JPG,,ISIC_8849004.JPG,,25,true,0.14,hh,keypress(i),100,false,109560.39999997616,109559.79999995232,81272.913,81493,81289.461,109360.785,1,16,1,
sequence,flow.Sequence,4_0,2023-11-20T16:35:17.661Z,,,,,,,,,,,28270.33899995232,completion,,,,,,,high,high,,,,,,,true,,,,,false,109561.10000002384,109559.79999995232,81272.913,81493,81289.461,109360.785,1,16,,
trial,html.Screen,4_1_0,2023-11-20T16:35:24.698Z,,,,0,-1.0915173513546716,-1.266840220031473,,,true,hh,7236.815000023838,response,1.1870093485714288,1.2,-1.2,1.3339880978442629,1.2,-1.2,high,high,,ISIC_8241457.JPG,,ISIC_8592235.JPG,,25,true,0.14,hh,keypress(i),100,false,116597.89999997616,116597.60000002384,109344.09,109561.29999995232,109360.785,116407.804,1,16,2,
sequence,flow.Sequence,4_1,2023-11-20T16:35:24.698Z,,,,,,,,,,,7236.815000023838,completion,,,,,,,high,high,,,,,,,true,,,,,false,116598.20000004768,116597.60000002384,109344.09,109561.29999995232,109360.785,116407.804,1,16,,
trial,html.Screen,4_2_0,2023-11-20T16:35:30.177Z,,,,0,-1.136677654701082,-1.2647850993872314,,,true,hh,5668.695999999996,response,1.0943527860463682,1.2,-1.2,1.124481746658104,1.2,-1.2,high,high,,ISIC_0015436.JPG,,ISIC_0438136.JPG,,25,true,0.14,hh,keypress(i),100,false,122076.70000004768,122076.5,116391.341,116598.29999995232,116407.804,121885.229,1,16,3,
sequence,flow.Sequence,4_2,2023-11-20T16:35:30.177Z,,,,,,,,,,,5668.695999999996,completion,,,,,,,high,high,,,,,,,true,,,,,false,122077,122076.5,116391.341,116598.29999995232,116407.804,121885.229,1,16,,
trial,html.Screen,4_3_0,2023-11-20T16:35:37.224Z,,,,0,-1.071312313440387,-1.0935391476164529,,,true,hh,7238.971000047677,response,1.1843968275545205,1.2,-1.2,1.2828739728067764,1.2,-1.2,high,high,,ISIC_0063680.JPG,,ISIC_0002901.JPG,,25,true,0.14,hh,keypress(i),100,false,129124.39999997616,129124.20000004768,121868.629,122077,121885.229,128932.149,1,16,4,
sequence,flow.Sequence,4_3,2023-11-20T16:35:37.225Z,,,,,,,,,,,7238.971000047677,completion,,,,,,,high,high,,,,,,,true,,,,,false,129124.70000004768,129124.20000004768,121868.629,122077,121885.229,128932.149,1,16,,
trial,html.Screen,4_4_0,2023-11-20T16:35:44.449Z,,,,0,1.151139267005652,1.0838749490501327,,,true,ll,7416.051000047679,response,-1.2691569063625474,1.2,-1.2,-1.1264228993232308,1.2,-1.2,low,low,,ISIC_0002566.JPG,,ISIC_4980656.JPG,,30,true,0.13,ll,keypress(f),100,false,136348.60000002384,136348.20000004768,128915.46,129124.79999995232,128932.149,136146.319,1,16,5,
sequence,flow.Sequence,4_4,2023-11-20T16:35:44.450Z,,,,,,,,,,,7416.051000047679,completion,,,,,,,low,low,,,,,,,true,,,,,false,136349.20000004768,136348.20000004768,128915.46,129124.79999995232,128932.149,136146.319,1,16,,
trial,html.Screen,4_5_0,2023-11-20T16:35:50.092Z,,,,0,1.0943527860463682,1.124481746658104,,,true,ll,5844.881000047695,response,-1.0773466327271526,1.2,-1.2,-1.1601445610079184,1.2,-1.2,low,low,,ISIC_0438136.JPG,,ISIC_0055169.JPG,,40,true,0.14,ll,keypress(f),100,false,141991.5,141991.20000004768,136129.502,136349.39999997616,136146.319,141790.715,1,16,6,
sequence,flow.Sequence,4_5,2023-11-20T16:35:50.092Z,,,,,,,,,,,5844.881000047695,completion,,,,,,,low,low,,,,,,,true,,,,,false,141991.79999995232,141991.20000004768,136129.502,136349.39999997616,136146.319,141790.715,1,16,,
trial,html.Screen,4_6_0,2023-11-20T16:35:53.398Z,,,,0,1.109799097093339,1.091507924157762,,,true,ll,3506.1849999761616,response,-1.1668613502915044,1.2,-1.2,-1.327068780840367,1.2,-1.2,low,low,,ISIC_0765584.JPG,,ISIC_0054459.JPG,,40,true,0.14,ll,keypress(f),100,false,145297.10000002384,145296.89999997616,141773.833,141991.89999997616,141790.715,145096.951,1,16,7,
sequence,flow.Sequence,4_6,2023-11-20T16:35:53.398Z,,,,,,,,,,,3506.1849999761616,completion,,,,,,,low,low,,,,,,,true,,,,,false,145297.29999995232,145296.89999997616,141773.833,141991.89999997616,141790.715,145096.951,1,16,,
trial,html.Screen,4_7_0,2023-11-20T16:35:55.403Z,,,,0,1.109799097093339,1.091507924157762,,,true,ll,2205.649000023841,response,-1.2749714218614645,1.2,-1.2,-1.1578619398362149,1.2,-1.2,low,low,,ISIC_0765584.JPG,,ISIC_0024999.JPG,,40,true,0.14,ll,keypress(f),100,false,147302.79999995232,147302.60000002384,145080.202,145297.39999997616,145096.951,147100.789,1,16,8,
sequence,flow.Sequence,4_7,2023-11-20T16:35:55.404Z,,,,,,,,,,,2205.649000023841,completion,,,,,,,low,low,,,,,,,true,,,,,false,147303,147302.60000002384,145080.202,145297.39999997616,145096.951,147100.789,1,16,,
trial,html.Screen,4_8_0,2023-11-20T16:36:15.718Z,,,,0,0.9653573371180936,-0.854766800381037,,,true,lh,20516.510999952327,response,-0.8307508446051526,1.2,-1.2,1.1707575338936729,1.2,-1.2,low,high,,ISIC_9640145.JPG,,ISIC_0028606.JPG,,27,true,0.40000000000000024,lh,keypress(e),100,false,167617.5,167617.29999995232,147084.137,147303,147100.789,167423.661,1,16,9,
sequence,flow.Sequence,4_8,2023-11-20T16:36:15.718Z,,,,,,,,,,,20516.510999952327,completion,,,,,,,low,high,,,,,,,true,,,,,false,167617.79999995232,167617.29999995232,147084.137,147303,147100.789,167423.661,1,16,,
trial,html.Screen,4_9_0,2023-11-20T16:36:19.261Z,,,,0,1.3046390428588206,-0.7942099232219556,,,true,lh,3736.7389999761654,response,-0.8350129142228142,1.2,-1.2,0.8172547818270586,1.2,-1.2,low,high,,ISIC_0013096.JPG,,ISIC_0301568.JPG,,40,true,0.4500000000000003,lh,keypress(e),100,false,171160.60000002384,171160.39999997616,167407.006,167617.89999997616,167423.661,170964.114,1,16,10,
sequence,flow.Sequence,4_9,2023-11-20T16:36:19.261Z,,,,,,,,,,,3736.7389999761654,completion,,,,,,,low,high,,,,,,,true,,,,,false,171160.79999995232,171160.39999997616,167407.006,167617.89999997616,167423.661,170964.114,1,16,,
trial,html.Screen,4_10_0,2023-11-20T16:36:27.325Z,,,,0,0.7991459998473059,-1.0280788723474688,,,true,lh,8259.685999952315,response,-1.045301444872812,1.2,-1.2,1.0872560254441277,1.2,-1.2,low,high,,ISIC_7951202.JPG,,ISIC_4507700.JPG,,40,true,0.4500000000000003,lh,keypress(e),100,false,179224,179223.79999995232,170947.214,171160.89999997616,170964.114,179029.729,1,16,11,
sequence,flow.Sequence,4_10,2023-11-20T16:36:27.325Z,,,,,,,,,,,8259.685999952315,completion,,,,,,,low,high,,,,,,,true,,,,,false,179224.20000004768,179223.79999995232,170947.214,171160.89999997616,170964.114,179029.729,1,16,,
trial,html.Screen,4_11_0,2023-11-20T16:36:36.079Z,,,,0,1.0329549150636406,-1.01584100839286,,,true,lh,8948.771000000008,response,-0.8987343013179191,1.2,-1.2,0.8149073454566363,1.2,-1.2,low,high,,ISIC_0054670.JPG,,ISIC_0472513.JPG,,40,true,0.4500000000000003,lh,keypress(e),100,false,187978.60000002384,187978.5,179012.903,179224.39999997616,179029.729,187779.92,1,16,12,
sequence,flow.Sequence,4_11,2023-11-20T16:36:36.080Z,,,,,,,,,,,8948.771000000008,completion,,,,,,,low,high,,,,,,,true,,,,,false,187978.89999997616,187978.5,179012.903,179224.39999997616,179029.729,187779.92,1,16,,
trial,html.Screen,4_12_0,2023-11-20T16:36:58.036Z,,,,0,-1.2646773654288392,0.952963803634235,,,true,hl,22155.18000002383,response,0.9754077946987664,1.2,-1.2,-1.1821868813141057,1.2,-1.2,high,low,,ISIC_1996356.JPG,,ISIC_0024317.JPG,,26,true,0.4500000000000003,hl,keypress(j),100,false,209935.29999995232,209935.10000002384,187763.261,187979,187779.92,209739.271,1,16,13,
sequence,flow.Sequence,4_12,2023-11-20T16:36:58.036Z,,,,,,,,,,,22155.18000002383,completion,,,,,,,high,low,,,,,,,true,,,,,false,209935.5,209935.10000002384,187763.261,187978.89999997616,187779.92,209739.271,1,16,,
trial,html.Screen,4_13_0,2023-11-20T16:37:02.234Z,,,,0,-0.8307508446051526,1.1707575338936729,,,true,hl,4393.728999999992,response,0.989300717252516,1.2,-1.2,-0.7908280206937478,1.2,-1.2,high,low,,ISIC_0028606.JPG,,ISIC_6416533.JPG,,26,true,0.4500000000000003,hl,keypress(j),100,false,214133.10000002384,214133,209722.637,209935.60000002384,209739.271,213930.788,1,16,14,
sequence,flow.Sequence,4_13,2023-11-20T16:37:02.234Z,,,,,,,,,,,4393.728999999992,completion,,,,,,,high,low,,,,,,,true,,,,,false,214133.39999997616,214133,209722.637,209935.5,209739.271,213930.788,1,16,,
trial,html.Screen,4_14_0,2023-11-20T16:37:11.164Z,,,,0,-0.8443403196524287,0.8858525429102605,,,true,hl,9132.212,response,1.2054195059663604,1.2,-1.2,-0.7760611240296147,1.2,-1.2,high,low,,ISIC_8777813.JPG,,ISIC_8712559.JPG,,26,true,0.4500000000000003,hl,keypress(j),100,false,223063.20000004768,223063,213914.086,214133.5,213930.788,222864.833,1,16,15,
sequence,flow.Sequence,4_14,2023-11-20T16:37:11.164Z,,,,,,,,,,,9132.212,completion,,,,,,,high,low,,,,,,,true,,,,,false,223063.39999997616,223063,213914.086,214133.39999997616,213930.788,222864.833,1,16,,
trial,html.Screen,4_15_0,2023-11-20T16:37:20.431Z,,,,0,-0.8987343013179191,0.8149073454566363,,,true,hl,9465.36700004767,response,1.0369885917487718,1.2,-1.2,-0.8486937878412699,1.2,-1.2,high,low,,ISIC_0472513.JPG,,ISIC_6917681.JPG,,26,true,0.4500000000000003,hl,keypress(j),100,false,232330.39999997616,232330.20000004768,222848.152,223063.39999997616,222864.833,232132.822,1,16,16,
sequence,flow.Sequence,4_15,2023-11-20T16:37:20.431Z,,,,,,,,,,,9465.36700004767,completion,,,,,,,high,low,,,,,,,true,,,,,false,232330.79999995232,232330.20000004768,222848.152,223063.39999997616,222864.833,232132.822,1,16,,
demonstration_loop,flow.Loop,4,2023-11-20T16:37:20.432Z,,,,,,,,,,,151040.73900004767,completion,,,,,,,,,,,,,,,true,,,,,false,232330.89999997616,232330.20000004768,81272.913,81493,81289.461,232132.822,1,16,,
practice_instructions,html.Screen,5,2023-11-20T16:38:48.857Z,,,,,,,,,,,88614.77800002386,response,,,,,,,,,,,,,,,,,continue,click button,,,320755.39999997616,320747.60000002384,232116.195,232331,232132.822,320538.114,,,,
trial,html.Screen,6_0_0,2023-11-20T16:38:56.280Z,,,,1,1.1409143352872226,1.1323007949069106,,,true,ll,7630.285999976157,response,-1.1048559518249943,1.2,-1.2,-1.2252457981338687,1.2,-1.2,low,low,,ISIC_0030291.JPG,,ISIC_0060817.JPG,,30,true,0.13,ll,keypress(f),0,false,328177.7000000477,328168.39999997616,320521.404,320755.60000002384,320538.114,327985.886,1,40,1,
sequence,flow.Sequence,6_0,2023-11-20T16:38:56.280Z,,,,,,,,,,,7630.285999976157,completion,,,,,,,low,low,,,,,,,true,,,,,false,328177.89999997616,328168.39999997616,320521.404,320755.60000002384,320538.114,327985.886,1,40,,
trial,html.Screen,6_1_0,2023-11-20T16:39:03.330Z,,,,1,1.2362557973341337,-1.2548266183352603,,,false,lh,7242.214000023843,response,-1.168911077628813,1.2,-1.2,1.2181838235193114,1.2,-1.2,low,high,,ISIC_0033886.JPG,,ISIC_7358691.JPG,,27,true,0.40000000000000024,hl,keypress(j),0,false,335228.2000000477,335228.10000002384,327952.543,328177.89999997616,327985.886,335016.253,1,40,2,
sequence,flow.Sequence,6_1,2023-11-20T16:39:03.330Z,,,,,,,,,,,7242.214000023843,completion,,,,,,,low,high,,,,,,,true,,,,,false,335228.2999999523,335228.10000002384,327952.543,328177.89999997616,327985.886,335016.253,1,40,,
trial,html.Screen,6_2_0,2023-11-20T16:39:10.562Z,,,,1,-1.0788024398087033,0.9911875460374616,,,true,hl,7443.746999999974,response,0.8830264383952469,1.2,-1.2,-0.8635562538060516,1.2,-1.2,high,low,,ISIC_5951430.JPG,,ISIC_0032258.JPG,,26,true,0.4500000000000003,hl,keypress(j),0,false,342460.10000002384,342460,334999.531,335228.39999997616,335016.253,342246.982,1,40,3,
sequence,flow.Sequence,6_2,2023-11-20T16:39:10.562Z,,,,,,,,,,,7443.746999999974,completion,,,,,,,high,low,,,,,,,true,,,,,false,342460.2999999523,342460,334999.531,335228.2999999523,335016.253,342246.982,1,40,,
trial,html.Screen,6_3_0,2023-11-20T16:39:15.458Z,,,,1,-0.8987343013179191,0.8149073454566363,,,false,hl,5109.118000023824,response,1.199471562817528,1.2,-1.2,-0.8631260534979347,1.2,-1.2,high,low,,ISIC_0472513.JPG,,ISIC_0030754.JPG,,26,true,0.4500000000000003,ll,keypress(f),0,false,347356.2000000477,347356.10000002384,342230.228,342460.2999999523,342246.982,347139.836,1,40,4,
sequence,flow.Sequence,6_3,2023-11-20T16:39:15.458Z,,,,,,,,,,,5109.118000023824,completion,,,,,,,high,low,,,,,,,true,,,,,false,347356.2999999523,347356.10000002384,342230.228,342460.2999999523,342246.982,347139.836,1,40,,
trial,html.Screen,6_4_0,2023-11-20T16:39:19.730Z,,,,1,-1.186629690487006,-1.3269945600040771,,,true,hh,4488.16399999999,response,0.8526775318290718,1.2,-1.2,0.9398012765219632,1.2,-1.2,high,high,,ISIC_0015390.JPG,,ISIC_2647198.JPG,,203,true,0.40000000000000024,hh,keypress(i),0,false,351628.10000002384,351628,347123.12,347356.2999999523,347139.836,351414.812,1,40,5,
sequence,flow.Sequence,6_4,2023-11-20T16:39:19.730Z,,,,,,,,,,,4488.16399999999,completion,,,,,,,high,high,,,,,,,true,,,,,false,351628.10000002384,351628,347123.12,347356.2999999523,347139.836,351414.812,1,40,,
trial,html.Screen,6_5_0,2023-11-20T16:39:27.860Z,,,,1,1.077278111180185,1.1530533996184025,,,true,ll,8341.288000023866,response,-1.1243896694621007,1.2,-1.2,-1.1772340944704969,1.2,-1.2,low,low,,ISIC_9525136.JPG,,ISIC_0062765.JPG,,30,true,0.13,ll,keypress(f),0,false,359756.2000000477,359756.10000002384,351398.081,351628.2000000477,351414.812,359547.303,1,40,6,
sequence,flow.Sequence,6_5,2023-11-20T16:39:27.860Z,,,,,,,,,,,8341.288000023866,completion,,,,,,,low,low,,,,,,,true,,,,,false,359756.2999999523,359756.10000002384,351398.081,351628.2000000477,351414.812,359547.303,1,40,,
trial,html.Screen,6_6_0,2023-11-20T16:39:29.891Z,,,,1,1.274417010249866,1.0725495669014795,,,true,ll,2240.5969999761437,response,-1.0653732408486678,1.2,-1.2,-1.089675540151582,1.2,-1.2,low,low,,ISIC_8849004.JPG,,ISIC_0058315.JPG,,40,true,0.14,ll,keypress(f),0,false,361788,361787.89999997616,359530.531,359756.39999997616,359547.303,361584.631,1,40,7,
sequence,flow.Sequence,6_6,2023-11-20T16:39:29.892Z,,,,,,,,,,,2240.5969999761437,completion,,,,,,,low,low,,,,,,,true,,,,,false,361788.10000002384,361787.89999997616,359530.531,359756.39999997616,359547.303,361584.631,1,40,,
trial,html.Screen,6_7_0,2023-11-20T16:39:32.732Z,,,,1,1.1989130276493527,1.2666195460149832,,,true,ll,3043.5690000476898,response,-1.1302628852630028,1.2,-1.2,-1.288906469447243,1.2,-1.2,low,low,,ISIC_0031705.JPG,,ISIC_0071050.JPG,,40,true,0.14,ll,keypress(f),0,false,364628.39999997616,364628.2000000477,361567.885,361788.2000000477,361584.631,364423.475,1,40,8,
sequence,flow.Sequence,6_7,2023-11-20T16:39:32.732Z,,,,,,,,,,,3043.5690000476898,completion,,,,,,,low,low,,,,,,,true,,,,,false,364628.5,364628.2000000477,361567.885,361788.2000000477,361584.631,364423.475,1,40,,
trial,html.Screen,6_8_0,2023-11-20T16:39:39.660Z,,,,1,-1.2749714218614645,-1.1578619398362149,,,false,hh,7132.82499995234,response,1.2600330864275875,1.2,-1.2,1.0958628838888655,1.2,-1.2,high,high,,ISIC_0024999.JPG,,ISIC_0026996.JPG,,25,true,0.14,lh,keypress(e),0,false,371556.39999997616,371556.2999999523,364406.713,364628.60000002384,364423.475,371353.573,1,40,9,
sequence,flow.Sequence,6_8,2023-11-20T16:39:39.660Z,,,,,,,,,,,7132.82499995234,completion,,,,,,,high,high,,,,,,,true,,,,,false,371556.60000002384,371556.2999999523,364406.713,364628.60000002384,364423.475,371353.573,1,40,,
trial,html.Screen,6_9_0,2023-11-20T16:39:45.699Z,,,,1,-1.1441767540243375,-1.0949087392471728,,,false,hh,6242.326999976183,response,1.1409143352872226,1.2,-1.2,1.1323007949069106,1.2,-1.2,high,high,,ISIC_0054146.JPG,,ISIC_0030291.JPG,,25,true,0.14,lh,keypress(e),0,false,377596,377595.89999997616,371336.837,371556.7000000477,371353.573,377381.984,1,40,10,
sequence,flow.Sequence,6_9,2023-11-20T16:39:45.700Z,,,,,,,,,,,6242.326999976183,completion,,,,,,,high,high,,,,,,,true,,,,,false,377596.10000002384,377595.89999997616,371336.837,371556.7000000477,371353.573,377381.984,1,40,,
trial,html.Screen,6_10_0,2023-11-20T16:39:49.956Z,,,,1,-1.1302628852630028,-1.288906469447243,,,false,hh,4470.116000023845,response,1.077278111180185,1.2,-1.2,1.1530533996184025,1.2,-1.2,high,high,,ISIC_0071050.JPG,,ISIC_9525136.JPG,,25,true,0.14,lh,keypress(e),0,false,381852.10000002384,381852.10000002384,377365.236,377596.2000000477,377381.984,381640.233,1,40,11,
sequence,flow.Sequence,6_10,2023-11-20T16:39:49.956Z,,,,,,,,,,,4470.116000023845,completion,,,,,,,high,high,,,,,,,true,,,,,false,381852.2000000477,381852.10000002384,377365.236,377596.10000002384,377381.984,381640.233,1,40,,
trial,html.Screen,6_11_0,2023-11-20T16:39:55.523Z,,,,1,1.1870093485714288,1.3339880978442629,,,true,ll,5779.666999976151,response,-1.0849202097813322,1.2,-1.2,-1.0851127310415287,1.2,-1.2,low,low,,ISIC_8592235.JPG,,ISIC_0010289.JPG,,30,true,0.13,ll,keypress(f),0,false,387420,387419.89999997616,381623.554,381852.2999999523,381640.233,387217.776,1,40,12,
sequence,flow.Sequence,6_11,2023-11-20T16:39:55.524Z,,,,,,,,,,,5779.666999976151,completion,,,,,,,low,low,,,,,,,true,,,,,false,387420.10000002384,387419.89999997616,381623.554,381852.2999999523,381640.233,387217.776,1,40,,
trial,html.Screen,6_12_0,2023-11-20T16:39:58.939Z,,,,1,-0.8350129142228142,0.8172547818270586,,,false,hl,3618.2239999999874,response,0.8034318937720549,1.2,-1.2,-1.0024917298189338,1.2,-1.2,high,low,,ISIC_0301568.JPG,,ISIC_0032766.JPG,,26,true,0.4500000000000003,ll,keypress(f),0,false,390836,390836,387201.034,387420.2000000477,387217.776,390624.441,1,40,13,
sequence,flow.Sequence,6_12,2023-11-20T16:39:58.940Z,,,,,,,,,,,3618.2239999999874,completion,,,,,,,high,low,,,,,,,true,,,,,false,390836.2000000477,390836,387201.034,387420.2000000477,387217.776,390624.441,1,40,,
trial,html.Screen,6_13_0,2023-11-20T16:40:03.836Z,,,,1,1.077278111180185,1.1530533996184025,,,true,ll,5107.559000000008,response,-0.9575090175925351,1.2,-1.2,-1.0307816252475666,1.2,-1.2,low,low,,ISIC_9525136.JPG,,ISIC_1369273.JPG,,288,true,0.40000000000000024,ll,keypress(f),0,false,395732.10000002384,395732,390607.681,390836.2000000477,390624.441,395533.949,1,40,14,
sequence,flow.Sequence,6_13,2023-11-20T16:40:03.836Z,,,,,,,,,,,5107.559000000008,completion,,,,,,,low,low,,,,,,,true,,,,,false,395732.2000000477,395732,390607.681,390836.2000000477,390624.441,395533.949,1,40,,
trial,html.Screen,6_14_0,2023-11-20T16:40:09.019Z,,,,1,-0.8067116931297591,1.215898074058027,,,false,hl,5381.950999976136,response,0.7882758084023446,1.2,-1.2,-0.8296405881378283,1.2,-1.2,high,low,,ISIC_1457687.JPG,,ISIC_0065882.JPG,,26,true,0.4500000000000003,ll,keypress(f),0,false,400915.89999997616,400915.89999997616,395500.539,395732.2999999523,395533.949,400710.691,1,40,15,
sequence,flow.Sequence,6_14,2023-11-20T16:40:09.019Z,,,,,,,,,,,5381.950999976136,completion,,,,,,,high,low,,,,,,,true,,,,,false,400916.10000002384,400915.89999997616,395500.539,395732.2999999523,395533.949,400710.691,1,40,,
trial,html.Screen,6_15_0,2023-11-20T16:40:11.828Z,,,,1,-1.186629690487006,-1.3269945600040771,,,true,hh,3013.509000047692,response,1.4530180759346911,1.2,-1.2,1.0063044025325396,1.2,-1.2,high,high,,ISIC_0015390.JPG,,ISIC_0003150.JPG,,203,true,0.40000000000000024,hh,keypress(i),0,false,403724.39999997616,403724.2000000477,400693.944,400916.10000002384,400710.691,403516.152,1,40,16,
sequence,flow.Sequence,6_15,2023-11-20T16:40:11.828Z,,,,,,,,,,,3013.509000047692,completion,,,,,,,high,high,,,,,,,true,,,,,false,403724.60000002384,403724.2000000477,400693.944,400916.10000002384,400710.691,403516.152,1,40,,
trial,html.Screen,6_16_0,2023-11-20T16:40:17.116Z,,,,1,0.8719231363109603,-0.7704280220140033,,,false,lh,5496.548000047682,response,-1.2594580992890123,1.2,-1.2,0.8833175387485132,1.2,-1.2,low,high,,ISIC_0029453.JPG,,ISIC_0011933.JPG,,27,true,0.40000000000000024,ll,keypress(f),0,false,409012.89999997616,409012.7000000477,403499.411,403724.60000002384,403516.152,408809.771,1,40,17,
sequence,flow.Sequence,6_16,2023-11-20T16:40:17.116Z,,,,,,,,,,,5496.548000047682,completion,,,,,,,low,high,,,,,,,true,,,,,false,409013.10000002384,409012.7000000477,403499.411,403724.60000002384,403516.152,408809.771,1,40,,
trial,html.Screen,6_17_0,2023-11-20T16:40:24.885Z,,,,1,0.9754077946987664,-1.1821868813141057,,,false,lh,7971.528999952308,response,-1.2020012168275056,1.2,-1.2,0.923753102263735,1.2,-1.2,low,high,,ISIC_0024317.JPG,,ISIC_0000022.JPG,,40,true,0.4500000000000003,hh,keypress(i),0,false,416781.39999997616,416781.2999999523,408793.12,409013.10000002384,408809.771,416574.91,1,40,18,
sequence,flow.Sequence,6_17,2023-11-20T16:40:24.885Z,,,,,,,,,,,7971.528999952308,completion,,,,,,,low,high,,,,,,,true,,,,,false,416781.7999999523,416781.2999999523,408793.12,409013.10000002384,408809.771,416574.91,1,40,,
trial,html.Screen,6_18_0,2023-11-20T16:40:30.181Z,,,,1,-1.082709423673037,-1.1184338818466155,,,true,hh,5502.1900000238675,response,1.102485543525293,1.2,-1.2,0.7592116102410887,1.2,-1.2,high,high,,ISIC_0058666.JPG,,ISIC_1208705.JPG,,265,true,0.4500000000000003,hh,keypress(i),0,false,422077.2999999523,422077.10000002384,416558.288,416782,416574.91,421885.221,1,40,19,
sequence,flow.Sequence,6_18,2023-11-20T16:40:30.182Z,,,,,,,,,,,5502.1900000238675,completion,,,,,,,high,high,,,,,,,true,,,,,false,422077.7000000477,422077.10000002384,416558.288,416782,416574.91,421885.221,1,40,,
trial,html.Screen,6_19_0,2023-11-20T16:40:35.876Z,,,,1,1.0453124399868816,-0.8986747280184286,,,true,lh,5886.879000023822,response,-1.2646773654288392,1.2,-1.2,0.952963803634235,1.2,-1.2,low,high,,ISIC_0013967.JPG,,ISIC_1996356.JPG,,27,true,0.40000000000000024,lh,keypress(e),0,false,427772.2999999523,427772.10000002384,421851.788,422077.89999997616,421885.221,427563.022,1,40,20,
sequence,flow.Sequence,6_19,2023-11-20T16:40:35.877Z,,,,,,,,,,,5886.879000023822,completion,,,,,,,low,high,,,,,,,true,,,,,false,427772.39999997616,427772.10000002384,421851.788,422077.89999997616,421885.221,427563.022,1,40,,
trial,html.Screen,6_20_0,2023-11-20T16:40:40.244Z,,,,1,1.1870093485714288,1.3339880978442629,,,true,ll,4577.078000023845,response,-0.9159664042920548,1.2,-1.2,-0.96519839238634,1.2,-1.2,low,low,,ISIC_8592235.JPG,,ISIC_0053617.JPG,,359,true,0.4500000000000003,ll,keypress(f),0,false,432140.10000002384,432140.10000002384,427546.436,427772.5,427563.022,431938.079,1,40,21,
sequence,flow.Sequence,6_20,2023-11-20T16:40:40.244Z,,,,,,,,,,,4577.078000023845,completion,,,,,,,low,low,,,,,,,true,,,,,false,432140.2999999523,432140.10000002384,427546.436,427772.39999997616,427563.022,431938.079,1,40,,
trial,html.Screen,6_21_0,2023-11-20T16:40:43.533Z,,,,1,-0.9617893983965208,0.9453006131304652,,,false,hl,3490.420999999973,response,1.0887164761389951,1.2,-1.2,-1.5357518752548716,1.2,-1.2,high,low,,ISIC_4229473.JPG,,ISIC_0028127.JPG,,26,true,0.4500000000000003,ll,keypress(f),0,false,435428.7000000477,435428.5,431921.437,432140.39999997616,431938.079,435229.188,1,40,22,
sequence,flow.Sequence,6_21,2023-11-20T16:40:43.533Z,,,,,,,,,,,3490.420999999973,completion,,,,,,,high,low,,,,,,,true,,,,,false,435429,435428.5,431921.437,432140.2999999523,431938.079,435229.188,1,40,,
trial,html.Screen,6_22_0,2023-11-20T16:40:45.269Z,,,,1,1.0659165756604234,1.0867497316848906,,,true,ll,1935.1119999522925,response,-1.0445201832895987,1.2,-1.2,-1.3787348439043303,1.2,-1.2,low,low,,ISIC_5807608.JPG,,ISIC_0066354.JPG,,288,true,0.40000000000000024,ll,keypress(f),0,false,437164.39999997616,437164.2999999523,435194.657,435429,435229.188,436964.551,1,40,23,
sequence,flow.Sequence,6_22,2023-11-20T16:40:45.269Z,,,,,,,,,,,1935.1119999522925,completion,,,,,,,low,low,,,,,,,true,,,,,false,437164.5,437164.2999999523,435194.657,435429,435229.188,436964.551,1,40,,
trial,html.Screen,6_23_0,2023-11-20T16:40:49.997Z,,,,1,-0.8500530224490773,1.0893360711742854,,,false,hl,4927.8489999761805,response,1.2578167348825195,1.2,-1.2,-0.8371819698254004,1.2,-1.2,high,low,,ISIC_2998367.JPG,,ISIC_9613570.JPG,,26,true,0.4500000000000003,lh,keypress(e),0,false,441892.60000002384,441892.39999997616,436931.253,437164.60000002384,436964.551,441690.46,1,40,24,
sequence,flow.Sequence,6_23,2023-11-20T16:40:49.997Z,,,,,,,,,,,4927.8489999761805,completion,,,,,,,high,low,,,,,,,true,,,,,false,441892.7999999523,441892.39999997616,436931.253,437164.60000002384,436964.551,441690.46,1,40,,
trial,html.Screen,6_24_0,2023-11-20T16:41:02.445Z,,,,1,-1.0915173513546716,-1.266840220031473,,,false,hh,12650.439999976137,response,0.8372379817368715,1.2,-1.2,0.8148867547702584,1.2,-1.2,high,high,,ISIC_8241457.JPG,,ISIC_0024277.JPG,,203,true,0.40000000000000024,hl,keypress(j),0,false,454341.10000002384,454340.89999997616,441673.638,441892.89999997616,441690.46,454131.33,1,40,25,
sequence,flow.Sequence,6_24,2023-11-20T16:41:02.445Z,,,,,,,,,,,12650.439999976137,completion,,,,,,,high,high,,,,,,,true,,,,,false,454341.2999999523,454340.89999997616,441673.638,441892.7999999523,441690.46,454131.33,1,40,,
trial,html.Screen,6_25_0,2023-11-20T16:41:12.469Z,,,,1,-1.266079261381142,-1.312161506160336,,,true,hh,10232.9699999523,response,1.1409143352872226,1.2,-1.2,1.1323007949069106,1.2,-1.2,high,high,,ISIC_0065449.JPG,,ISIC_0030291.JPG,,25,true,0.14,hh,keypress(i),0,false,464364.5,464364.2999999523,454114.462,454341.2999999523,454131.33,464150.762,1,40,26,
sequence,flow.Sequence,6_25,2023-11-20T16:41:12.469Z,,,,,,,,,,,10232.9699999523,completion,,,,,,,high,high,,,,,,,true,,,,,false,464364.60000002384,464364.2999999523,454114.462,454341.2999999523,454131.33,464150.762,1,40,,
trial,html.Screen,6_26_0,2023-11-20T16:41:16.709Z,,,,1,1.2724293858920366,1.149360738769835,,,true,ll,4453.938000047696,response,-1.1668613502915044,1.2,-1.2,-1.327068780840367,1.2,-1.2,low,low,,ISIC_1264725.JPG,,ISIC_0054459.JPG,,30,true,0.13,ll,keypress(f),0,false,468605,468604.7000000477,464134.106,464364.7000000477,464150.762,468409.02,1,40,27,
sequence,flow.Sequence,6_26,2023-11-20T16:41:16.709Z,,,,,,,,,,,4453.938000047696,completion,,,,,,,low,low,,,,,,,true,,,,,false,468605.2999999523,468604.7000000477,464134.106,464364.7000000477,464150.762,468409.02,1,40,,
trial,html.Screen,6_27_0,2023-11-20T16:41:28.406Z,,,,1,1.0369885917487718,-0.8486937878412699,,,false,lh,11891.580000023823,response,-0.9244148283103414,1.2,-1.2,0.9712966348713286,1.2,-1.2,low,high,,ISIC_6917681.JPG,,ISIC_7927525.JPG,,27,true,0.40000000000000024,hl,keypress(j),0,false,480300.7999999523,480300.60000002384,468375.701,468605.5,468409.02,480098.424,1,40,28,
sequence,flow.Sequence,6_27,2023-11-20T16:41:28.406Z,,,,,,,,,,,11891.580000023823,completion,,,,,,,low,high,,,,,,,true,,,,,false,480301,480300.60000002384,468375.701,468605.5,468409.02,480098.424,1,40,,
trial,html.Screen,6_28_0,2023-11-20T16:41:33.013Z,,,,1,0.7518277461369444,-1.3860759020802074,,,false,lh,4810.176000023843,response,-0.9617893983965208,1.2,-1.2,0.9453006131304652,1.2,-1.2,low,high,,ISIC_7967397.JPG,,ISIC_4229473.JPG,,40,true,0.4500000000000003,ll,keypress(f),0,false,484908.7000000477,484908.60000002384,480081.752,480301,480098.424,484707.861,1,40,29,
sequence,flow.Sequence,6_28,2023-11-20T16:41:33.014Z,,,,,,,,,,,4810.176000023843,completion,,,,,,,low,high,,,,,,,true,,,,,false,484908.7999999523,484908.60000002384,480081.752,480301,480098.424,484707.861,1,40,,
trial,html.Screen,6_29_0,2023-11-20T16:41:46.574Z,,,,1,-1.2014901828022857,-1.1484096197304636,,,false,hh,13761.239000023867,response,1.1843968275545205,1.2,-1.2,1.2828739728067764,1.2,-1.2,high,high,,ISIC_0067808.JPG,,ISIC_0002901.JPG,,265,true,0.4500000000000003,lh,keypress(e),0,false,498469.39999997616,498469.10000002384,484674.089,484908.7999999523,484707.861,498267.101,1,40,30,
sequence,flow.Sequence,6_29,2023-11-20T16:41:46.575Z,,,,,,,,,,,13761.239000023867,completion,,,,,,,high,high,,,,,,,true,,,,,false,498469.7000000477,498469.10000002384,484674.089,484908.7999999523,484707.861,498267.101,1,40,,
trial,html.Screen,6_30_0,2023-11-20T16:41:48.773Z,,,,1,-0.8867328775712738,1.0063426986460375,,,false,hl,2401.198999952292,response,0.8719231363109603,1.2,-1.2,-0.7704280220140033,1.2,-1.2,high,low,,ISIC_0055759.JPG,,ISIC_0029453.JPG,,26,true,0.4500000000000003,ll,keypress(f),0,false,500668.39999997616,500668.2999999523,498250.501,498469.89999997616,498267.101,500454.704,1,40,31,
sequence,flow.Sequence,6_30,2023-11-20T16:41:48.773Z,,,,,,,,,,,2401.198999952292,completion,,,,,,,high,low,,,,,,,true,,,,,false,500668.7000000477,500668.2999999523,498250.501,498469.7999999523,498267.101,500454.704,1,40,,
trial,html.Screen,6_31_0,2023-11-20T16:42:00.478Z,,,,1,1.2578167348825195,-0.8371819698254004,,,false,lh,11917.996000047657,response,-0.8307508446051526,1.2,-1.2,1.1707575338936729,1.2,-1.2,low,high,,ISIC_9613570.JPG,,ISIC_0028606.JPG,,27,true,0.40000000000000024,hh,keypress(i),0,false,512372.7999999523,512372.7000000477,500438.119,500668.7999999523,500454.704,512177.51,1,40,32,
sequence,flow.Sequence,6_31,2023-11-20T16:42:00.478Z,,,,,,,,,,,11917.996000047657,completion,,,,,,,low,high,,,,,,,true,,,,,false,512373.2000000477,512372.7000000477,500438.119,500668.7000000477,500454.704,512177.51,1,40,,
trial,html.Screen,6_32_0,2023-11-20T16:42:04.773Z,,,,1,0.8513427412482127,-0.9295303568095064,,,false,lh,4490.690000047674,response,-0.9089402323867112,1.2,-1.2,0.8034544077281132,1.2,-1.2,low,high,,ISIC_0034164.JPG,,ISIC_3585381.JPG,,40,true,0.4500000000000003,ll,keypress(f),0,false,516668.2999999523,516668.2000000477,512144.213,512373.2999999523,512177.51,516452.442,1,40,33,
sequence,flow.Sequence,6_32,2023-11-20T16:42:04.773Z,,,,,,,,,,,4490.690000047674,completion,,,,,,,low,high,,,,,,,true,,,,,false,516668.39999997616,516668.2000000477,512144.213,512373.2999999523,512177.51,516452.442,1,40,,
trial,html.Screen,6_33_0,2023-11-20T16:42:11.461Z,,,,1,-1.186629690487006,-1.3269945600040771,,,true,hh,6903.758000047703,response,1.0757050222000146,1.2,-1.2,0.9214423600454036,1.2,-1.2,high,high,,ISIC_0015390.JPG,,ISIC_5152859.JPG,,265,true,0.4500000000000003,hh,keypress(i),0,false,523356.2999999523,523356.2000000477,516435.825,516668.39999997616,516452.442,523149.011,1,40,34,
sequence,flow.Sequence,6_33,2023-11-20T16:42:11.461Z,,,,,,,,,,,6903.758000047703,completion,,,,,,,high,high,,,,,,,true,,,,,false,523356.39999997616,523356.2000000477,516435.825,516668.39999997616,516452.442,523149.011,1,40,,
trial,html.Screen,6_34_0,2023-11-20T16:42:14.382Z,,,,1,1.274752206258116,1.2988509166163749,,,true,ll,3127.8889999761595,response,-1.1392972253022884,1.2,-1.2,-1.208510423375335,1.2,-1.2,low,low,,ISIC_6704623.JPG,,ISIC_0046526.JPG,,30,true,0.13,ll,keypress(f),0,false,526277.1000000238,526276.8999999762,523132.287,523356.39999997616,523149.011,526104.566,1,40,35,
sequence,flow.Sequence,6_34,2023-11-20T16:42:14.382Z,,,,,,,,,,,3127.8889999761595,completion,,,,,,,low,low,,,,,,,true,,,,,false,526277.5,526276.8999999762,523132.287,523356.39999997616,523149.011,526104.566,1,40,,
trial,html.Screen,6_35_0,2023-11-20T16:42:30.206Z,,,,1,-0.9089402323867112,0.8034544077281132,,,,,15780.748999999953,timeout,0.7518277461369444,1.2,-1.2,-1.3860759020802074,1.2,-1.2,high,low,,ISIC_3585381.JPG,,ISIC_7967397.JPG,,26,true,0.4500000000000003,,,0,false,542100.2999999523,542100.1000000238,526054.496,526277.7000000477,526104.566,541885.315,1,40,36,
sequence,flow.Sequence,6_35,2023-11-20T16:42:30.206Z,,,,,,,,,,,15995.53400002385,completion,,,,,,,high,low,,,,,,,true,,,,,false,542100.7000000477,542100.1000000238,526054.496,526277.6000000238,526104.566,541885.315,1,40,,
trial,html.Screen,6_36_0,2023-11-20T16:42:38.511Z,,,,1,0.8110121381849364,-0.7563142141851558,,,false,lh,8519.785000023898,response,-0.9244148283103414,1.2,-1.2,0.9712966348713286,1.2,-1.2,low,high,,ISIC_0033605.JPG,,ISIC_7927525.JPG,,27,true,0.40000000000000024,ll,keypress(f),0,false,550405.3999999762,550405.1000000238,541868.578,542100.8999999762,541885.315,550201.42,1,40,37,
sequence,flow.Sequence,6_36,2023-11-20T16:42:38.511Z,,,,,,,,,,,8519.785000023898,completion,,,,,,,low,high,,,,,,,true,,,,,false,550405.7999999523,550405.1000000238,541868.578,542100.7999999523,541885.315,550201.42,1,40,,
trial,html.Screen,6_37_0,2023-11-20T16:42:45.039Z,,,,1,-0.8067116931297591,1.215898074058027,,,false,hl,6731.479999976116,response,0.7883321712536753,1.2,-1.2,-1.0011430756825364,1.2,-1.2,high,low,,ISIC_1457687.JPG,,ISIC_9828853.JPG,,26,true,0.4500000000000003,ll,keypress(f),0,false,556933,556932.8999999762,550184.893,550405.8999999762,550201.42,556730.805,1,40,38,
sequence,flow.Sequence,6_37,2023-11-20T16:42:45.039Z,,,,,,,,,,,6731.479999976116,completion,,,,,,,high,low,,,,,,,true,,,,,false,556933.3999999762,556932.8999999762,550184.893,550405.8999999762,550201.42,556730.805,1,40,,
trial,html.Screen,6_38_0,2023-11-20T16:42:49.374Z,,,,1,-0.90812608370647,1.2720026872926935,,,false,hl,4537.3950000476325,response,0.7518277461369444,1.2,-1.2,-1.3860759020802074,1.2,-1.2,high,low,,ISIC_0450295.JPG,,ISIC_7967397.JPG,,26,true,0.4500000000000003,lh,keypress(e),0,false,561268.3999999762,561268.2000000477,556714.287,556933.5,556730.805,561055.856,1,40,39,
sequence,flow.Sequence,6_38,2023-11-20T16:42:49.374Z,,,,,,,,,,,4537.3950000476325,completion,,,,,,,high,low,,,,,,,true,,,,,false,561268.5,561268.2000000477,556714.287,556933.3999999762,556730.805,561055.856,1,40,,
trial,html.Screen,6_39_0,2023-11-20T16:42:51.671Z,,,,1,0.8719231363109603,-0.7704280220140033,,,false,lh,2508.9439999522874,response,-0.9662688541319592,1.2,-1.2,0.929746784178986,1.2,-1.2,low,high,,ISIC_0029453.JPG,,ISIC_0011077.JPG,,27,true,0.40000000000000024,ll,keypress(f),0,false,563565,563564.7999999523,561039.297,561268.7000000477,561055.856,563360.517,1,40,40,
sequence,flow.Sequence,6_39,2023-11-20T16:42:51.671Z,,,,,,,,,,,2508.9439999522874,completion,,,,,,,low,high,,,,,,,true,,,,,false,563565.3999999762,563564.7999999523,561039.297,561268.6000000238,561055.856,563360.517,1,40,,
practice_loop,flow.Loop,6,2023-11-20T16:42:51.671Z,,,,,,,,,,,243026.68599995231,completion,,,,,,,,,,,,,,,true,,,,,false,563565.5,563564.7999999523,320521.404,320755.5,320538.114,563360.517,1,40,,
stair_instructions,html.Screen,7,2023-11-20T16:43:15.901Z,,,,,,,,,,,24434.983000000007,response,,,,,,,,,,,,,,,,,continue,click button,,,587796,587795.5,563343.832,563565.7000000477,563360.517,587607.679,,,,
trial,html.Screen,8_0_0,2023-11-20T16:43:27.753Z,,,,2,-0.001445457736793,-0.0165307427449982,,0.04,false,hh,12038.921000023838,response,0.8115434332647807,1.2,-1.2,0.7797153835685641,1.2,-1.2,high,high,,ISIC_0027350.JPG,,ISIC_7300631.JPG,28,265,false,0.4500000000000003,lh,keypress(e),0,true,599647,599646.6000000238,587590.886,587796.1000000238,587607.679,599447.278,1,40,1,
sequence,flow.Sequence,8_0,2023-11-20T16:43:27.753Z,,,,,,,,,,,12038.921000023838,completion,,,,,,,high,high,,,,,,,false,,,,,true,599647.2999999523,599646.6000000238,587590.886,587796.1000000238,587607.679,599447.278,1,40,,
trial,html.Screen,8_1_0,2023-11-20T16:43:30.350Z,,,,2,-0.0199950873045219,-0.0172506388509166,,0.04,true,ll,2796.8220000237925,response,-1.236306205926646,1.2,-1.15,-1.116612676102794,1.15,-1.15,low,low,,ISIC_0029906.JPG,,ISIC_0054341.JPG,28,27,false,0.1,ll,keypress(f),0,true,602244.2000000477,602244.1000000238,599430.546,599647.6000000238,599447.278,602035.587,1,40,2,
sequence,flow.Sequence,8_1,2023-11-20T16:43:30.350Z,,,,,,,,,,,2796.8220000237925,completion,,,,,,,low,low,,,,,,,false,,,,,true,602244.3999999762,602244.1000000238,599430.546,599647.5,599447.278,602035.587,1,40,,
trial,html.Screen,8_2_0,2023-11-20T16:43:36.182Z,,,,2,-0.0241900387072296,0.0339955304424736,,0.04,false,hl,6040.3129999761,response,0.7883321712536753,1.15,-1.15,-1.0011430756825364,1.15,-1.15,high,low,,ISIC_0010789.JPG,,ISIC_9828853.JPG,28,26,false,0.40000000000000024,hh,keypress(i),0,true,608076,608075.8999999762,602019.081,602244.5,602035.587,607863.587,1,40,3,
sequence,flow.Sequence,8_2,2023-11-20T16:43:36.182Z,,,,,,,,,,,6040.3129999761,completion,,,,,,,high,low,,,,,,,false,,,,,true,608076.1000000238,608075.8999999762,602019.081,602244.5,602035.587,607863.587,1,40,,
trial,html.Screen,8_3_0,2023-11-20T16:43:42.021Z,,,,2,0.0119001144851157,-0.0063430114540141,,0.04,false,ll,6050.8129999761,response,-1.0581711446393522,1.15,-1.15,-1.1376053597134304,1.15,-1.15,low,low,,ISIC_0003822.JPG,,ISIC_0014987.JPG,28,27,false,0.1,lh,keypress(e),0,true,613914.5,613914.3999999762,607847.062,608076.2000000477,607863.587,613708.332,1,40,4,
sequence,flow.Sequence,8_3,2023-11-20T16:43:42.021Z,,,,,,,,,,,6050.8129999761,completion,,,,,,,low,low,,,,,,,false,,,,,true,613914.7999999523,613914.3999999762,607847.062,608076.2000000477,607863.587,613708.332,1,40,,
trial,html.Screen,8_4_0,2023-11-20T16:43:44.886Z,,,,2,-0.0109416414475118,-0.005246498750811,,0.04,false,hh,3071.667999999947,response,1.2219550761700546,1.15,-1.0999999999999999,1.2809901875733454,1.15,-1.15,high,high,,ISIC_0064279.JPG,,ISIC_6463417.JPG,28,27,false,0.14,ll,keypress(f),0,true,616780.2000000477,616780,613691.651,613914.8999999762,613708.332,616563.803,1,40,5,
sequence,flow.Sequence,8_4,2023-11-20T16:43:44.886Z,,,,,,,,,,,3071.667999999947,completion,,,,,,,high,high,,,,,,,false,,,,,true,616780.3999999762,616780,613691.651,613914.8999999762,613708.332,616563.803,1,40,,
trial,html.Screen,8_5_0,2023-11-20T16:43:51.880Z,,,,2,0.0200295718112167,0.0155559071275806,,0.04,false,ll,7209.49699995236,response,-1.0887084502656488,1.15,-1.0999999999999999,-1.0539327766106836,1.15,-1.15,low,low,,ISIC_0061343.JPG,,ISIC_0030417.JPG,28,27,false,0.1,lh,keypress(e),0,true,623773.6000000238,623773.2999999523,616547.182,616780.3999999762,616563.803,623560.757,1,40,6,
sequence,flow.Sequence,8_5,2023-11-20T16:43:51.880Z,,,,,,,,,,,7209.49699995236,completion,,,,,,,low,low,,,,,,,false,,,,,true,623773.8999999762,623773.2999999523,616547.182,616780.3999999762,616563.803,623560.757,1,40,,
trial,html.Screen,8_6_0,2023-11-20T16:43:55.862Z,,,,2,-0.0374659946425444,-0.0086043094957617,,0.04,false,lh,4195.243000000017,response,-0.9662688541319592,1.15,-1.0999999999999999,0.929746784178986,1.15,-1.15,low,high,,ISIC_0033051.JPG,,ISIC_0011077.JPG,28,26,false,0.3300000000000002,ll,keypress(f),0,true,627756,627756,623544.105,623774,623560.757,627551.996,1,40,7,
sequence,flow.Sequence,8_6,2023-11-20T16:43:55.862Z,,,,,,,,,,,4195.243000000017,completion,,,,,,,low,high,,,,,,,false,,,,,true,627756.2000000477,627756,623544.105,623774,623560.757,627551.996,1,40,,
trial,html.Screen,8_7_0,2023-11-20T16:43:58.878Z,,,,2,-0.0388334549081915,0.0303399972963369,,0.04,true,ll,3219.8039999522734,response,-0.9009295317307888,1.15,-0.977488652198804,-1.1709847465829908,1.15,-1.15,low,low,,ISIC_4961708.JPG,,ISIC_0059551.JPG,28,39,false,0.1,ll,keypress(f),0,true,630771.8999999762,630771.7999999523,627535.293,627756.2999999523,627551.996,630557.699,1,40,8,
sequence,flow.Sequence,8_7,2023-11-20T16:43:58.878Z,,,,,,,,,,,3219.8039999522734,completion,,,,,,,low,low,,,,,,,false,,,,,true,630772,630771.7999999523,627535.293,627756.2999999523,627551.996,630557.699,1,40,,
trial,html.Screen,8_8_0,2023-11-20T16:44:02.478Z,,,,2,-0.001445457736793,-0.0165307427449982,,0.04,true,hh,3814.3009999999776,response,1.1055382068806878,1.15,-0.977488652198804,1.0166010471189206,1.15,-1.15,high,high,,ISIC_0027350.JPG,,ISIC_5420979.JPG,28,27,false,0.14,hh,keypress(i),0,true,634372.2000000477,634372,630541.082,630772,630557.699,634164.738,1,40,9,
sequence,flow.Sequence,8_8,2023-11-20T16:44:02.479Z,,,,,,,,,,,3814.3009999999776,completion,,,,,,,high,high,,,,,,,false,,,,,true,634372.3999999762,634372,630541.082,630772,630557.699,634164.738,1,40,,
trial,html.Screen,8_9_0,2023-11-20T16:44:05.262Z,,,,2,0,-0.0102871556606504,,0.04,false,lh,2990.9620000476716,response,-0.8067116931297591,1.15,-0.977488652198804,1.215898074058027,1.15,-1.15,low,high,,ISIC_1805163.JPG,,ISIC_1457687.JPG,28,26,false,0.29000000000000015,hh,keypress(i),0,true,637155.7999999523,637155.7000000477,634148.139,634372.5,634164.738,636953.519,1,40,10,
sequence,flow.Sequence,8_9,2023-11-20T16:44:05.262Z,,,,,,,,,,,2990.9620000476716,completion,,,,,,,low,high,,,,,,,false,,,,,true,637155.8999999762,637155.7000000477,634148.139,634372.3999999762,634164.738,636953.519,1,40,,
trial,html.Screen,8_10_0,2023-11-20T16:44:07.350Z,,,,2,0,-0.0102871556606504,,0.04,false,lh,2290.6810000477126,response,-0.8867328775712738,1.15,-1.027488652198804,1.0063426986460375,1.0662495605884736,-1.15,low,high,,ISIC_1805163.JPG,,ISIC_0055759.JPG,28,26,false,0.2500000000000001,ll,keypress(f),0,true,639244.3999999762,639244.2000000477,636936.784,637156,636953.519,639040.946,1,40,11,
sequence,flow.Sequence,8_10,2023-11-20T16:44:07.351Z,,,,,,,,,,,2290.6810000477126,completion,,,,,,,low,high,,,,,,,false,,,,,true,639244.3999999762,639244.2000000477,636936.784,637156,636953.519,639040.946,1,40,,
trial,html.Screen,8_11_0,2023-11-20T16:44:13.071Z,,,,2,-0.0088741920055285,-0.0058246074740588,,0.04,true,hh,5923.35399995232,response,1.033832433609739,1.15,-1.027488652198804,1.139863018685685,1.1162495605884737,-1.15,high,high,,ISIC_4136663.JPG,,ISIC_0008510.JPG,28,30,false,0.14,hh,keypress(i),0,true,644964.5,644964.2999999523,639024.183,639244.5,639040.946,644752.004,1,40,12,
sequence,flow.Sequence,8_11,2023-11-20T16:44:13.071Z,,,,,,,,,,,5923.35399995232,completion,,,,,,,high,high,,,,,,,false,,,,,true,644964.7000000477,644964.2999999523,639024.183,639244.5,639040.946,644752.004,1,40,,
trial,html.Screen,8_12_0,2023-11-20T16:44:17.374Z,,,,2,-0.0388181790775959,0.0049623405709465,,0.04,false,hl,4516.096000023885,response,0.7518277461369444,1.036847726147712,-1.027488652198804,-1.3860759020802074,1.1162495605884737,-1.15,high,low,,ISIC_0061880.JPG,,ISIC_7967397.JPG,28,26,false,0.3500000000000002,lh,keypress(e),0,true,649268.2999999523,649268.1000000238,644735.462,644964.7999999523,644752.004,649060.383,1,40,13,
sequence,flow.Sequence,8_12,2023-11-20T16:44:17.374Z,,,,,,,,,,,4516.096000023885,completion,,,,,,,high,low,,,,,,,false,,,,,true,649268.3999999762,649268.1000000238,644735.462,644964.7999999523,644752.004,649060.383,1,40,,
trial,html.Screen,8_13_0,2023-11-20T16:44:21.414Z,,,,2,-0.0088741920055285,-0.0058246074740588,,0.04,true,lh,4247.616999999969,response,-1.2646773654288392,1.086847726147712,-1.027488652198804,0.952963803634235,1.1162495605884737,-1.15,low,high,,ISIC_4136663.JPG,,ISIC_1996356.JPG,28,26,false,0.28000000000000014,lh,keypress(e),0,true,653308.1000000238,653308,649043.715,649268.3999999762,649060.383,653101.574,1,40,14,
sequence,flow.Sequence,8_13,2023-11-20T16:44:21.414Z,,,,,,,,,,,4247.616999999969,completion,,,,,,,low,high,,,,,,,false,,,,,true,653308.2999999523,653308,649043.715,649268.3999999762,649060.383,653101.574,1,40,,
trial,html.Screen,8_14_0,2023-11-20T16:44:26.343Z,,,,2,-0.0065172941585523,0.0118857043117315,,0.04,true,hl,5134.5260000238195,response,1.058275612142778,1.086847726147712,-0.977488652198804,-0.7824898568540655,0.9964134111599601,-1.15,high,low,,ISIC_6119202.JPG,,ISIC_4906385.JPG,28,25,false,0.3700000000000002,hl,keypress(j),0,true,658236.2000000477,658236.1000000238,653084.826,653308.2999999523,653101.574,658027.895,1,40,15,
sequence,flow.Sequence,8_14,2023-11-20T16:44:26.343Z,,,,,,,,,,,5134.5260000238195,completion,,,,,,,high,low,,,,,,,false,,,,,true,658236.3999999762,658236.1000000238,653084.826,653308.2999999523,653101.574,658027.895,1,40,,
trial,html.Screen,8_15_0,2023-11-20T16:44:33.487Z,,,,2,0.0308384937406319,-0.0038396364323947,,0.04,false,lh,7352.5049999761395,response,-1.0685314915436992,1.086847726147712,-0.977488652198804,0.8203833713472237,0.9964134111599601,-1.15,low,high,,ISIC_0029825.JPG,,ISIC_0029374.JPG,28,25,false,0.22000000000000008,hl,keypress(j),0,true,665380.6000000238,665380.3999999762,658011.293,658236.3999999762,658027.895,665175.08,1,40,16,
sequence,flow.Sequence,8_15,2023-11-20T16:44:33.488Z,,,,,,,,,,,7352.5049999761395,completion,,,,,,,low,high,,,,,,,false,,,,,true,665380.8999999762,665380.3999999762,658011.293,658236.3999999762,658027.895,665175.08,1,40,,
trial,html.Screen,8_16_0,2023-11-20T16:44:35.744Z,,,,2,-0.0088741920055285,-0.0058246074740588,,0.04,true,ll,2461.6200000477256,response,-0.9836672814341636,1.086847726147712,-1.027488652198804,-1.0629122718286683,1.0464134111599601,-1.15,low,low,,ISIC_4136663.JPG,,ISIC_0062161.JPG,28,39,false,0.1,ll,keypress(f),0,true,667636.8999999762,667636.7000000477,665158.46,665381,665175.08,667429.435,1,40,17,
sequence,flow.Sequence,8_16,2023-11-20T16:44:35.744Z,,,,,,,,,,,2461.6200000477256,completion,,,,,,,low,low,,,,,,,false,,,,,true,667637.2000000477,667636.7000000477,665158.46,665380.8999999762,665175.08,667429.435,1,40,,
trial,html.Screen,8_17_0,2023-11-20T16:44:39.375Z,,,,2,0.0257631352671967,0.0202837002774028,,0.04,false,hl,3838.9649999761023,response,0.989300717252516,1.086847726147712,-1.027488652198804,-0.7908280206937478,1.0464134111599601,-0.9732897766314159,high,low,,ISIC_0032797.JPG,,ISIC_6416533.JPG,28,28,false,0.28000000000000014,hh,keypress(i),0,true,671268.6000000238,671268.3999999762,667412.71,667637.5,667429.435,671053.166,1,40,18,
sequence,flow.Sequence,8_17,2023-11-20T16:44:39.376Z,,,,,,,,,,,3838.9649999761023,completion,,,,,,,high,low,,,,,,,false,,,,,true,671268.8999999762,671268.3999999762,667412.71,667637.3999999762,667429.435,671053.166,1,40,,
trial,html.Screen,8_18_0,2023-11-20T16:44:44.663Z,,,,2,-0.0074667911845194,0.018500200317654,,0.04,false,hh,5502.9340000238735,response,1.0257168197307909,1.036847726147712,-1.027488652198804,1.0403166496930305,1.0464134111599601,-1.023289776631416,high,high,,ISIC_0058723.JPG,,ISIC_1690909.JPG,28,25,false,0.1,ll,keypress(f),0,true,676556.2000000477,676556.1000000238,671036.619,671268.8999999762,671053.166,676346.894,1,40,19,
sequence,flow.Sequence,8_18,2023-11-20T16:44:44.663Z,,,,,,,,,,,5502.9340000238735,completion,,,,,,,high,high,,,,,,,false,,,,,true,676556.2999999523,676556.1000000238,671036.619,671268.8999999762,671053.166,676346.894,1,40,,
trial,html.Screen,8_19_0,2023-11-20T16:44:47.087Z,,,,2,0.0286056110007553,0.036125199756515,,0.04,true,ll,2633.2060000238707,response,-0.9688707770680516,1.086847726147712,-1.027488652198804,-0.9499175879831224,1.0964134111599602,-1.023289776631416,low,low,,ISIC_6535558.JPG,,ISIC_0024962.JPG,28,41,false,0.1,ll,keypress(f),0,true,678980.2999999523,678980.1000000238,676330.157,676556.3999999762,676346.894,678768.146,1,40,20,
sequence,flow.Sequence,8_19,2023-11-20T16:44:47.087Z,,,,,,,,,,,2633.2060000238707,completion,,,,,,,low,low,,,,,,,false,,,,,true,678980.5,678980.1000000238,676330.157,676556.2999999523,676346.894,678768.146,1,40,,
trial,html.Screen,8_20_0,2023-11-20T16:44:49.528Z,,,,2,0.0044063257337227,0.0172548282859886,,0.04,false,lh,2652.454000023892,response,-1.0788024398087033,1.086847726147712,-0.9093941825255869,0.9911875460374616,1.0964134111599602,-1.023289776631416,low,high,,ISIC_7413786.JPG,,ISIC_5951430.JPG,28,26,false,0.2400000000000001,ll,keypress(f),0,true,681420.7999999523,681420.6000000238,678751.639,678980.6000000238,678768.146,681206.195,1,40,21,
sequence,flow.Sequence,8_20,2023-11-20T16:44:49.528Z,,,,,,,,,,,2652.454000023892,completion,,,,,,,low,high,,,,,,,false,,,,,true,681421.1000000238,681420.6000000238,678751.639,678980.5,678768.146,681206.195,1,40,,
trial,html.Screen,8_21_0,2023-11-20T16:44:52.719Z,,,,2,-0.0109416414475118,-0.005246498750811,,0.04,false,lh,3406.305000000051,response,-0.8307508446051526,1.086847726147712,-0.9093941825255869,1.1707575338936729,1.1464134111599602,-1.023289776631416,low,high,,ISIC_0064279.JPG,,ISIC_0028606.JPG,28,26,false,0.2500000000000001,hh,keypress(i),0,true,684612.6000000238,684612.5,681189.698,681421.2999999523,681206.195,684395.773,1,40,22,
sequence,flow.Sequence,8_21,2023-11-20T16:44:52.720Z,,,,,,,,,,,3406.305000000051,completion,,,,,,,low,high,,,,,,,false,,,,,true,684612.7999999523,684612.5,681189.698,681421.2999999523,681206.195,684395.773,1,40,,
trial,html.Screen,8_22_0,2023-11-20T16:44:56.919Z,,,,2,0.0283578106329894,-0.0088840758711548,,0.04,true,hl,4416.427000047639,response,1.2054195059663604,1.086847726147712,-0.959394182525587,-0.7760611240296147,1.1464134111599602,-1.023289776631416,high,low,,ISIC_0060707.JPG,,ISIC_8712559.JPG,28,28,false,0.30000000000000016,hl,keypress(j),0,true,688812.2999999523,688812.2000000477,684379.092,684612.8999999762,684395.773,688603.975,1,40,23,
sequence,flow.Sequence,8_22,2023-11-20T16:44:56.919Z,,,,,,,,,,,4416.427000047639,completion,,,,,,,high,low,,,,,,,false,,,,,true,688812.3999999762,688812.2000000477,684379.092,684612.8999999762,684395.773,688603.975,1,40,,
trial,html.Screen,8_23_0,2023-11-20T16:44:58.792Z,,,,2,0,-0.0102871556606504,,0.04,true,ll,2080.9249999761814,response,-1.048482877784125,1.086847726147712,-0.959394182525587,-1.0716857765902368,1.1464134111599602,-0.9732897766314159,low,low,,ISIC_1805163.JPG,,ISIC_0063961.JPG,28,39,false,0.1,ll,keypress(f),0,true,690685.2000000477,690684.8999999762,688587.361,688812.3999999762,688603.975,690474.281,1,40,24,
sequence,flow.Sequence,8_23,2023-11-20T16:44:58.793Z,,,,,,,,,,,2080.9249999761814,completion,,,,,,,low,low,,,,,,,false,,,,,true,690685.6000000238,690684.8999999762,688587.361,688812.3999999762,688603.975,690474.281,1,40,,
trial,html.Screen,8_24_0,2023-11-20T16:45:05.047Z,,,,2,-0.0241900387072296,0.0339955304424736,,0.04,false,ll,6465.419000047725,response,-0.871661188387271,1.086847726147712,-0.959394182525587,-0.9067170027344016,1.1464134111599602,-0.9732897766314159,low,low,,ISIC_0010789.JPG,,ISIC_0026586.JPG,28,39,false,0.1,hh,keypress(i),0,true,696939.7999999523,696939.7000000477,690457.568,690685.8999999762,690474.281,696736.439,1,40,25,
sequence,flow.Sequence,8_24,2023-11-20T16:45:05.047Z,,,,,,,,,,,6465.419000047725,completion,,,,,,,low,low,,,,,,,false,,,,,true,696939.8999999762,696939.7000000477,690457.568,690685.7999999523,690474.281,696736.439,1,40,,
trial,html.Screen,8_25_0,2023-11-20T16:45:08.447Z,,,,2,0.0118382036798625,0.0300588245877227,,0.04,true,ll,3603.8609999523032,response,-0.9415126659682582,1.086847726147712,-1.009394182525587,-1.0413549203180965,1.1464134111599602,-1.023289776631416,low,low,,ISIC_4748605.JPG,,ISIC_4398011.JPG,28,40,false,0.1,ll,keypress(f),0,true,700340.5,700340.2999999523,696719.677,696940,696736.439,700126.352,1,40,26,
sequence,flow.Sequence,8_25,2023-11-20T16:45:08.447Z,,,,,,,,,,,3603.8609999523032,completion,,,,,,,low,low,,,,,,,false,,,,,true,700340.6000000238,700340.2999999523,696719.677,696940,696736.439,700126.352,1,40,,
trial,html.Screen,8_26_0,2023-11-20T16:45:11.439Z,,,,2,-0.0074667911845194,0.018500200317654,,0.04,false,hh,3205.8480000477284,response,1.0777929856705222,1.086847726147712,-1.009394182525587,1.0139833925057518,1.1464134111599602,-1.023289776631416,high,high,,ISIC_0058723.JPG,,ISIC_6171084.JPG,28,28,false,0.14,hl,keypress(j),0,true,703332.3999999762,703332.2000000477,700109.803,700340.7000000477,700126.352,703132.223,1,40,27,
sequence,flow.Sequence,8_26,2023-11-20T16:45:11.439Z,,,,,,,,,,,3205.8480000477284,completion,,,,,,,high,high,,,,,,,false,,,,,true,703332.6000000238,703332.2000000477,700109.803,700340.7000000477,700126.352,703132.223,1,40,,
trial,html.Screen,8_27_0,2023-11-20T16:45:13.919Z,,,,2,-0.0074667911845194,0.018500200317654,,0.04,false,lh,2679.8770000238437,response,-0.7856143618373893,1.036847726147712,-1.009394182525587,1.0273608829432213,1.1964134111599602,-1.023289776631416,low,high,,ISIC_0058723.JPG,,ISIC_9303849.JPG,28,25,false,0.3200000000000002,ll,keypress(f),0,true,705812.2000000477,705812.1000000238,703098.904,703332.7000000477,703132.223,705603.677,1,40,28,
sequence,flow.Sequence,8_27,2023-11-20T16:45:13.919Z,,,,,,,,,,,2679.8770000238437,completion,,,,,,,low,high,,,,,,,false,,,,,true,705812.3999999762,705812.1000000238,703098.904,703332.7000000477,703132.223,705603.677,1,40,,
trial,html.Screen,8_28_0,2023-11-20T16:45:15.823Z,,,,2,0.0076984477620101,0.0069458408496562,,0.04,false,hl,2112.0230000476586,response,0.8472024037189965,1.036847726147712,-0.8634846410777428,-0.986370061404882,1.1964134111599602,-1.023289776631416,high,low,,ISIC_0000434.JPG,,ISIC_0054355.JPG,28,25,false,0.28000000000000014,ll,keypress(f),0,true,707715.7000000477,707715.7000000477,705587.186,705812.3999999762,705603.677,707507.375,1,40,29,
sequence,flow.Sequence,8_28,2023-11-20T16:45:15.823Z,,,,,,,,,,,2112.0230000476586,completion,,,,,,,high,low,,,,,,,false,,,,,true,707715.8999999762,707715.7000000477,705587.186,705812.3999999762,705603.677,707507.375,1,40,,
trial,html.Screen,8_29_0,2023-11-20T16:45:20.112Z,,,,2,0.0220026381002083,-0.0170756452911772,,0.04,true,hl,4497.125,response,1.0369885917487718,1.086847726147712,-0.8634846410777428,-0.8486937878412699,1.1964134111599602,-0.9638624908614892,high,low,,ISIC_5347806.JPG,,ISIC_6917681.JPG,28,26,false,0.27000000000000013,hl,keypress(j),0,true,712004.7000000477,712004.5,707490.929,707716,707507.375,711799.071,1,40,30,
sequence,flow.Sequence,8_29,2023-11-20T16:45:20.112Z,,,,,,,,,,,4497.125,completion,,,,,,,high,low,,,,,,,false,,,,,true,712005,712004.5,707490.929,707715.8999999762,707507.375,711799.071,1,40,,
trial,html.Screen,8_30_0,2023-11-20T16:45:23.159Z,,,,2,0.0258224118104549,-0.0029364553353019,,0.04,false,hl,3253.22899995232,response,0.8954803463300026,1.086847726147712,-0.8634846410777428,-0.7071819047913821,1.1964134111599602,-0.9638624908614892,high,low,,ISIC_8325226.JPG,,ISIC_0033071.JPG,28,26,false,0.27000000000000013,ll,keypress(f),0,true,715052.3999999762,715052.2999999523,711782.462,712005.2000000477,711799.071,714838.311,1,40,31,
sequence,flow.Sequence,8_30,2023-11-20T16:45:23.159Z,,,,,,,,,,,3253.22899995232,completion,,,,,,,high,low,,,,,,,false,,,,,true,715052.6000000238,715052.2999999523,711782.462,712005.2000000477,711799.071,714838.311,1,40,,
trial,html.Screen,8_31_0,2023-11-20T16:45:31.616Z,,,,2,-0.001445457736793,-0.0165307427449982,,0.04,true,hh,8669.98899995233,response,1.1989130276493527,1.1368477261477121,-0.8634846410777428,1.2666195460149832,1.1964134111599602,-0.727937846316326,high,high,,ISIC_0027350.JPG,,ISIC_0031705.JPG,28,27,false,0.14,hh,keypress(i),0,true,723508.5,723508.2999999523,714821.822,715052.7000000477,714838.311,723304.768,1,40,32,
sequence,flow.Sequence,8_31,2023-11-20T16:45:31.616Z,,,,,,,,,,,8669.98899995233,completion,,,,,,,high,high,,,,,,,false,,,,,true,723508.7999999523,723508.2999999523,714821.822,715052.6000000238,714838.311,723304.768,1,40,,
trial,html.Screen,8_32_0,2023-11-20T16:45:36.409Z,,,,2,0.0258224118104549,-0.0029364553353019,,0.04,true,ll,4996.131999976118,response,-0.7951271207785265,1.1368477261477121,-0.8634846410777428,-0.7447019313943737,1.1964134111599602,-0.727937846316326,low,low,,ISIC_8325226.JPG,,ISIC_8325260.JPG,28,50,false,0.1,ll,keypress(f),0,true,728301.1000000238,728300.8999999762,723288.203,723508.8999999762,723304.768,728097.51,1,40,33,
sequence,flow.Sequence,8_32,2023-11-20T16:45:36.409Z,,,,,,,,,,,4996.131999976118,completion,,,,,,,low,low,,,,,,,false,,,,,true,728301.6000000238,728300.8999999762,723288.203,723508.8999999762,723304.768,728097.51,1,40,,
trial,html.Screen,8_33_0,2023-11-20T16:45:39.056Z,,,,2,0.0009714874637896,-0.0174815595031679,,0.04,true,hh,2850.6900000476744,response,1.2600330864275875,1.1368477261477121,-0.8634846410777428,1.0958628838888655,1.1964134111599602,-0.727937846316326,high,high,,ISIC_9848743.JPG,,ISIC_0026996.JPG,28,27,false,0.14,hh,keypress(i),0,true,730948.2999999523,730948.2000000477,728080.85,728301.7999999523,728097.51,730735.87,1,40,34,
sequence,flow.Sequence,8_33,2023-11-20T16:45:39.056Z,,,,,,,,,,,2850.6900000476744,completion,,,,,,,high,high,,,,,,,false,,,,,true,730948.5,730948.2000000477,728080.85,728301.7999999523,728097.51,730735.87,1,40,,
trial,html.Screen,8_34_0,2023-11-20T16:45:40.904Z,,,,2,0.0118382036798625,0.0300588245877227,,0.04,true,hh,2060.3300000476884,response,1.1989130276493527,1.086847726147712,-0.8634846410777428,1.2666195460149832,1.1464134111599602,-0.727937846316326,high,high,,ISIC_4748605.JPG,,ISIC_0031705.JPG,28,28,false,0.14,hh,keypress(i),0,true,732796.3999999762,732796.2000000477,730719.276,730948.6000000238,730735.87,732589.52,1,40,35,
sequence,flow.Sequence,8_34,2023-11-20T16:45:40.904Z,,,,,,,,,,,2060.3300000476884,completion,,,,,,,high,high,,,,,,,false,,,,,true,732796.6000000238,732796.2000000477,730719.276,730948.6000000238,730735.87,732589.52,1,40,,
trial,html.Screen,8_35_0,2023-11-20T16:45:47.512Z,,,,2,-0.0374659946425444,-0.0086043094957617,,0.04,false,hl,6814.580000023823,response,0.9653573371180936,1.086847726147712,-0.8634846410777428,-0.854766800381037,1.1464134111599602,-0.727937846316326,high,low,,ISIC_0033051.JPG,,ISIC_9640145.JPG,28,26,false,0.18000000000000005,ll,keypress(f),0,true,739404.2000000477,739404.1000000238,732572.82,732796.7000000477,732589.52,739219.318,1,40,36,
sequence,flow.Sequence,8_35,2023-11-20T16:45:47.512Z,,,,,,,,,,,6814.580000023823,completion,,,,,,,high,low,,,,,,,false,,,,,true,739404.3999999762,739404.1000000238,732572.82,732796.7000000477,732589.52,739219.318,1,40,,
trial,html.Screen,8_36_0,2023-11-20T16:45:52.241Z,,,,2,-0.0374659946425444,-0.0086043094957617,,0.04,false,lh,4913.782000023872,response,-0.9544693251394116,1.1368477261477121,-0.8634846410777428,1.0727539917203766,1.1464134111599602,-0.6779378463163259,low,high,,ISIC_0033051.JPG,,ISIC_0055147.JPG,28,25,false,0.22000000000000008,ll,keypress(f),0,true,744133.5,744133.1000000238,739202.365,739404.5,739219.318,743928.184,1,40,37,
sequence,flow.Sequence,8_36,2023-11-20T16:45:52.241Z,,,,,,,,,,,4913.782000023872,completion,,,,,,,low,high,,,,,,,false,,,,,true,744133.8999999762,744133.1000000238,739202.365,739404.5,739219.318,743928.184,1,40,,
trial,html.Screen,8_37_0,2023-11-20T16:45:55.144Z,,,,2,0.0257631352671967,0.0202837002774028,,0.04,false,lh,3108.0160000476753,response,-0.8500530224490773,1.1368477261477121,-0.8134846410777428,1.0893360711742854,1.1964134111599602,-0.6779378463163259,low,high,,ISIC_0032797.JPG,,ISIC_2998367.JPG,28,26,false,0.2400000000000001,ll,keypress(f),0,true,747036.2999999523,747036.2000000477,743911.582,744134,743928.184,746834.082,1,40,38,
sequence,flow.Sequence,8_37,2023-11-20T16:45:55.144Z,,,,,,,,,,,3108.0160000476753,completion,,,,,,,low,high,,,,,,,false,,,,,true,747036.5,747036.2000000477,743911.582,744133.8999999762,743928.184,746834.082,1,40,,
trial,html.Screen,8_38_0,2023-11-20T16:45:57.032Z,,,,2,0.0258224118104549,-0.0029364553353019,,0.04,false,hl,2090.317999976105,response,0.9472092168153812,1.1368477261477121,-0.8134846410777428,-0.5623187922463141,1.1964134111599602,-0.6779378463163259,high,low,,ISIC_8325226.JPG,,ISIC_0010103.JPG,28,26,false,0.19000000000000006,ll,keypress(f),0,true,748924.5,748924.3999999762,746817.207,747036.5,746834.082,748720.882,1,40,39,
sequence,flow.Sequence,8_38,2023-11-20T16:45:57.032Z,,,,,,,,,,,2090.317999976105,completion,,,,,,,high,low,,,,,,,false,,,,,true,748924.7999999523,748924.3999999762,746817.207,747036.5,746834.082,748720.882,1,40,,
trial,html.Screen,8_39_0,2023-11-20T16:45:59.736Z,,,,2,0.0286056110007553,0.036125199756515,,0.04,true,hh,2907.517999976175,response,1.160746324899676,1.1868477261477122,-0.8134846410777428,1.1927876559115576,1.1964134111599602,-0.6779378463163259,high,high,,ISIC_6535558.JPG,,ISIC_8651053.JPG,28,26,false,0.15000000000000002,hh,keypress(i),0,true,751628.6000000238,751628.3999999762,748704.28,748924.8999999762,748720.882,751426.336,1,40,40,
sequence,flow.Sequence,8_39,2023-11-20T16:45:59.736Z,,,,,,,,,,,2907.517999976175,completion,,,,,,,high,high,,,,,,,false,,,,,true,751628.7000000477,751628.3999999762,748704.28,748924.8999999762,748720.882,751426.336,1,40,,
stair_loop,flow.Loop,8,2023-11-20T16:45:59.736Z,,,,,,,,,,,164020.72099997615,completion,,,,,,,,,,,,,,,false,,,,,true,751628.7999999523,751628.3999999762,587590.886,587796.1000000238,587607.679,751426.336,1,40,,
exp_instructions,html.Screen,9,2023-11-20T16:46:23.104Z,,,,,,,,,,,23569.463999952306,response,,,,,,,,,,,,,,,,,continue,keypress(Space),,,774996.3999999762,774995.7999999523,751409.526,751628.8999999762,751426.336,774788.226,,,,
trial,html.Screen,10_0_0,2023-11-20T16:46:28.631Z,,,,1,0.0009714874637896,-0.0174815595031679,,0.04,true,ll,5734.073999952292,response,-0.9688707770680516,1.1018477261477124,-0.8968484576568809,-0.9499175879831224,1.1689134111599604,-0.8694386794126328,low,low,,ISIC_9848743.JPG,9,ISIC_0024962.JPG,28,50,false,0.1,ll,keypress(f),0,false,780522.2999999523,780522.2999999523,774771.471,774996.6000000238,774788.226,780315.597,5,600,1,
break,html.Screen,10_0_1,2023-11-20T16:46:28.631Z,,,,,,,,,,,NaN,,,,,,,,low,low,,,,,,,false,,,,,false,780522.7000000477,780522.7000000477,,780522.3999999762,,780315.597,5,600,,
break_continue,html.Screen,10_0_2,2023-11-20T16:46:28.631Z,,,,,,,,,,,NaN,,,,,,,,low,low,,,,,,,false,,,,,false,780523,780522.8999999762,,780522.7999999523,,780315.597,5,600,,
sequence,flow.Sequence,10_0,2023-11-20T16:46:28.631Z,,,,,,,,,,,5734.673999976134,completion,,,,,,,low,low,,,,,,,false,,,,,false,780523.1000000238,780522.8999999762,774771.471,774996.6000000238,774788.226,780315.597,5,600,,
trial,html.Screen,10_1_0,2023-11-20T16:46:31.984Z,,,,1,0.0257631352671967,0.0202837002774028,,0.04,false,lh,3560.3029999762075,response,-0.6616334713363664,1.1018477261477124,-0.8968484576568809,1.2806277136291266,1.1689134111599604,-0.8694386794126328,low,high,,ISIC_0032797.JPG,9,ISIC_7236842.JPG,28,27,false,0.2500000000000001,ll,keypress(f),0,false,783876,783875.8999999762,780298.928,780523.1000000238,780315.597,783672.299,5,600,2,
break,html.Screen,10_1_1,2023-11-20T16:46:31.985Z,,,,,,,,,,,NaN,,,,,,,,low,high,,,,,,,false,,,,,false,783876.5,783876.2999999523,,783876.2000000477,,783672.299,5,600,,
break_continue,html.Screen,10_1_2,2023-11-20T16:46:31.985Z,,,,,,,,,,,NaN,,,,,,,,low,high,,,,,,,false,,,,,false,783876.7999999523,783876.7000000477,,783876.6000000238,,783672.299,5,600,,
sequence,flow.Sequence,10_1,2023-11-20T16:46:31.985Z,,,,,,,,,,,3561.103000047733,completion,,,,,,,low,high,,,,,,,false,,,,,false,783876.8999999762,783876.7000000477,780298.928,780523.1000000238,780315.597,783672.299,5,600,,
trial,html.Screen,10_2_0,2023-11-20T16:46:37.209Z,,,,1,-0.0199950873045219,-0.0172506388509166,,0.04,false,hh,5428.801000023843,response,1.077278111180185,1.1018477261477124,-0.8968484576568809,1.1530533996184025,1.1689134111599604,-0.8694386794126328,high,high,,ISIC_0029906.JPG,8,ISIC_9525136.JPG,28,25,false,0.14,hl,keypress(j),0,false,789101.2000000477,789101.1000000238,783655.434,783877,783672.299,788899.022,5,600,3,
break,html.Screen,10_2_1,2023-11-20T16:46:37.210Z,,,,,,,,,,,NaN,,,,,,,,high,high,,,,,,,false,,,,,false,789102.1000000238,789101.7999999523,,789101.5,,788899.022,5,600,,
break_continue,html.Screen,10_2_2,2023-11-20T16:46:37.211Z,,,,,,,,,,,NaN,,,,,,,,high,high,,,,,,,false,,,,,false,789102.7000000477,789102.2999999523,,789102.2000000477,,788899.022,5,600,,
sequence,flow.Sequence,10_2,2023-11-20T16:46:37.211Z,,,,,,,,,,,5430.000999952317,completion,,,,,,,high,high,,,,,,,false,,,,,false,789102.8999999762,789102.2999999523,783655.434,783876.8999999762,783672.299,788899.022,5,600,,
trial,html.Screen,10_3_0,2023-11-20T16:46:39.585Z,,,,1,-0.0388334549081915,0.0303399972963369,,0.04,true,ll,2577.277999952319,response,-0.9688707770680516,1.1018477261477124,-0.8968484576568809,-0.9499175879831224,1.1689134111599604,-0.8694386794126328,low,low,,ISIC_4961708.JPG,10,ISIC_0024962.JPG,28,50,false,0.1,ll,keypress(f),0,false,791476.5,791476.2999999523,788882.493,789103.1000000238,788899.022,791270.285,5,600,4,
break,html.Screen,10_3_1,2023-11-20T16:46:39.585Z,,,,,,,,,,,NaN,,,,,,,,low,low,,,,,,,false,,,,,false,791477.2000000477,791477,,791476.7000000477,,791270.285,5,600,,
break_continue,html.Screen,10_3_2,2023-11-20T16:46:39.586Z,,,,,,,,,,,NaN,,,,,,,,low,low,,,,,,,false,,,,,false,791477.6000000238,791477.3999999762,,791477.2999999523,,791270.285,5,600,,
sequence,flow.Sequence,10_3,2023-11-20T16:46:39.586Z,,,,,,,,,,,2578.377999976161,completion,,,,,,,low,low,,,,,,,false,,,,,false,791477.7000000477,791477.3999999762,788882.493,789103.1000000238,788899.022,791270.285,5,600,,
trial,html.Screen,10_4_0,2023-11-20T16:46:48.513Z,,,,1,-0.0065172941585523,0.0118857043117315,,0.04,false,lh,9134.514999952284,response,-1.0788024398087033,1.1018477261477124,-0.8968484576568809,0.9911875460374616,1.1689134111599604,-0.8694386794126328,low,high,,ISIC_6119202.JPG,10,ISIC_5951430.JPG,28,27,false,0.2500000000000001,ll,keypress(f),0,false,800405,800404.7999999523,791253.667,791477.8999999762,791270.285,800204.333,5,600,5,
break,html.Screen,10_4_1,2023-11-20T16:46:48.514Z,,,,,,,,,,,NaN,,,,,,,,low,high,,,,,,,false,,,,,false,800405.6000000238,800405.5,,800405.2000000477,,800204.333,5,600,,
break_continue,html.Screen,10_4_2,2023-11-20T16:46:48.514Z,,,,,,,,,,,NaN,,,,,,,,low,high,,,,,,,false,,,,,false,800406.1000000238,800405.8999999762,,800405.7000000477,,800204.333,5,600,,
sequence,flow.Sequence,10_4,2023-11-20T16:46:48.514Z,,,,,,,,,,,9135.614999976126,completion,,,,,,,low,high,,,,,,,false,,,,,false,800406.2000000477,800405.8999999762,791253.667,791477.7999999523,791270.285,800204.333,5,600,,
trial,html.Screen,10_5_0,2023-11-20T16:46:53.138Z,,,,1,0.0286056110007553,0.036125199756515,,0.04,true,hl,4824.667000000016,response,0.8830264383952469,1.1018477261477124,-0.8968484576568809,-0.8635562538060516,1.1689134111599604,-0.8694386794126328,high,low,,ISIC_6535558.JPG,10,ISIC_0032258.JPG,28,26,false,0.2300000000000001,hl,keypress(j),0,false,805029.2999999523,805029,800170.998,800406.2999999523,800204.333,804813.346,5,600,6,
break,html.Screen,10_5_1,2023-11-20T16:46:53.139Z,,,,,,,,,,,NaN,,,,,,,,high,low,,,,,,,false,,,,,false,805030.3999999762,805030.2000000477,,805029.7000000477,,804813.346,5,600,,
break_continue,html.Screen,10_5_2,2023-11-20T16:46:53.139Z,,,,,,,,,,,NaN,,,,,,,,high,low,,,,,,,false,,,,,false,805031.2000000477,805030.8999999762,,805030.6000000238,,804813.346,5,600,,
sequence,flow.Sequence,10_5,2023-11-20T16:46:53.140Z,,,,,,,,,,,4826.566999976174,completion,,,,,,,high,low,,,,,,,false,,,,,false,805031.5,805030.8999999762,800170.998,800406.2999999523,800204.333,804813.346,5,600,,
trial,html.Screen,10_6_0,2023-11-20T16:46:56.568Z,,,,1,-0.039520186367207,-0.0377961575607372,,0.04,false,hh,3646.7540000238223,response,1.2219550761700546,1.1018477261477124,-0.8968484576568809,1.2809901875733454,1.1689134111599604,-0.8694386794126328,high,high,,ISIC_6356149.JPG,10,ISIC_6463417.JPG,28,25,false,0.14,ll,keypress(f),0,false,808460.2999999523,808460.1000000238,804796.713,805031.6000000238,804813.346,808253.317,5,600,7,
break,html.Screen,10_6_1,2023-11-20T16:46:56.569Z,,,,,,,,,,,NaN,,,,,,,,high,high,,,,,,,false,,,,,false,808460.7000000477,808460.6000000238,,808460.5,,808253.317,5,600,,
break_continue,html.Screen,10_6_2,2023-11-20T16:46:56.569Z,,,,,,,,,,,NaN,,,,,,,,high,high,,,,,,,false,,,,,false,808461,808460.8999999762,,808460.7999999523,,808253.317,5,600,,
sequence,flow.Sequence,10_6,2023-11-20T16:46:56.569Z,,,,,,,,,,,3647.5539999761386,completion,,,,,,,high,high,,,,,,,false,,,,,false,808461.1000000238,808460.8999999762,804796.713,805031.6000000238,804813.346,808253.317,5,600,,
trial,html.Screen,10_7_0,2023-11-20T16:46:59.977Z,,,,1,-0.0164027439304477,0.0082910758715273,,0.04,false,lh,3614.982999952277,response,-0.6866466162921743,1.1018477261477124,-0.8968484576568809,0.9993010401520164,1.1689134111599604,-0.8694386794126328,low,high,,ISIC_7381224.JPG,9,ISIC_6155782.JPG,28,27,false,0.2500000000000001,ll,keypress(f),0,false,811868.5,811868.2999999523,808236.769,808461.2000000477,808253.317,811659.97,5,600,8,
break,html.Screen,10_7_1,2023-11-20T16:46:59.977Z,,,,,,,,,,,NaN,,,,,,,,low,high,,,,,,,false,,,,,false,811869.1000000238,811868.8999999762,,811868.7000000477,,811659.97,5,600,,
break_continue,html.Screen,10_7_2,2023-11-20T16:46:59.978Z,,,,,,,,,,,NaN,,,,,,,,low,high,,,,,,,false,,,,,false,811869.5,811869.3999999762,,811869.2000000477,,811659.97,5,600,,
sequence,flow.Sequence,10_7,2023-11-20T16:46:59.978Z,,,,,,,,,,,3616.082999976119,completion,,,,,,,low,high,,,,,,,false,,,,,false,811869.6000000238,811869.3999999762,808236.769,808461.2000000477,808253.317,811659.97,5,600,,
trial,html.Screen,10_8_0,2023-11-20T16:47:12.032Z,,,,1,0.0118382036798625,0.0300588245877227,,0.04,false,hh,12263.730000047712,response,0.9798314852960236,1.1018477261477124,-0.8968484576568809,1.167024525807191,1.1689134111599604,-0.8694386794126328,high,high,,ISIC_4748605.JPG,10,ISIC_4341261.JPG,28,25,false,0.14,hl,keypress(j),0,false,823923.7999999523,823923.7000000477,811643.39,811869.7999999523,811659.97,823716.734,5,600,9,
break,html.Screen,10_8_1,2023-11-20T16:47:12.032Z,,,,,,,,,,,NaN,,,,,,,,high,high,,,,,,,false,,,,,false,823924.2000000477,823924,,823923.8999999762,,823716.734,5,600,,
break_continue,html.Screen,10_8_2,2023-11-20T16:47:12.033Z,,,,,,,,,,,NaN,,,,,,,,high,high,,,,,,,false,,,,,false,823924.3999999762,823924.2999999523,,823924.2000000477,,823716.734,5,600,,
sequence,flow.Sequence,10_8,2023-11-20T16:47:12.033Z,,,,,,,,,,,12264.329999952344,completion,,,,,,,high,high,,,,,,,false,,,,,false,823924.5,823924.2999999523,811643.39,811869.7000000477,811659.97,823716.734,5,600,,
trial,html.Screen,10_9_0,2023-11-20T16:47:14.833Z,,,,1,0.0044063257337227,0.0172548282859886,,0.04,false,hh,3007.765999999945,response,1.2219550761700546,1.1018477261477124,-0.8968484576568809,1.2809901875733454,1.1689134111599604,-0.8694386794126328,high,high,,ISIC_7413786.JPG,9,ISIC_6463417.JPG,28,25,false,0.14,ll,keypress(f),0,false,826724.7000000477,826724.5,823700.215,823924.5,823716.734,826522.273,5,600,10,
break,html.Screen,10_9_1,2023-11-20T16:47:14.834Z,,,,,,,,,,,NaN,,,,,,,,high,high,,,,,,,false,,,,,false,826725.6000000238,826725.2999999523,,826725,,826522.273,5,600,,
break_continue,html.Screen,10_9_2,2023-11-20T16:47:14.834Z,,,,,,,,,,,NaN,,,,,,,,high,high,,,,,,,false,,,,,false,826726.2000000477,826726,,826725.7000000477,,826522.273,5,600,,
sequence,flow.Sequence,10_9,2023-11-20T16:47:14.835Z,,,,,,,,,,,3009.265999999945,completion,,,,,,,high,high,,,,,,,false,,,,,false,826726.3999999762,826726,823700.215,823924.5,823716.734,826522.273,5,600,,
trial,html.Screen,10_10_0,2023-11-20T16:47:20.081Z,,,,1,0.0044063257337227,0.0172548282859886,,0.04,false,ll,5450.427000047639,response,-0.9688707770680516,1.1018477261477124,-0.8968484576568809,-0.9499175879831224,1.1689134111599604,-0.8694386794126328,low,low,,ISIC_7413786.JPG,9,ISIC_0024962.JPG,28,50,false,0.1,hl,keypress(j),0,false,831972.8999999762,831972.7000000477,826505.644,826726.7000000477,826522.273,831765.724,5,600,11,
break,html.Screen,10_10_1,2023-11-20T16:47:20.082Z,,,,,,,,,,,NaN,,,,,,,,low,low,,,,,,,false,,,,,false,831973.7999999523,831973.6000000238,,831973.2999999523,,831765.724,5,600,,
break_continue,html.Screen,10_10_2,2023-11-20T16:47:20.083Z,,,,,,,,,,,NaN,,,,,,,,low,low,,,,,,,false,,,,,false,831974.3999999762,831974.2000000477,,831974,,831765.724,5,600,,
sequence,flow.Sequence,10_10,2023-11-20T16:47:20.083Z,,,,,,,,,,,5451.927000047639,completion,,,,,,,low,low,,,,,,,false,,,,,false,831974.7000000477,831974.2000000477,826505.644,826726.6000000238,826522.273,831765.724,5,600,,
trial,html.Screen,10_11_0,2023-11-20T16:47:26.088Z,,,,1,0.0076984477620101,0.0069458408496562,,0.04,true,hl,6213.976000047638,response,0.8926515927689261,1.1018477261477124,-0.8968484576568809,-0.7935960767768927,1.1689134111599604,-0.8694386794126328,high,low,,ISIC_0000434.JPG,9,ISIC_8901371.JPG,28,26,false,0.2300000000000001,hl,keypress(j),0,false,837979.7000000477,837979.7000000477,831749.076,831974.7999999523,831765.724,837777.411,5,600,12,
break,html.Screen,10_11_1,2023-11-20T16:47:26.088Z,,,,,,,,,,,NaN,,,,,,,,high,low,,,,,,,false,,,,,false,837980.1000000238,837980,,837979.7999999523,,837777.411,5,600,,
break_continue,html.Screen,10_11_2,2023-11-20T16:47:26.088Z,,,,,,,,,,,NaN,,,,,,,,high,low,,,,,,,false,,,,,false,837980.2999999523,837980.2000000477,,837980.2000000477,,837777.411,5,600,,
sequence,flow.Sequence,10_11,2023-11-20T16:47:26.089Z,,,,,,,,,,,6214.476000047638,completion,,,,,,,high,low,,,,,,,false,,,,,false,837980.2999999523,837980.2000000477,831749.076,831974.7999999523,831765.724,837777.411,5,600,,
trial,html.Screen,10_12_0,2023-11-20T16:47:31.097Z,,,,1,0,-0.0102871556606504,,0.04,true,ll,5210.689000023878,response,-0.900981242677363,1.1018477261477124,-0.8968484576568809,-0.8834104283484265,1.1689134111599604,-0.8694386794126328,low,low,,ISIC_1805163.JPG,10,ISIC_7236365.JPG,28,50,false,0.1,ll,keypress(f),0,false,842988.2000000477,842988.1000000238,837760.812,837980.3999999762,837777.411,842788.357,5,600,13,
break,html.Screen,10_12_1,2023-11-20T16:47:31.097Z,,,,,,,,,,,NaN,,,,,,,,low,low,,,,,,,false,,,,,false,842988.6000000238,842988.5,,842988.3999999762,,842788.357,5,600,,
break_continue,html.Screen,10_12_2,2023-11-20T16:47:31.098Z,,,,,,,,,,,NaN,,,,,,,,low,low,,,,,,,false,,,,,false,842988.7000000477,842988.7000000477,,842988.6000000238,,842788.357,5,600,,
sequence,flow.Sequence,10_12,2023-11-20T16:47:31.098Z,,,,,,,,,,,5211.28900004772,completion,,,,,,,low,low,,,,,,,false,,,,,false,842988.7999999523,842988.7000000477,837760.812,837980.3999999762,837777.411,842788.357,5,600,,
trial,html.Screen,10_13_0,2023-11-20T16:47:36.649Z,,,,1,-0.0074667911845194,0.018500200317654,,0.04,false,lh,5751.64300000004,response,-1.0153439398566937,1.1018477261477124,-0.8968484576568809,0.93001438372942,1.1689134111599604,-0.8694386794126328,low,high,,ISIC_0058723.JPG,9,ISIC_8211214.JPG,28,27,false,0.2500000000000001,hl,keypress(j),0,false,848540.1000000238,848540,842753.843,842988.8999999762,842788.357,848331.233,5,600,14,
break,html.Screen,10_13_1,2023-11-20T16:47:36.649Z,,,,,,,,,,,NaN,,,,,,,,low,high,,,,,,,false,,,,,false,848540.5,848540.3999999762,,848540.2000000477,,848331.233,5,600,,
break_continue,html.Screen,10_13_2,2023-11-20T16:47:36.650Z,,,,,,,,,,,NaN,,,,,,,,low,high,,,,,,,false,,,,,false,848540.7999999523,848540.6000000238,,848540.6000000238,,848331.233,5,600,,
sequence,flow.Sequence,10_13,2023-11-20T16:47:36.650Z,,,,,,,,,,,5752.243000023882,completion,,,,,,,low,high,,,,,,,false,,,,,false,848540.7999999523,848540.6000000238,842753.843,842988.8999999762,842788.357,848331.233,5,600,,
trial,html.Screen,10_14_0,2023-11-20T16:47:38.857Z,,,,1,0.0283578106329894,-0.0088840758711548,,0.04,false,lh,2416.7669999999925,response,-0.8544507134472948,1.1018477261477124,-0.8968484576568809,0.9244388608707323,1.1689134111599604,-0.8694386794126328,low,high,,ISIC_0060707.JPG,9,ISIC_3565564.JPG,28,27,false,0.2500000000000001,ll,keypress(f),0,false,850748.1000000238,850748,848314.677,848540.7999999523,848331.233,850535.533,5,600,15,
break,html.Screen,10_14_1,2023-11-20T16:47:38.857Z,,,,,,,,,,,NaN,,,,,,,,low,high,,,,,,,false,,,,,false,850748.5,850748.3999999762,,850748.2000000477,,850535.533,5,600,,
break_continue,html.Screen,10_14_2,2023-11-20T16:47:38.858Z,,,,,,,,,,,NaN,,,,,,,,low,high,,,,,,,false,,,,,false,850748.7000000477,850748.6000000238,,850748.5,,850535.533,5,600,,
sequence,flow.Sequence,10_14,2023-11-20T16:47:38.858Z,,,,,,,,,,,2417.3670000238344,completion,,,,,,,low,high,,,,,,,false,,,,,false,850748.7000000477,850748.6000000238,848314.677,848540.7999999523,848331.233,850535.533,5,600,,
trial,html.Screen,10_15_0,2023-11-20T16:47:44.113Z,,,,1,-0.0374659946425444,-0.0086043094957617,,0.04,false,hl,5468.66700004763,response,1.2578167348825195,1.1018477261477124,-0.8968484576568809,-0.8371819698254004,1.1689134111599604,-0.8694386794126328,high,low,,ISIC_0033051.JPG,9,ISIC_9613570.JPG,28,26,false,0.2300000000000001,lh,keypress(e),0,false,856004.3999999762,856004.2000000477,850518.816,850748.7999999523,850535.533,855795.86,5,600,16,
break,html.Screen,10_15_1,2023-11-20T16:47:44.114Z,,,,,,,,,,,NaN,,,,,,,,high,low,,,,,,,false,,,,,false,856004.7000000477,856004.7000000477,,856004.5,,855795.86,5,600,,
break_continue,html.Screen,10_15_2,2023-11-20T16:47:44.114Z,,,,,,,,,,,NaN,,,,,,,,high,low,,,,,,,false,,,,,false,856004.8999999762,856004.8999999762,,856004.7999999523,,855795.86,5,600,,
sequence,flow.Sequence,10_15,2023-11-20T16:47:44.114Z,,,,,,,,,,,5469.366999976104,completion,,,,,,,high,low,,,,,,,false,,,,,false,856005.1000000238,856004.8999999762,850518.816,850748.7999999523,850535.533,855795.86,5,600,,
trial,html.Screen,10_16_0,2023-11-20T16:47:47.786Z,,,,1,0.0076984477620101,0.0069458408496562,,0.04,false,hh,3880.640000000014,response,1.0659165756604234,1.1018477261477124,-0.8968484576568809,1.0867497316848906,1.1689134111599604,-0.8694386794126328,high,high,,ISIC_0000434.JPG,9,ISIC_5807608.JPG,28,25,false,0.14,lh,keypress(e),0,false,859676.7000000477,859676.5,855779.302,856005.1000000238,855795.86,859469.568,5,600,17,
break,html.Screen,10_16_1,2023-11-20T16:47:47.787Z,,,,,,,,,,,NaN,,,,,,,,high,high,,,,,,,false,,,,,false,859677.6000000238,859677.3999999762,,859677.1000000238,,859469.568,5,600,,
break_continue,html.Screen,10_16_2,2023-11-20T16:47:47.787Z,,,,,,,,,,,NaN,,,,,,,,high,high,,,,,,,false,,,,,false,859678.1000000238,859677.7999999523,,859677.7999999523,,859469.568,5,600,,
sequence,flow.Sequence,10_16,2023-11-20T16:47:47.787Z,,,,,,,,,,,3881.9399999523303,completion,,,,,,,high,high,,,,,,,false,,,,,false,859678.2000000477,859677.7999999523,855779.302,856005.1000000238,855795.86,859469.568,5,600,,
trial,html.Screen,10_17_0,2023-11-20T16:47:49.801Z,,,,1,-0.0164027439304477,0.0082910758715273,,0.04,false,lh,2222.43200000003,response,-0.6509219939365475,1.1018477261477124,-0.8968484576568809,0.9237108371448416,1.1689134111599604,-0.8694386794126328,low,high,,ISIC_7381224.JPG,10,ISIC_7327423.JPG,28,27,false,0.2500000000000001,ll,keypress(f),0,false,861692.2000000477,861692,859452.877,859678.2999999523,859469.568,861506.895,5,600,18,
break,html.Screen,10_17_1,2023-11-20T16:47:49.802Z,,,,,,,,,,,NaN,,,,,,,,low,high,,,,,,,false,,,,,false,861692.6000000238,861692.5,,861692.2999999523,,861506.895,5,600,,
break_continue,html.Screen,10_17_2,2023-11-20T16:47:49.802Z,,,,,,,,,,,NaN,,,,,,,,low,high,,,,,,,false,,,,,false,861692.8999999762,861692.7999999523,,861692.7000000477,,861506.895,5,600,,
sequence,flow.Sequence,10_17,2023-11-20T16:47:49.802Z,,,,,,,,,,,2223.231999952346,completion,,,,,,,low,high,,,,,,,false,,,,,false,861693,861692.7999999523,859452.877,859678.2000000477,859469.568,861506.895,5,600,,
trial,html.Screen,10_18_0,2023-11-20T16:47:54.170Z,,,,1,-0.0388181790775959,0.0049623405709465,,0.04,true,hl,4553.904999952298,response,0.8954803463300026,1.1018477261477124,-0.8968484576568809,-0.7071819047913821,1.1689134111599604,-0.8694386794126328,high,low,,ISIC_0061880.JPG,8,ISIC_0033071.JPG,28,26,false,0.2300000000000001,hl,keypress(j),0,false,866061.1000000238,866060.7999999523,861490.324,861693,861506.895,865848.683,5,600,19,
break,html.Screen,10_18_1,2023-11-20T16:47:54.171Z,,,,,,,,,,,NaN,,,,,,,,high,low,,,,,,,false,,,,,false,866062.1000000238,866061.7999999523,,866061.5,,865848.683,5,600,,
break_continue,html.Screen,10_18_2,2023-11-20T16:47:54.172Z,,,,,,,,,,,NaN,,,,,,,,high,low,,,,,,,false,,,,,false,866062.7999999523,866062.5,,866062.2000000477,,865848.683,5,600,,
sequence,flow.Sequence,10_18,2023-11-20T16:47:54.172Z,,,,,,,,,,,4555.604999999981,completion,,,,,,,high,low,,,,,,,false,,,,,false,866063,866062.5,861490.324,861693,861506.895,865848.683,5,600,,
trial,html.Screen,10_19_0,2023-11-20T16:48:02.826Z,,,,1,-0.0198696495649504,0.0387952353063878,,0.04,false,lh,8867.716999976197,response,-0.90812608370647,1.1018477261477124,-0.8968484576568809,1.2720026872926935,1.1689134111599604,-0.8694386794126328,low,high,,ISIC_6735970.JPG,9,ISIC_0450295.JPG,28,27,false,0.2500000000000001,ll,keypress(f),0,false,874716.6000000238,874716.3999999762,865832.103,866063.2000000477,865848.683,874516.035,5,600,20,
break,html.Screen,10_19_1,2023-11-20T16:48:02.826Z,,,,,,,,,,,NaN,,,,,,,,low,high,,,,,,,false,,,,,false,874717.2000000477,874717.1000000238,,874716.7999999523,,874516.035,5,600,,
break_continue,html.Screen,10_19_2,2023-11-20T16:48:02.827Z,,,,,,,,,,,NaN,,,,,,,,low,high,,,,,,,false,,,,,false,874717.7000000477,874717.6000000238,,874717.3999999762,,874516.035,5,600,,
sequence,flow.Sequence,10_19,2023-11-20T16:48:02.827Z,,,,,,,,,,,8868.917000023881,completion,,,,,,,low,high,,,,,,,false,,,,,false,874717.8999999762,874717.6000000238,865832.103,866063.1000000238,865848.683,874516.035,5,600,,
trial,html.Screen,10_20_0,2023-11-20T16:48:05.145Z,,,,1,0.0119001144851157,-0.0063430114540141,,0.04,true,ll,2519.7649999522837,response,-0.9914647862586572,1.1018477261477124,-0.8968484576568809,-0.8837963869804757,1.1689134111599604,-0.8694386794126328,low,low,,ISIC_0003822.JPG,9,ISIC_0068895.JPG,28,50,false,0.1,ll,keypress(f),0,false,877036,877035.7999999523,874482.268,874718,874516.035,876819.988,5,600,21,
break,html.Screen,10_20_1,2023-11-20T16:48:05.145Z,,,,,,,,,,,NaN,,,,,,,,low,low,,,,,,,false,,,,,false,877036.2999999523,877036.2999999523,,877036.1000000238,,876819.988,5,600,,
break_continue,html.Screen,10_20_2,2023-11-20T16:48:05.145Z,,,,,,,,,,,NaN,,,,,,,,low,low,,,,,,,false,,,,,false,877036.5,877036.3999999762,,877036.3999999762,,876819.988,5,600,,
sequence,flow.Sequence,10_20,2023-11-20T16:48:05.145Z,,,,,,,,,,,2520.3649999761255,completion,,,,,,,low,low,,,,,,,false,,,,,false,877036.6000000238,877036.3999999762,874482.268,874717.8999999762,874516.035,876819.988,5,600,,
trial,html.Screen,10_21_0,2023-11-20T16:48:08.210Z,,,,1,0.0220026381002083,-0.0170756452911772,,0.04,false,hh,3280.6120000238298,response,0.9832288967264424,1.1018477261477124,-0.8968484576568809,1.0898586098590013,1.1689134111599604,-0.8694386794126328,high,high,,ISIC_5347806.JPG,10,ISIC_2724529.JPG,28,25,false,0.14,hl,keypress(j),0,false,880100.8999999762,880100.6000000238,876803.511,877036.6000000238,876819.988,879892.872,5,600,22,
break,html.Screen,10_21_1,2023-11-20T16:48:08.211Z,,,,,,,,,,,NaN,,,,,,,,high,high,,,,,,,false,,,,,false,880101.7000000477,880101.5,,880101.1000000238,,879892.872,5,600,,
break_continue,html.Screen,10_21_2,2023-11-20T16:48:08.211Z,,,,,,,,,,,NaN,,,,,,,,high,high,,,,,,,false,,,,,false,880102.1000000238,880102,,880101.8999999762,,879892.872,5,600,,
sequence,flow.Sequence,10_21,2023-11-20T16:48:08.211Z,,,,,,,,,,,3282.011999999988,completion,,,,,,,high,high,,,,,,,false,,,,,false,880102.1000000238,880102,876803.511,877036.6000000238,876819.988,879892.872,5,600,,
trial,html.Screen,10_22_0,2023-11-20T16:48:10.769Z,,,,1,-0.0198696495649504,0.0387952353063878,,0.04,true,ll,2767.4279999523424,response,-0.900981242677363,1.1018477261477124,-0.8968484576568809,-0.8834104283484265,1.1689134111599604,-0.8694386794126328,low,low,,ISIC_6735970.JPG,9,ISIC_7236365.JPG,28,50,false,0.1,ll,keypress(f),0,false,882660.3999999762,882660.2999999523,879875.962,880102.2000000477,879892.872,882447.61,5,600,23,
break,html.Screen,10_22_1,2023-11-20T16:48:10.770Z,,,,,,,,,,,NaN,,,,,,,,low,low,,,,,,,false,,,,,false,882661,882660.7999999523,,882660.6000000238,,882447.61,5,600,,
break_continue,html.Screen,10_22_2,2023-11-20T16:48:10.770Z,,,,,,,,,,,NaN,,,,,,,,low,low,,,,,,,false,,,,,false,882661.3999999762,882661.2000000477,,882661.1000000238,,882447.61,5,600,,
sequence,flow.Sequence,10_22,2023-11-20T16:48:10.770Z,,,,,,,,,,,2768.32800004771,completion,,,,,,,low,low,,,,,,,false,,,,,false,882661.6000000238,882661.2000000477,879875.962,880102.2000000477,879892.872,882447.61,5,600,,
trial,html.Screen,10_23_0,2023-11-20T16:48:12.625Z,,,,1,-0.0109416414475118,-0.005246498750811,,0.04,false,lh,2067.990000023856,response,-0.9662688541319592,1.1018477261477124,-0.8968484576568809,0.929746784178986,1.1689134111599604,-0.8694386794126328,low,high,,ISIC_0064279.JPG,8,ISIC_0011077.JPG,28,27,false,0.2500000000000001,ll,keypress(f),0,false,884515.7000000477,884515.6000000238,882431.031,882661.7000000477,882447.61,884301.202,5,600,24,
break,html.Screen,10_23_1,2023-11-20T16:48:12.625Z,,,,,,,,,,,NaN,,,,,,,,low,high,,,,,,,false,,,,,false,884516,884516,,884515.7000000477,,884301.202,5,600,,
break_continue,html.Screen,10_23_2,2023-11-20T16:48:12.625Z,,,,,,,,,,,NaN,,,,,,,,low,high,,,,,,,false,,,,,false,884516.1000000238,884516,,884516,,884301.202,5,600,,
sequence,flow.Sequence,10_23,2023-11-20T16:48:12.625Z,,,,,,,,,,,2068.390000000014,completion,,,,,,,low,high,,,,,,,false,,,,,false,884516.2000000477,884516,882431.031,882661.6000000238,882447.61,884301.202,5,600,,
trial,html.Screen,10_24_0,2023-11-20T16:48:19.305Z,,,,1,0.0257631352671967,0.0202837002774028,,0.04,true,hl,6894.998000047635,response,1.2499674737468107,1.1018477261477124,-0.8968484576568809,-0.7169661572441197,1.1689134111599604,-0.8694386794126328,high,low,,ISIC_0032797.JPG,9,ISIC_0013617.JPG,28,26,false,0.2300000000000001,hl,keypress(j),0,false,891196.2999999523,891196.2000000477,884284.647,884516.2999999523,884301.202,890980.881,5,600,25,
break,html.Screen,10_24_1,2023-11-20T16:48:19.306Z,,,,,,,,,,,NaN,,,,,,,,high,low,,,,,,,false,,,,,false,891196.7999999523,891196.7000000477,,891196.5,,890980.881,5,600,,
break_continue,html.Screen,10_24_2,2023-11-20T16:48:19.306Z,,,,,,,,,,,NaN,,,,,,,,high,low,,,,,,,false,,,,,false,891197.2999999523,891197.1000000238,,891196.8999999762,,890980.881,5,600,,
sequence,flow.Sequence,10_24,2023-11-20T16:48:19.306Z,,,,,,,,,,,6895.898000023793,completion,,,,,,,high,low,,,,,,,false,,,,,false,891197.3999999762,891197.1000000238,884284.647,884516.2000000477,884301.202,890980.881,5,600,,
trial,html.Screen,10_25_0,2023-11-20T16:48:25.177Z,,,,1,-0.039520186367207,-0.0377961575607372,,0.04,false,hl,6087.21900002379,response,1.1898494014853933,1.1018477261477124,-0.8968484576568809,-0.7016654052924971,1.1689134111599604,-0.8694386794126328,high,low,,ISIC_6356149.JPG,10,ISIC_6324832.JPG,28,26,false,0.2300000000000001,hh,keypress(i),0,false,897068.2999999523,897068.1000000238,890964.151,891197.5,890980.881,896858.934,5,600,26,
break,html.Screen,10_25_1,2023-11-20T16:48:25.178Z,,,,,,,,,,,NaN,,,,,,,,high,low,,,,,,,false,,,,,false,897068.7999999523,897068.6000000238,,897068.3999999762,,896858.934,5,600,,
break_continue,html.Screen,10_25_2,2023-11-20T16:48:25.178Z,,,,,,,,,,,NaN,,,,,,,,high,low,,,,,,,false,,,,,false,897069.2000000477,897068.8999999762,,897068.7999999523,,896858.934,5,600,,
sequence,flow.Sequence,10_25,2023-11-20T16:48:25.178Z,,,,,,,,,,,6088.018999976106,completion,,,,,,,high,low,,,,,,,false,,,,,false,897069.2000000477,897068.8999999762,890964.151,891197.5,890980.881,896858.934,5,600,,
trial,html.Screen,10_26_0,2023-11-20T16:48:27.138Z,,,,1,0.0009714874637896,-0.0174815595031679,,0.04,true,ll,2169.2660000476753,response,-0.8161945839077875,1.1018477261477124,-0.8968484576568809,-0.8847883487572158,1.1689134111599604,-0.8694386794126328,low,low,,ISIC_9848743.JPG,9,ISIC_0058496.JPG,28,50,false,0.1,ll,keypress(f),0,false,899028.3999999762,899028.2000000477,896842.414,897069.2999999523,896858.934,898812.759,5,600,27,
break,html.Screen,10_26_1,2023-11-20T16:48:27.138Z,,,,,,,,,,,NaN,,,,,,,,low,low,,,,,,,false,,,,,false,899028.8999999762,899028.7999999523,,899028.5,,898812.759,5,600,,
break_continue,html.Screen,10_26_2,2023-11-20T16:48:27.139Z,,,,,,,,,,,NaN,,,,,,,,low,low,,,,,,,false,,,,,false,899029.2999999523,899029.1000000238,,899029,,898812.759,5,600,,
sequence,flow.Sequence,10_26,2023-11-20T16:48:27.139Z,,,,,,,,,,,2170.1660000238335,completion,,,,,,,low,low,,,,,,,false,,,,,false,899029.3999999762,899029.1000000238,896842.414,897069.2999999523,896858.934,898812.759,5,600,,
trial,html.Screen,10_27_0,2023-11-20T16:48:28.898Z,,,,1,0.0286056110007553,0.036125199756515,,0.04,true,ll,1975.2410000000382,response,-0.9657289110900686,1.1018477261477124,-0.8968484576568809,-0.9643331448263084,1.1689134111599604,-0.8694386794126328,low,low,,ISIC_6535558.JPG,9,ISIC_0063447.JPG,28,50,false,0.1,ll,keypress(f),0,false,900788.1000000238,900788,898796.129,899029.5,898812.759,900582.877,5,600,28,
break,html.Screen,10_27_1,2023-11-20T16:48:28.898Z,,,,,,,,,,,NaN,,,,,,,,low,low,,,,,,,false,,,,,false,900788.7000000477,900788.6000000238,,900788.3999999762,,900582.877,5,600,,
break_continue,html.Screen,10_27_2,2023-11-20T16:48:28.899Z,,,,,,,,,,,NaN,,,,,,,,low,low,,,,,,,false,,,,,false,900789,900788.8999999762,,900788.7000000477,,900582.877,5,600,,
sequence,flow.Sequence,10_27,2023-11-20T16:48:28.899Z,,,,,,,,,,,1976.1409999761963,completion,,,,,,,low,low,,,,,,,false,,,,,false,900789.2000000477,900788.8999999762,898796.129,899029.5,898812.759,900582.877,5,600,,
trial,html.Screen,10_28_0,2023-11-20T16:48:30.586Z,,,,1,-0.0088741920055285,-0.0058246074740588,,0.04,false,lh,1893.2230000238633,response,-0.8867328775712738,1.1018477261477124,-0.8968484576568809,1.0063426986460375,1.1689134111599604,-0.8694386794126328,low,high,,ISIC_4136663.JPG,10,ISIC_0055759.JPG,28,27,false,0.2500000000000001,ll,keypress(f),0,false,902476.2000000477,902476.1000000238,900566.186,900789.2999999523,900582.877,902269.487,5,600,29,
break,html.Screen,10_28_1,2023-11-20T16:48:30.586Z,,,,,,,,,,,NaN,,,,,,,,low,high,,,,,,,false,,,,,false,902476.7999999523,902476.7000000477,,902476.5,,902269.487,5,600,,
break_continue,html.Screen,10_28_2,2023-11-20T16:48:30.587Z,,,,,,,,,,,NaN,,,,,,,,low,high,,,,,,,false,,,,,false,902477.1000000238,902476.8999999762,,902476.8999999762,,902269.487,5,600,,
sequence,flow.Sequence,10_28,2023-11-20T16:48:30.587Z,,,,,,,,,,,1894.0229999761796,completion,,,,,,,low,high,,,,,,,false,,,,,false,902477.2999999523,902476.8999999762,900566.186,900789.2000000477,900582.877,902269.487,5,600,,
trial,html.Screen,10_29_0,2023-11-20T16:48:35.426Z,,,,1,0.0200295718112167,0.0155559071275806,,0.04,true,hl,5046.713000047719,response,1.0770264364718942,1.1018477261477124,-0.8968484576568809,-0.6713089190292955,1.1689134111599604,-0.8694386794126328,high,low,,ISIC_0061343.JPG,9,ISIC_6093728.JPG,28,26,false,0.2300000000000001,hl,keypress(j),0,false,907316.2999999523,907316.2000000477,902252.923,902477.2999999523,902269.487,907112.452,5,600,30,
break,html.Screen,10_29_1,2023-11-20T16:48:35.426Z,,,,,,,,,,,NaN,,,,,,,,high,low,,,,,,,false,,,,,false,907316.7999999523,907316.7000000477,,907316.5,,907112.452,5,600,,
break_continue,html.Screen,10_29_2,2023-11-20T16:48:35.427Z,,,,,,,,,,,NaN,,,,,,,,high,low,,,,,,,false,,,,,false,907317.1000000238,907317,,907316.8999999762,,907112.452,5,600,,
sequence,flow.Sequence,10_29,2023-11-20T16:48:35.427Z,,,,,,,,,,,5047.513000000035,completion,,,,,,,high,low,,,,,,,false,,,,,false,907317.2000000477,907317,902252.923,902477.2999999523,902269.487,907112.452,5,600,,
trial,html.Screen,10_30_0,2023-11-20T16:48:40.473Z,,,,1,-0.0109416414475118,-0.005246498750811,,0.04,false,hh,5251.248000047635,response,1.001866590114321,1.1018477261477124,-0.8968484576568809,1.080719641270871,1.1689134111599604,-0.8694386794126328,high,high,,ISIC_0064279.JPG,9,ISIC_0663941.JPG,28,25,false,0.14,lh,keypress(e),0,false,912363.7999999523,912363.7000000477,907095.714,907317.2999999523,907112.452,912155.356,5,600,31,
break,html.Screen,10_30_1,2023-11-20T16:48:40.474Z,,,,,,,,,,,NaN,,,,,,,,high,high,,,,,,,false,,,,,false,912364.2000000477,912364.1000000238,,912364,,912155.356,5,600,,
break_continue,html.Screen,10_30_2,2023-11-20T16:48:40.474Z,,,,,,,,,,,NaN,,,,,,,,high,high,,,,,,,false,,,,,false,912364.3999999762,912364.3999999762,,912364.2999999523,,912155.356,5,600,,
sequence,flow.Sequence,10_30,2023-11-20T16:48:40.474Z,,,,,,,,,,,5251.94799997611,completion,,,,,,,high,high,,,,,,,false,,,,,false,912364.6000000238,912364.3999999762,907095.714,907317.2999999523,907112.452,912155.356,5,600,,
trial,html.Screen,10_31_0,2023-11-20T16:48:45.114Z,,,,1,-0.001445457736793,-0.0165307427449982,,0.04,true,hh,4849.244000023813,response,1.1989130276493527,1.1018477261477124,-0.8968484576568809,1.2666195460149832,1.1689134111599604,-0.8694386794126328,high,high,,ISIC_0027350.JPG,10,ISIC_0031705.JPG,28,25,false,0.14,hh,keypress(i),0,false,917004.8999999762,917004.6000000238,912138.848,912364.6000000238,912155.356,916797.962,5,600,32,
break,html.Screen,10_31_1,2023-11-20T16:48:45.115Z,,,,,,,,,,,NaN,,,,,,,,high,high,,,,,,,false,,,,,false,917005.6000000238,917005.3999999762,,917005.1000000238,,916797.962,5,600,,
break_continue,html.Screen,10_31_2,2023-11-20T16:48:45.116Z,,,,,,,,,,,NaN,,,,,,,,high,high,,,,,,,false,,,,,false,917006.2000000477,917006,,917005.7999999523,,916797.962,5,600,,
sequence,flow.Sequence,10_31,2023-11-20T16:48:45.116Z,,,,,,,,,,,4850.643999999971,completion,,,,,,,high,high,,,,,,,false,,,,,false,917006.5,917006,912138.848,912364.6000000238,912155.356,916797.962,5,600,,
trial,html.Screen,10_32_0,2023-11-20T16:48:47.154Z,,,,1,0.0119001144851157,-0.0063430114540141,,0.04,true,ll,2246.238000047626,response,-0.8724853443422199,1.1018477261477124,-0.8968484576568809,-0.9014790323337478,1.1689134111599604,-0.8694386794126328,low,low,,ISIC_0003822.JPG,9,ISIC_6278273.JPG,28,50,false,0.1,ll,keypress(f),0,false,919044.3999999762,919044.2000000477,916781.198,917006.6000000238,916797.962,918835.018,5,600,33,
break,html.Screen,10_32_1,2023-11-20T16:48:47.155Z,,,,,,,,,,,NaN,,,,,,,,low,low,,,,,,,false,,,,,false,919045.1000000238,919045,,919044.7000000477,,918835.018,5,600,,
break_continue,html.Screen,10_32_2,2023-11-20T16:48:47.155Z,,,,,,,,,,,NaN,,,,,,,,low,low,,,,,,,false,,,,,false,919045.6000000238,919045.3999999762,,919045.2999999523,,918835.018,5,600,,
sequence,flow.Sequence,10_32,2023-11-20T16:48:47.155Z,,,,,,,,,,,2247.4379999761004,completion,,,,,,,low,low,,,,,,,false,,,,,false,919045.7000000477,919045.3999999762,916781.198,917006.5,916797.962,918835.018,5,600,,
trial,html.Screen,10_33_0,2023-11-20T16:48:48.946Z,,,,1,0.0119001144851157,-0.0063430114540141,,0.04,false,lh,2000.881999976118,response,-0.6616334713363664,1.1018477261477124,-0.8968484576568809,1.2806277136291266,1.1689134111599604,-0.8694386794126328,low,high,,ISIC_0003822.JPG,10,ISIC_7236842.JPG,28,27,false,0.2500000000000001,ll,keypress(f),0,false,920835.8999999762,920835.8999999762,918818.458,919045.7999999523,918835.018,920621.865,5,600,34,
break,html.Screen,10_33_1,2023-11-20T16:48:48.946Z,,,,,,,,,,,NaN,,,,,,,,low,high,,,,,,,false,,,,,false,920836.2999999523,920836.2999999523,,920836.1000000238,,920621.865,5,600,,
break_continue,html.Screen,10_33_2,2023-11-20T16:48:48.946Z,,,,,,,,,,,NaN,,,,,,,,low,high,,,,,,,false,,,,,false,920836.6000000238,920836.3999999762,,920836.2999999523,,920621.865,5,600,,
sequence,flow.Sequence,10_33,2023-11-20T16:48:48.946Z,,,,,,,,,,,2001.381999976118,completion,,,,,,,low,high,,,,,,,false,,,,,false,920836.6000000238,920836.3999999762,918818.458,919045.7999999523,918835.018,920621.865,5,600,,
trial,html.Screen,10_34_0,2023-11-20T16:48:57.483Z,,,,1,0.0220026381002083,-0.0170756452911772,,0.04,true,hl,8751.034999976167,response,0.8954803463300026,1.1018477261477124,-0.8968484576568809,-0.7071819047913821,1.1689134111599604,-0.8694386794126328,high,low,,ISIC_5347806.JPG,9,ISIC_0033071.JPG,28,26,false,0.2300000000000001,hl,keypress(j),0,false,929373.1000000238,929372.8999999762,920605.148,920836.7000000477,920621.865,929172.446,5,600,35,
break,html.Screen,10_34_1,2023-11-20T16:48:57.483Z,,,,,,,,,,,NaN,,,,,,,,high,low,,,,,,,false,,,,,false,929373.8999999762,929373.7000000477,,929373.2999999523,,929172.446,5,600,,
break_continue,html.Screen,10_34_2,2023-11-20T16:48:57.484Z,,,,,,,,,,,NaN,,,,,,,,high,low,,,,,,,false,,,,,false,929374.5,929374.2999999523,,929374,,929172.446,5,600,,
sequence,flow.Sequence,10_34,2023-11-20T16:48:57.484Z,,,,,,,,,,,8752.434999952326,completion,,,,,,,high,low,,,,,,,false,,,,,false,929374.7999999523,929374.2999999523,920605.148,920836.7000000477,920621.865,929172.446,5,600,,
trial,html.Screen,10_35_0,2023-11-20T16:49:01.474Z,,,,1,0.0367744112927588,0.0324865661712824,,0.04,false,lh,4191.953999976162,response,-0.6545252668717846,1.1018477261477124,-0.8968484576568809,1.2205481992327876,1.1689134111599604,-0.8694386794126328,low,high,,ISIC_4523565.JPG,9,ISIC_9927221.JPG,28,27,false,0.2500000000000001,hl,keypress(j),0,false,933364.6000000238,933364.3999999762,929138.414,929374.8999999762,929172.446,933163.09,5,600,36,
break,html.Screen,10_35_1,2023-11-20T16:49:01.475Z,,,,,,,,,,,NaN,,,,,,,,low,high,,,,,,,false,,,,,false,933365.1000000238,933365,,933364.7000000477,,933163.09,5,600,,
break_continue,html.Screen,10_35_2,2023-11-20T16:49:01.475Z,,,,,,,,,,,NaN,,,,,,,,low,high,,,,,,,false,,,,,false,933365.6000000238,933365.5,,933365.2999999523,,933163.09,5,600,,
sequence,flow.Sequence,10_35,2023-11-20T16:49:01.475Z,,,,,,,,,,,4193.054000000004,completion,,,,,,,low,high,,,,,,,false,,,,,false,933365.7999999523,933365.5,929138.414,929374.8999999762,929172.446,933163.09,5,600,,
trial,html.Screen,10_36_0,2023-11-20T16:49:05.010Z,,,,1,-0.0074667911845194,0.018500200317654,,0.04,false,hl,3736.8099999761907,response,0.9375710028613438,1.1018477261477124,-0.8968484576568809,-0.646533075914549,1.1689134111599604,-0.8694386794126328,high,low,,ISIC_0058723.JPG,9,ISIC_0024507.JPG,28,26,false,0.2300000000000001,hh,keypress(i),0,false,936900.1000000238,936899.8999999762,933129.529,933365.8999999762,933163.09,936686.415,5,600,37,
break,html.Screen,10_36_1,2023-11-20T16:49:05.010Z,,,,,,,,,,,NaN,,,,,,,,high,low,,,,,,,false,,,,,false,936900.2999999523,936900.2999999523,,936900.2000000477,,936686.415,5,600,,
break_continue,html.Screen,10_36_2,2023-11-20T16:49:05.010Z,,,,,,,,,,,NaN,,,,,,,,high,low,,,,,,,false,,,,,false,936900.5,936900.5,,936900.3999999762,,936686.415,5,600,,
sequence,flow.Sequence,10_36,2023-11-20T16:49:05.010Z,,,,,,,,,,,3737.4100000000326,completion,,,,,,,high,low,,,,,,,false,,,,,false,936900.6000000238,936900.5,933129.529,933365.7999999523,933163.09,936686.415,5,600,,
trial,html.Screen,10_37_0,2023-11-20T16:49:10.522Z,,,,1,0.0257631352671967,0.0202837002774028,,0.04,false,hl,5725.484999976121,response,1.2054195059663604,1.1018477261477124,-0.8968484576568809,-0.7760611240296147,1.1689134111599604,-0.8694386794126328,high,low,,ISIC_0032797.JPG,9,ISIC_8712559.JPG,28,26,false,0.2300000000000001,lh,keypress(e),0,false,942411.8999999762,942411.8999999762,936669.888,936900.6000000238,936686.415,942197.146,5,600,38,
break,html.Screen,10_37_1,2023-11-20T16:49:10.522Z,,,,,,,,,,,NaN,,,,,,,,high,low,,,,,,,false,,,,,false,942412.3999999762,942412.3999999762,,942412.1000000238,,942197.146,5,600,,
break_continue,html.Screen,10_37_2,2023-11-20T16:49:10.522Z,,,,,,,,,,,NaN,,,,,,,,high,low,,,,,,,false,,,,,false,942412.6000000238,942412.6000000238,,942412.5,,942197.146,5,600,,
sequence,flow.Sequence,10_37,2023-11-20T16:49:10.522Z,,,,,,,,,,,5726.185000023805,completion,,,,,,,high,low,,,,,,,false,,,,,false,942412.7999999523,942412.6000000238,936669.888,936900.6000000238,936686.415,942197.146,5,600,,
