sender,sender_type,sender_id,timestamp,meta,,age,blockNo,c1,c2,condition,control_tolerance,correct,correctResponse,duration,ended_on,f1,f1_high,f1_low,f2,f2_high,f2_low,feature_level1,feature_level2,gender,img_left,img_reveal,img_right,n_control_images,n_target_images,practice,range_tolerance,response,response_action,selection_duration,staircase,time_commit,time_end,time_render,time_run,time_show,time_switch,total_blocks,total_trials,trialNo,url
informed_consent,html.Screen,0,2023-11-20T19:29:35.411Z,"{""labjs_version"":""20.2.4"",""labjs_build"":{""flavor"":""development"",""commit"":""f5b4a49f956347addd546a832a3327688c2c0fef""},""location"":""https://labjs.felixhenninger.com/api/labjs_preview/index.html"",""userAgent"":""Mozilla/5.0 (Windows NT 10.0; Win64; x64) AppleWebKit/537.36 (KHTML, like Gecko) Chrome/119.0.0.0 Safari/537.36"",""platform"":""Win32"",""language"":""en-US"",""locale"":""en-US"",""timeZone"":""America/Chicago"",""timezoneOffset"":360,""screen_width"":1680,""screen_height"":1050,""scroll_width"":825,""scroll_height"":888,""window_innerWidth"":825,""window_innerHeight"":936,""devicePixelRatio"":1}",,,,,,,,,,10578.052000047684,response,,,,,,,,,,,,,,,,,consent,click button,,,11340,11331.200000047684,736.537,922.8000000715256,753.148,11156.894,,,,{}
Demography form,html.Form,1,2023-11-20T19:29:40.411Z,,,19,,,,,,,,5183.106,form submission,,,,,,,,,female,,,,,,,,,,,,16340.200000047684,16340,11140.029,11340.300000071526,11156.894,16149.775,,,,
Welcome,html.Screen,2,2023-11-20T19:30:02.819Z,,,,,,,"[""asym"",""bor""]",,,,22597.32500002384,response,,,,,,,,,,,,,,,,,continue,click button,,,38747.60000002384,38747.10000002384,16133.092,16340.300000071526,16149.775,38560.129,,,,
demo_instructions,html.Screen,3,2023-11-20T19:30:17.964Z,,,,,,,,,,,15330.971000023841,response,,,,,,,,,,,,,,,,,continue,click button,,,53891.700000047684,53891.10000002384,38543.375,38747.700000047684,38560.129,53706.208,,,,
trial,html.Screen,4_0_0,2023-11-20T19:30:31.328Z,,,,0,-1.156827121261563,-1.2544342720917778,,,true,hh,13548.992000047685,response,1.2024083555600384,1.2,-1.2,1.149077673153018,1.2,-1.2,high,high,,ISIC_0060397.JPG,,ISIC_3566243.JPG,,26,true,0.15000000000000002,hh,keypress(i),100,false,67255.80000007153,67255.20000004768,53689.748,53891.89999997616,53706.208,67082.253,1,16,1,
sequence,flow.Sequence,4_0,2023-11-20T19:30:31.351Z,,,,,,,,,,,13548.992000047685,completion,,,,,,,high,high,,,,,,,true,,,,,false,67278.80000007153,67255.20000004768,53689.748,53891.89999997616,53706.208,67082.253,1,16,,
trial,html.Screen,4_1_0,2023-11-20T19:30:40.116Z,,,,0,-1.185875658992962,-1.2635548590325487,,,true,hh,8961.547000071529,response,1.2711018615747949,1.2,-1.2,1.1042234044781618,1.2,-1.2,high,high,,ISIC_0011703.JPG,,ISIC_8603734.JPG,,26,true,0.15000000000000002,hh,keypress(i),100,false,76044.5,76043.80000007153,67065.664,67279,67082.253,75866.053,1,16,2,
sequence,flow.Sequence,4_1,2023-11-20T19:30:40.117Z,,,,,,,,,,,8961.547000071529,completion,,,,,,,high,high,,,,,,,true,,,,,false,76045.20000004768,76043.80000007153,67065.664,67278.80000007153,67082.253,75866.053,1,16,,
trial,html.Screen,4_2_0,2023-11-20T19:30:45.645Z,,,,0,-1.101214461533281,-1.1849883512428183,,,true,hh,5706.846999976158,response,1.057008495826831,1.2,-1.2,1.1278122585028287,1.2,-1.2,high,high,,ISIC_0064943.JPG,,ISIC_2819798.JPG,,26,true,0.15000000000000002,hh,keypress(i),100,false,81573.30000007153,81572.89999997616,75849.435,76045.60000002384,75866.053,81393.457,1,16,3,
sequence,flow.Sequence,4_2,2023-11-20T19:30:45.646Z,,,,,,,,,,,5706.846999976158,completion,,,,,,,high,high,,,,,,,true,,,,,false,81573.80000007153,81572.89999997616,75849.435,76045.5,75866.053,81393.457,1,16,,
trial,html.Screen,4_3_0,2023-11-20T19:30:55.694Z,,,,0,-1.242586748440878,-1.1207933200172129,,,false,hh,10227.942999976163,response,1.2012395086389958,1.2,-1.2,1.0618985767073823,1.2,-1.2,high,high,,ISIC_0013073.JPG,,ISIC_9876004.JPG,,26,true,0.15000000000000002,hl,keypress(j),100,false,91621.70000004768,91621.39999997616,81376.752,81574.10000002384,81393.457,91446.478,1,16,4,
sequence,flow.Sequence,4_3,2023-11-20T19:30:55.694Z,,,,,,,,,,,10227.942999976163,completion,,,,,,,high,high,,,,,,,true,,,,,false,91622.20000004768,91621.39999997616,81376.752,81574,81393.457,91446.478,1,16,,
trial,html.Screen,4_4_0,2023-11-20T19:31:02.590Z,,,,0,1.09666761087476,1.1072126870290426,,,true,ll,7071.222000047681,response,-1.2952503640839694,1.2,-1.2,-1.107234527385344,1.2,-1.2,low,low,,ISIC_0071754.JPG,,ISIC_0034134.JPG,,30,true,0.1,ll,keypress(f),100,false,98517.89999997616,98517.70000004768,91429.676,91622.20000004768,91446.478,98343.329,1,16,5,
sequence,flow.Sequence,4_4,2023-11-20T19:31:02.590Z,,,,,,,,,,,7071.222000047681,completion,,,,,,,low,low,,,,,,,true,,,,,false,98518.10000002384,98517.70000004768,91429.676,91622.20000004768,91446.478,98343.329,1,16,,
trial,html.Screen,4_5_0,2023-11-20T19:31:10.583Z,,,,0,1.3189473926989124,1.0770264364718942,,,true,ll,8167.57099997616,response,-1.152619213055059,1.2,-1.2,-1.1117876838408909,1.2,-1.2,low,low,,ISIC_6093728.JPG,,ISIC_0061915.JPG,,53,true,0.15000000000000002,ll,keypress(f),100,false,106511.60000002384,106510.89999997616,98326.428,98518.20000004768,98343.329,106342.027,1,16,6,
sequence,flow.Sequence,4_5,2023-11-20T19:31:10.584Z,,,,,,,,,,,8167.57099997616,completion,,,,,,,low,low,,,,,,,true,,,,,false,106512.20000004768,106510.89999997616,98326.428,98518.20000004768,98343.329,106342.027,1,16,,
trial,html.Screen,4_6_0,2023-11-20T19:31:16.115Z,,,,0,1.1388430156686884,1.2700552354887775,,,false,ll,5701.173000047682,response,-1.1512633312172555,1.2,-1.2,-1.337709216648353,1.2,-1.2,low,low,,ISIC_9939653.JPG,,ISIC_6512653.JPG,,53,true,0.15000000000000002,lh,keypress(e),100,false,112043.5,112043.20000004768,106325.47,106512.60000002384,106342.027,111869.618,1,16,7,
sequence,flow.Sequence,4_6,2023-11-20T19:31:16.116Z,,,,,,,,,,,5701.173000047682,completion,,,,,,,low,low,,,,,,,true,,,,,false,112043.80000007153,112043.20000004768,106325.47,106512.5,106342.027,111869.618,1,16,,
trial,html.Screen,4_7_0,2023-11-20T19:31:21.843Z,,,,0,1.0870240111136478,1.332340670965917,,,true,ll,5900.381999999998,response,-1.247270138097585,1.2,-1.2,-1.1704704713504994,1.2,-1.2,low,low,,ISIC_0000660.JPG,,ISIC_0065774.JPG,,53,true,0.15000000000000002,ll,keypress(f),100,false,117770.5,117770,111852.776,112044,111869.618,117630.631,1,16,8,
sequence,flow.Sequence,4_7,2023-11-20T19:31:21.843Z,,,,,,,,,,,5900.381999999998,completion,,,,,,,low,low,,,,,,,true,,,,,false,117771.20000004768,117770,111852.776,112043.89999997616,111869.618,117630.631,1,16,,
trial,html.Screen,4_8_0,2023-11-20T19:31:37.717Z,,,,0,1.2695509547992938,-0.9641099676945492,,,true,lh,16013.469000023848,response,-1.0213365328004047,1.2,-1.2,1.088524359911891,1.2,-1.2,low,high,,ISIC_0025841.JPG,,ISIC_5434229.JPG,,27,true,0.42000000000000026,lh,keypress(e),100,false,133644.39999997616,133644.10000002384,117580.61,117771.5,117630.631,133511.518,1,16,9,
sequence,flow.Sequence,4_8,2023-11-20T19:31:37.717Z,,,,,,,,,,,16013.469000023848,completion,,,,,,,low,high,,,,,,,true,,,,,false,133644.80000007153,133644.10000002384,117580.61,117771.39999997616,117630.631,133511.518,1,16,,
trial,html.Screen,4_9_0,2023-11-20T19:31:42.151Z,,,,0,0.9454713230140772,-0.9245167441969216,,,true,lh,4567.282000071515,response,-0.9873794329144926,1.2,-1.2,0.7991077882008257,1.2,-1.2,low,high,,ISIC_9101055.JPG,,ISIC_0013498.JPG,,27,true,0.42000000000000026,lh,keypress(e),100,false,138078.89999997616,138078.80000007153,133444.732,133645,133511.518,137903.434,1,16,10,
sequence,flow.Sequence,4_9,2023-11-20T19:31:42.151Z,,,,,,,,,,,4567.282000071515,completion,,,,,,,low,high,,,,,,,true,,,,,false,138079,138078.80000007153,133444.732,133645,133511.518,137903.434,1,16,,
trial,html.Screen,4_10_0,2023-11-20T19:31:45.151Z,,,,0,0.9579209317488,-1.0147487101263497,,,true,lh,3175.6660000238335,response,-0.8655167308525522,1.2,-1.2,0.9298580423306444,1.2,-1.2,low,high,,ISIC_8124482.JPG,,ISIC_4603706.JPG,,27,true,0.42000000000000026,lh,keypress(e),100,false,141079.20000004768,141079.10000002384,137886.736,138079.10000002384,137903.434,140909.364,1,16,11,
sequence,flow.Sequence,4_10,2023-11-20T19:31:45.152Z,,,,,,,,,,,3175.6660000238335,completion,,,,,,,low,high,,,,,,,true,,,,,false,141079.39999997616,141079.10000002384,137886.736,138079.10000002384,137903.434,140909.364,1,16,,
trial,html.Screen,4_11_0,2023-11-20T19:31:48.891Z,,,,0,0.8487429103619056,-0.9778257804233036,,,true,lh,3909.0359999761567,response,-0.7870237732709365,1.2,-1.2,0.9172955251119376,1.2,-1.2,low,high,,ISIC_4554863.JPG,,ISIC_0057716.JPG,,27,true,0.42000000000000026,lh,keypress(e),100,false,144818.5,144818.39999997616,140892.612,141079.5,140909.364,144649.971,1,16,12,
sequence,flow.Sequence,4_11,2023-11-20T19:31:48.891Z,,,,,,,,,,,3909.0359999761567,completion,,,,,,,low,high,,,,,,,true,,,,,false,144818.70000004768,144818.39999997616,140892.612,141079.39999997616,140909.364,144649.971,1,16,,
trial,html.Screen,4_12_0,2023-11-20T19:31:54.919Z,,,,0,-1.4092385398614515,1.3046237992197836,,,true,hl,6196.428999976168,response,1.020990671779317,1.2,-1.2,-1.0116513850520903,1.2,-1.2,high,low,,ISIC_7254359.JPG,,ISIC_0011995.JPG,,26,true,0.3600000000000002,hl,keypress(j),100,false,150846.70000004768,150846.39999997616,144633.207,144818.70000004768,144649.971,150694.99,1,16,13,
sequence,flow.Sequence,4_12,2023-11-20T19:31:54.920Z,,,,,,,,,,,6196.428999976168,completion,,,,,,,high,low,,,,,,,true,,,,,false,150847.5,150846.39999997616,144633.207,144818.70000004768,144649.971,150694.99,1,16,,
trial,html.Screen,4_13_0,2023-11-20T19:32:00.363Z,,,,0,-0.7871162143493278,0.8429329800778957,,,true,hl,5595.210000047693,response,0.9696118525781644,1.2,-1.2,-0.9244148283103414,1.2,-1.2,high,low,,ISIC_3439215.JPG,,ISIC_7927525.JPG,,33,true,0.42000000000000026,hl,keypress(j),100,false,156290.5,156290.20000004768,150661.677,150847.70000004768,150694.99,156138.917,1,16,14,
sequence,flow.Sequence,4_13,2023-11-20T19:32:00.363Z,,,,,,,,,,,5595.210000047693,completion,,,,,,,high,low,,,,,,,true,,,,,false,156291.10000002384,156290.20000004768,150661.677,150847.60000002384,150694.99,156138.917,1,16,,
trial,html.Screen,4_14_0,2023-11-20T19:32:06.575Z,,,,0,-0.8035152873995188,0.82868450251632,,,true,hl,6363.482999976171,response,1.0865333402803938,1.2,-1.2,-1.0542635307358266,1.2,-1.2,high,low,,ISIC_0010671.JPG,,ISIC_0034006.JPG,,33,true,0.42000000000000026,hl,keypress(j),100,false,162502.80000007153,162502.39999997616,156105.597,156291.30000007153,156138.917,162351.009,1,16,15,
sequence,flow.Sequence,4_14,2023-11-20T19:32:06.576Z,,,,,,,,,,,6363.482999976171,completion,,,,,,,high,low,,,,,,,true,,,,,false,162503.39999997616,162502.39999997616,156105.597,156291.20000004768,156138.917,162351.009,1,16,,
trial,html.Screen,4_15_0,2023-11-20T19:32:12.898Z,,,,0,-0.991146183030456,0.9949639823722534,,,true,hl,6474.591000023851,response,1.0143509683988825,1.2,-1.2,-1.3163955902021656,1.2,-1.2,high,low,,ISIC_6342224.JPG,,ISIC_0062031.JPG,,33,true,0.42000000000000026,hl,keypress(j),100,false,168825.80000007153,168825.60000002384,162317.703,162503.70000004768,162351.009,168646.622,1,16,16,
sequence,flow.Sequence,4_15,2023-11-20T19:32:12.898Z,,,,,,,,,,,6474.591000023851,completion,,,,,,,high,low,,,,,,,true,,,,,false,168826,168825.60000002384,162317.703,162503.60000002384,162351.009,168646.622,1,16,,
demonstration_loop,flow.Loop,4,2023-11-20T19:32:12.898Z,,,,,,,,,,,115119.39200002384,completion,,,,,,,,,,,,,,,true,,,,,false,168826,168825.60000002384,53689.748,53891.89999997616,53706.208,168646.622,1,16,,
practice_instructions,html.Screen,5,2023-11-20T19:32:22.092Z,,,,,,,,,,,9364.777999976155,response,,,,,,,,,,,,,,,,,continue,click button,,,178019.39999997616,178011.39999997616,168629.929,168826.10000002384,168646.622,177864.555,,,,
trial,html.Screen,6_0_0,2023-11-20T19:32:31.455Z,,,,1,0.8979276789594874,-0.925374811016654,,,false,lh,9510.945000000007,response,-0.7833710010171356,1.2,-1.2,0.9315588090336896,1.2,-1.2,low,high,,ISIC_4208361.JPG,,ISIC_3826102.JPG,,27,true,0.42000000000000026,hl,keypress(j),0,false,187382.89999997616,187375.5,177797.944,178019.60000002384,177864.555,187216.097,1,40,1,
sequence,flow.Sequence,6_0,2023-11-20T19:32:31.456Z,,,,,,,,,,,9510.945000000007,completion,,,,,,,low,high,,,,,,,true,,,,,false,187383.10000002384,187375.5,177797.944,178019.60000002384,177864.555,187216.097,1,40,,
trial,html.Screen,6_1_0,2023-11-20T19:32:39.445Z,,,,1,-0.8947611078712571,0.8960964505004638,,,false,hl,8156.302999976149,response,0.9454713230140772,1.2,-1.2,-0.9245167441969216,1.2,-1.2,high,low,,ISIC_6441128.JPG,,ISIC_9101055.JPG,,26,true,0.3600000000000002,ll,keypress(f),0,false,195372.80000007153,195372.39999997616,187182.649,187383.10000002384,187216.097,195198.287,1,40,2,
sequence,flow.Sequence,6_1,2023-11-20T19:32:39.446Z,,,,,,,,,,,8156.302999976149,completion,,,,,,,high,low,,,,,,,true,,,,,false,195373.30000007153,195372.39999997616,187182.649,187383.10000002384,187216.097,195198.287,1,40,,
trial,html.Screen,6_2_0,2023-11-20T19:32:47.990Z,,,,1,1.0751036484083878,-1.143906455483852,,,true,lh,8718.913000047673,response,-0.948927472020595,1.2,-1.2,1.0660437155921598,1.2,-1.2,low,high,,ISIC_0064406.JPG,,ISIC_5808758.JPG,,27,true,0.42000000000000026,lh,keypress(e),0,false,203917.60000002384,203917.20000004768,195164.853,195373.39999997616,195198.287,203731.569,1,40,3,
sequence,flow.Sequence,6_2,2023-11-20T19:32:47.991Z,,,,,,,,,,,8718.913000047673,completion,,,,,,,low,high,,,,,,,true,,,,,false,203918,203917.20000004768,195164.853,195373.30000007153,195198.287,203731.569,1,40,,
trial,html.Screen,6_3_0,2023-11-20T19:32:54.110Z,,,,1,1.2024083555600384,1.149077673153018,,,true,ll,6305.531000023853,response,-0.9342143229318964,1.2,-1.2,-1.195482218669593,1.2,-1.2,low,low,,ISIC_3566243.JPG,,ISIC_8073555.JPG,,245,true,0.3600000000000002,ll,keypress(f),0,false,210037.60000002384,210037.10000002384,203714.987,203918.30000007153,203731.569,209876.842,1,40,4,
sequence,flow.Sequence,6_3,2023-11-20T19:32:54.111Z,,,,,,,,,,,6305.531000023853,completion,,,,,,,low,low,,,,,,,true,,,,,false,210038.20000004768,210037.10000002384,203714.987,203918.10000002384,203731.569,209876.842,1,40,,
trial,html.Screen,6_4_0,2023-11-20T19:32:58.054Z,,,,1,0.8579451262594331,-0.9633172970727744,,,true,lh,4104.458000071521,response,-1.0164576835546473,1.2,-1.2,0.8120626538423016,1.2,-1.2,low,high,,ISIC_0067172.JPG,,ISIC_6002694.JPG,,27,true,0.42000000000000026,lh,keypress(e),0,false,213981.60000002384,213981.30000007153,209826.983,210038.5,209876.842,213817.84,1,40,5,
sequence,flow.Sequence,6_4,2023-11-20T19:32:58.055Z,,,,,,,,,,,4104.458000071521,completion,,,,,,,low,high,,,,,,,true,,,,,false,213982.10000002384,213981.30000007153,209826.983,210038.39999997616,209876.842,213817.84,1,40,,
trial,html.Screen,6_5_0,2023-11-20T19:33:02.430Z,,,,1,0.9579209317488,-1.0147487101263497,,,true,lh,4539.1600000000035,response,-1.276222161935671,1.2,-1.2,0.9657780821973284,1.2,-1.2,low,high,,ISIC_8124482.JPG,,ISIC_6710411.JPG,,27,true,0.42000000000000026,lh,keypress(e),0,false,218357.5,218357,213784.547,213982.39999997616,213817.84,218176.606,1,40,6,
sequence,flow.Sequence,6_5,2023-11-20T19:33:02.431Z,,,,,,,,,,,4539.1600000000035,completion,,,,,,,low,high,,,,,,,true,,,,,false,218358,218357,213784.547,213982.30000007153,213817.84,218176.606,1,40,,
trial,html.Screen,6_6_0,2023-11-20T19:33:07.174Z,,,,1,-1.2181031651370575,-1.2158573487067317,,,true,hh,4924.293999976158,response,0.8671772321064484,1.2,-1.2,1.0212529379514277,1.2,-1.2,high,high,,ISIC_7242312.JPG,,ISIC_0004352.JPG,,179,true,0.3600000000000002,hh,keypress(i),0,false,223101.20000004768,223100.89999997616,218159.814,218358.20000004768,218176.606,222919.006,1,40,7,
sequence,flow.Sequence,6_6,2023-11-20T19:33:07.174Z,,,,,,,,,,,4924.293999976158,completion,,,,,,,high,high,,,,,,,true,,,,,false,223101.70000004768,223100.89999997616,218159.814,218358.20000004768,218176.606,222919.006,1,40,,
trial,html.Screen,6_7_0,2023-11-20T19:33:10.814Z,,,,1,-1.185875658992962,-1.2635548590325487,,,true,hh,3822.393999976164,response,1.2711018615747949,1.2,-1.2,1.1042234044781618,1.2,-1.2,high,high,,ISIC_0011703.JPG,,ISIC_8603734.JPG,,26,true,0.15000000000000002,hh,keypress(i),0,false,226741.70000004768,226741.39999997616,222902.182,223102,222919.006,226559.405,1,40,8,
sequence,flow.Sequence,6_7,2023-11-20T19:33:10.815Z,,,,,,,,,,,3822.393999976164,completion,,,,,,,high,high,,,,,,,true,,,,,false,226742.30000007153,226741.39999997616,222902.182,223101.89999997616,222919.006,226559.405,1,40,,
trial,html.Screen,6_8_0,2023-11-20T19:33:14.526Z,,,,1,1.057008495826831,1.1278122585028287,,,true,ll,3893.695000023843,response,-1.152619213055059,1.2,-1.2,-1.1117876838408909,1.2,-1.2,low,low,,ISIC_2819798.JPG,,ISIC_0061915.JPG,,30,true,0.1,ll,keypress(f),0,false,230453.60000002384,230453.10000002384,226542.705,226742.60000002384,226559.405,230266.528,1,40,9,
sequence,flow.Sequence,6_8,2023-11-20T19:33:14.527Z,,,,,,,,,,,3893.695000023843,completion,,,,,,,low,low,,,,,,,true,,,,,false,230454,230453.10000002384,226542.705,226742.5,226559.405,230266.528,1,40,,
trial,html.Screen,6_9_0,2023-11-20T19:33:16.910Z,,,,1,1.2503149164557643,1.0796591227570405,,,true,ll,2570.6720000476926,response,-1.2750452296609045,1.2,-1.2,-1.1682369131232675,1.2,-1.2,low,low,,ISIC_2466892.JPG,,ISIC_0066399.JPG,,53,true,0.15000000000000002,ll,keypress(f),0,false,232837.5,232837.20000004768,230250.017,230454.39999997616,230266.528,232654.615,1,40,10,
sequence,flow.Sequence,6_9,2023-11-20T19:33:16.911Z,,,,,,,,,,,2570.6720000476926,completion,,,,,,,low,low,,,,,,,true,,,,,false,232838.10000002384,232837.20000004768,230250.017,230454.30000007153,230266.528,232654.615,1,40,,
trial,html.Screen,6_10_0,2023-11-20T19:33:18.869Z,,,,1,1.0870240111136478,1.332340670965917,,,true,ll,2141.585000047693,response,-1.0651492409820618,1.2,-1.2,-1.1862499256725747,1.2,-1.2,low,low,,ISIC_0000660.JPG,,ISIC_0065421.JPG,,53,true,0.15000000000000002,ll,keypress(f),0,false,234796.30000007153,234796.20000004768,232638.071,232838.30000007153,232654.615,234658.425,1,40,11,
sequence,flow.Sequence,6_10,2023-11-20T19:33:18.869Z,,,,,,,,,,,2141.585000047693,completion,,,,,,,low,low,,,,,,,true,,,,,false,234796.60000002384,234796.20000004768,232638.071,232838.20000004768,232654.615,234658.425,1,40,,
trial,html.Screen,6_11_0,2023-11-20T19:33:23.230Z,,,,1,1.0026266089287914,-1.0913275913920335,,,true,lh,4498.6750000238535,response,-1.0022829373011404,1.2,-1.2,0.8311726972863814,1.2,-1.2,low,high,,ISIC_0033520.JPG,,ISIC_0033287.JPG,,27,true,0.42000000000000026,lh,keypress(e),0,false,239157.39999997616,239157.10000002384,234591.739,234796.70000004768,234658.425,238966.893,1,40,12,
sequence,flow.Sequence,6_11,2023-11-20T19:33:23.231Z,,,,,,,,,,,4498.6750000238535,completion,,,,,,,low,high,,,,,,,true,,,,,false,239157.89999997616,239157.10000002384,234591.739,234796.60000002384,234658.425,238966.893,1,40,,
trial,html.Screen,6_12_0,2023-11-20T19:33:28.646Z,,,,1,-1.247270138097585,-1.1704704713504994,,,true,hh,5606.006999976147,response,0.953802353776362,1.2,-1.2,0.927101493584587,1.2,-1.2,high,high,,ISIC_0065774.JPG,,ISIC_9751601.JPG,,179,true,0.3600000000000002,hh,keypress(i),0,false,244573.20000004768,244572.89999997616,238950.3,239158.30000007153,238966.893,244377.428,1,40,13,
sequence,flow.Sequence,6_12,2023-11-20T19:33:28.647Z,,,,,,,,,,,5606.006999976147,completion,,,,,,,high,high,,,,,,,true,,,,,false,244573.80000007153,244572.89999997616,238950.3,239158.20000004768,238966.893,244377.428,1,40,,
trial,html.Screen,6_13_0,2023-11-20T19:33:31.846Z,,,,1,1.057008495826831,1.1278122585028287,,,true,ll,3395.6720000238274,response,-1.126264390089724,1.2,-1.2,-1.271896565050952,1.2,-1.2,low,low,,ISIC_2819798.JPG,,ISIC_1520897.JPG,,30,true,0.1,ll,keypress(f),0,false,247773.5,247773.10000002384,244360.761,244574,244377.428,247616.983,1,40,14,
sequence,flow.Sequence,6_13,2023-11-20T19:33:31.847Z,,,,,,,,,,,3395.6720000238274,completion,,,,,,,low,low,,,,,,,true,,,,,false,247774.10000002384,247773.10000002384,244360.761,244574,244377.428,247616.983,1,40,,
trial,html.Screen,6_14_0,2023-11-20T19:33:37.039Z,,,,1,-0.948927472020595,1.0660437155921598,,,true,hl,5348.416999976151,response,1.2364994561934892,1.2,-1.2,-0.9174173651516624,1.2,-1.2,high,low,,ISIC_5808758.JPG,,ISIC_3481133.JPG,,26,true,0.3600000000000002,hl,keypress(j),0,false,252965.70000004768,252965.39999997616,247567.081,247774.30000007153,247616.983,252777.031,1,40,15,
sequence,flow.Sequence,6_14,2023-11-20T19:33:37.039Z,,,,,,,,,,,5348.416999976151,completion,,,,,,,high,low,,,,,,,true,,,,,false,252966.30000007153,252965.39999997616,247567.081,247774.20000004768,247616.983,252777.031,1,40,,
trial,html.Screen,6_15_0,2023-11-20T19:33:44.190Z,,,,1,1.0865333402803938,-1.0542635307358266,,,true,lh,7339.969000000012,response,-0.8655167308525522,1.2,-1.2,0.9298580423306444,1.2,-1.2,low,high,,ISIC_0034006.JPG,,ISIC_4603706.JPG,,27,true,0.42000000000000026,lh,keypress(e),0,false,260117.30000007153,260117,252760.3,252966.39999997616,252777.031,259940.977,1,40,16,
sequence,flow.Sequence,6_15,2023-11-20T19:33:44.191Z,,,,,,,,,,,7339.969000000012,completion,,,,,,,low,high,,,,,,,true,,,,,false,260117.89999997616,260117,252760.3,252966.39999997616,252777.031,259940.977,1,40,,
trial,html.Screen,6_16_0,2023-11-20T19:33:50.815Z,,,,1,-1.0164576835546473,0.8120626538423016,,,true,hl,6800.422999976145,response,1.2364994561934892,1.2,-1.2,-0.9174173651516624,1.2,-1.2,high,low,,ISIC_6002694.JPG,,ISIC_3481133.JPG,,26,true,0.3600000000000002,hl,keypress(j),0,false,266741.7000000477,266741.39999997616,259907.635,260118.10000002384,259940.977,266553.911,1,40,17,
sequence,flow.Sequence,6_16,2023-11-20T19:33:50.815Z,,,,,,,,,,,6800.422999976145,completion,,,,,,,high,low,,,,,,,true,,,,,false,266742.2000000477,266741.39999997616,259907.635,260118,259940.977,266553.911,1,40,,
trial,html.Screen,6_17_0,2023-11-20T19:33:56.654Z,,,,1,-1.2249552940807693,-1.1723015116910682,,,true,hh,6027.289000047662,response,1.241406480986552,1.2,-1.2,1.081912821786771,1.2,-1.2,high,high,,ISIC_0055251.JPG,,ISIC_4223155.JPG,,253,true,0.42000000000000026,hh,keypress(i),0,false,272581.5,272581.2000000477,266537.308,266742.5,266553.911,272415.252,1,40,18,
sequence,flow.Sequence,6_17,2023-11-20T19:33:56.655Z,,,,,,,,,,,6027.289000047662,completion,,,,,,,high,high,,,,,,,true,,,,,false,272582,272581.2000000477,266537.308,266742.39999997616,266553.911,272415.252,1,40,,
trial,html.Screen,6_18_0,2023-11-20T19:34:00.839Z,,,,1,-0.7911024675435955,0.7975977016137676,,,true,hl,4350.048000071547,response,0.8979276789594874,1.2,-1.2,-0.925374811016654,1.2,-1.2,high,low,,ISIC_5813642.JPG,,ISIC_4208361.JPG,,26,true,0.3600000000000002,hl,keypress(j),0,false,276765.7000000477,276765.3000000715,272381.984,272582.3000000715,272415.252,276573.357,1,40,19,
sequence,flow.Sequence,6_18,2023-11-20T19:34:00.839Z,,,,,,,,,,,4350.048000071547,completion,,,,,,,high,low,,,,,,,true,,,,,false,276766.10000002384,276765.3000000715,272381.984,272582.3000000715,272415.252,276573.357,1,40,,
trial,html.Screen,6_19_0,2023-11-20T19:34:06.414Z,,,,1,-1.1383813631375823,-1.1319312220332556,,,true,hh,5767.743000023824,response,1.072671714258808,1.2,-1.2,1.0208498389771272,1.2,-1.2,high,high,,ISIC_6227397.JPG,,ISIC_5218773.JPG,,253,true,0.42000000000000026,hh,keypress(i),0,false,282341.5,282341.10000002384,276556.928,276766.39999997616,276573.357,282184.269,1,40,20,
sequence,flow.Sequence,6_19,2023-11-20T19:34:06.415Z,,,,,,,,,,,5767.743000023824,completion,,,,,,,high,high,,,,,,,true,,,,,false,282341.89999997616,282341.10000002384,276556.928,276766.3000000715,276573.357,282184.269,1,40,,
trial,html.Screen,6_20_0,2023-11-20T19:34:13.511Z,,,,1,-0.991146183030456,0.9949639823722534,,,true,hl,7253.130999976187,response,1.331700944308701,1.2,-1.2,-0.9395196143259436,1.2,-1.2,high,low,,ISIC_6342224.JPG,,ISIC_1668831.JPG,,26,true,0.3600000000000002,hl,keypress(j),0,false,289437.7000000477,289437.39999997616,282134.401,282342.2000000477,282184.269,289264.711,1,40,21,
sequence,flow.Sequence,6_20,2023-11-20T19:34:13.511Z,,,,,,,,,,,7253.130999976187,completion,,,,,,,high,low,,,,,,,true,,,,,false,289438.2000000477,289437.39999997616,282134.401,282342.2000000477,282184.269,289264.711,1,40,,
trial,html.Screen,6_21_0,2023-11-20T19:34:20.815Z,,,,1,-0.8623414234919863,0.782830143980698,,,true,hl,7476.389000023832,response,0.858338058340649,1.2,-1.2,-0.9540612223480284,1.2,-1.2,high,low,,ISIC_2727016.JPG,,ISIC_8922893.JPG,,33,true,0.42000000000000026,hl,keypress(j),0,false,296741.39999997616,296741.10000002384,289231.247,289438.39999997616,289264.711,296545.64,1,40,22,
sequence,flow.Sequence,6_21,2023-11-20T19:34:20.815Z,,,,,,,,,,,7476.389000023832,completion,,,,,,,high,low,,,,,,,true,,,,,false,296741.89999997616,296741.10000002384,289231.247,289438.39999997616,289264.711,296545.64,1,40,,
trial,html.Screen,6_22_0,2023-11-20T19:34:25.886Z,,,,1,1.1642596483638106,1.109799097093339,,,true,ll,5267.359999999986,response,-0.829909234884455,1.2,-1.2,-1.0304874376319082,1.2,-1.2,low,low,,ISIC_0765584.JPG,,ISIC_9211072.JPG,,339,true,0.42000000000000026,ll,keypress(f),0,false,301813.3000000715,301813,296529.045,296742.2000000477,296545.64,301622.114,1,40,23,
sequence,flow.Sequence,6_22,2023-11-20T19:34:25.887Z,,,,,,,,,,,5267.359999999986,completion,,,,,,,low,low,,,,,,,true,,,,,false,301813.8000000715,301813,296529.045,296742.2000000477,296545.64,301622.114,1,40,,
trial,html.Screen,6_23_0,2023-11-20T19:34:29.655Z,,,,1,-1.247270138097585,-1.1704704713504994,,,true,hh,3959.0860000476823,response,1.2706447584800626,1.2,-1.2,1.0903308007916603,1.2,-1.2,high,high,,ISIC_0065774.JPG,,ISIC_9425937.JPG,,26,true,0.15000000000000002,hh,keypress(i),0,false,305581.60000002384,305581.2000000477,301605.652,301814.2000000477,301622.114,305429.524,1,40,24,
sequence,flow.Sequence,6_23,2023-11-20T19:34:29.655Z,,,,,,,,,,,3959.0860000476823,completion,,,,,,,high,high,,,,,,,true,,,,,false,305582.3000000715,305581.2000000477,301605.652,301814,301622.114,305429.524,1,40,,
trial,html.Screen,6_24_0,2023-11-20T19:34:32.430Z,,,,1,-1.4092385398614515,1.3046237992197836,,,true,hl,2927.476000000024,response,0.879102500583965,1.2,-1.2,-1.0933081951979773,1.2,-1.2,high,low,,ISIC_7254359.JPG,,ISIC_0046223.JPG,,26,true,0.3600000000000002,hl,keypress(j),0,false,308357.3000000715,308357,305379.63,305582.5,305429.524,308168.173,1,40,25,
sequence,flow.Sequence,6_24,2023-11-20T19:34:32.431Z,,,,,,,,,,,2927.476000000024,completion,,,,,,,high,low,,,,,,,true,,,,,false,308357.8000000715,308357,305379.63,305582.5,305429.524,308168.173,1,40,,
trial,html.Screen,6_25_0,2023-11-20T19:34:38.757Z,,,,1,1.1642596483638106,1.109799097093339,,,false,ll,6516.027000047674,response,-0.926346073371304,1.2,-1.2,-1.3916411022520692,1.2,-1.2,low,low,,ISIC_0765584.JPG,,ISIC_0034094.JPG,,339,true,0.42000000000000026,hl,keypress(j),0,false,314684.3000000715,314684.2000000477,308151.68,308358,308168.173,314513.834,1,40,26,
sequence,flow.Sequence,6_25,2023-11-20T19:34:38.758Z,,,,,,,,,,,6516.027000047674,completion,,,,,,,low,low,,,,,,,true,,,,,false,314684.5,314684.2000000477,308151.68,308358,308168.173,314513.834,1,40,,
trial,html.Screen,6_26_0,2023-11-20T19:34:44.879Z,,,,1,1.2364994561934892,-0.9174173651516624,,,true,lh,6291.266000023868,response,-1.0164576835546473,1.2,-1.2,0.8120626538423016,1.2,-1.2,low,high,,ISIC_3481133.JPG,,ISIC_6002694.JPG,,27,true,0.42000000000000026,lh,keypress(e),0,false,320805.39999997616,320805.10000002384,314480.541,314684.60000002384,314513.834,320626.317,1,40,27,
sequence,flow.Sequence,6_26,2023-11-20T19:34:44.879Z,,,,,,,,,,,6291.266000023868,completion,,,,,,,low,high,,,,,,,true,,,,,false,320805.89999997616,320805.10000002384,314480.541,314684.60000002384,314513.834,320626.317,1,40,,
trial,html.Screen,6_27_0,2023-11-20T19:34:48.935Z,,,,1,-1.2923059965680113,-1.222688159093534,,,true,hh,4234.783000023861,response,1.5371189604118314,1.2,-1.2,0.9582474649169744,1.2,-1.2,high,high,,ISIC_0072175.JPG,,ISIC_0821520.JPG,,179,true,0.3600000000000002,hh,keypress(i),0,false,324861.3000000715,324861.10000002384,320592.553,320806.2000000477,320626.317,324666.965,1,40,28,
sequence,flow.Sequence,6_27,2023-11-20T19:34:48.935Z,,,,,,,,,,,4234.783000023861,completion,,,,,,,high,high,,,,,,,true,,,,,false,324861.8000000715,324861.10000002384,320592.553,320806.10000002384,320626.317,324666.965,1,40,,
trial,html.Screen,6_28_0,2023-11-20T19:34:53.719Z,,,,1,1.2012395086389958,1.0618985767073823,,,true,ll,4978.235000047658,response,-1.1164729501046406,1.2,-1.2,-1.2978935747992253,1.2,-1.2,low,low,,ISIC_9876004.JPG,,ISIC_0034166.JPG,,30,true,0.1,ll,keypress(f),0,false,329645.60000002384,329645.2000000477,324650.305,324862,324666.965,329459.702,1,40,29,
sequence,flow.Sequence,6_28,2023-11-20T19:34:53.719Z,,,,,,,,,,,4978.235000047658,completion,,,,,,,low,low,,,,,,,true,,,,,false,329646.2000000477,329645.2000000477,324650.305,324862,324666.965,329459.702,1,40,,
trial,html.Screen,6_29_0,2023-11-20T19:35:02.703Z,,,,1,-1.152619213055059,-1.1117876838408909,,,false,hh,9169.898000023852,response,1.3411179702686655,1.2,-1.2,1.255103311449152,1.2,-1.2,high,high,,ISIC_0061915.JPG,,ISIC_5611010.JPG,,26,true,0.15000000000000002,hl,keypress(j),0,false,338629.89999997616,338629.60000002384,329443.125,329646.39999997616,329459.702,338477.178,1,40,30,
sequence,flow.Sequence,6_29,2023-11-20T19:35:02.704Z,,,,,,,,,,,9169.898000023852,completion,,,,,,,high,high,,,,,,,true,,,,,false,338630.39999997616,338629.60000002384,329443.125,329646.39999997616,329459.702,338477.178,1,40,,
trial,html.Screen,6_30_0,2023-11-20T19:35:07.591Z,,,,1,-0.8655167308525522,0.9298580423306444,,,false,hl,5040.022000047669,response,1.020990671779317,1.2,-1.2,-1.0116513850520903,1.2,-1.2,high,low,,ISIC_4603706.JPG,,ISIC_0011995.JPG,,26,true,0.3600000000000002,ll,keypress(f),0,false,343517.60000002384,343517.2000000477,338427.228,338630.7000000477,338477.178,343336.646,1,40,31,
sequence,flow.Sequence,6_30,2023-11-20T19:35:07.591Z,,,,,,,,,,,5040.022000047669,completion,,,,,,,high,low,,,,,,,true,,,,,false,343518,343517.2000000477,338427.228,338630.7000000477,338477.178,343336.646,1,40,,
trial,html.Screen,6_31_0,2023-11-20T19:35:13.013Z,,,,1,1.1181734135756094,-0.944560381774994,,,true,lh,5603.054000047676,response,-0.8200962008791046,1.2,-1.2,0.7936051642828523,1.2,-1.2,low,high,,ISIC_9688534.JPG,,ISIC_0027031.JPG,,27,true,0.42000000000000026,lh,keypress(e),0,false,348939.89999997616,348939.7000000477,343320.042,343518.3000000715,343336.646,348747.157,1,40,32,
sequence,flow.Sequence,6_31,2023-11-20T19:35:13.013Z,,,,,,,,,,,5603.054000047676,completion,,,,,,,low,high,,,,,,,true,,,,,false,348940,348939.7000000477,343320.042,343518.2000000477,343336.646,348747.157,1,40,,
trial,html.Screen,6_32_0,2023-11-20T19:35:17.261Z,,,,1,1.1388430156686884,1.2700552354887775,,,true,ll,4440.643000071519,response,-0.8946880006769797,1.2,-1.2,-0.9198276163642348,1.2,-1.2,low,low,,ISIC_9939653.JPG,,ISIC_7840728.JPG,,245,true,0.3600000000000002,ll,keypress(f),0,false,353188,353187.8000000715,348730.56,348940,348747.157,353005.468,1,40,33,
sequence,flow.Sequence,6_32,2023-11-20T19:35:17.261Z,,,,,,,,,,,4440.643000071519,completion,,,,,,,low,low,,,,,,,true,,,,,false,353188.10000002384,353187.8000000715,348730.56,348940,348747.157,353005.468,1,40,,
trial,html.Screen,6_33_0,2023-11-20T19:35:21.887Z,,,,1,-1.1164729501046406,-1.2978935747992253,,,true,hh,4807.5320000000065,response,1.1598623261077452,1.2,-1.2,1.203269031614007,1.2,-1.2,high,high,,ISIC_0034166.JPG,,ISIC_0002639.JPG,,26,true,0.15000000000000002,hh,keypress(i),0,false,357813.3000000715,357813,352988.894,353188.10000002384,353005.468,357631.283,1,40,34,
sequence,flow.Sequence,6_33,2023-11-20T19:35:21.887Z,,,,,,,,,,,4807.5320000000065,completion,,,,,,,high,high,,,,,,,true,,,,,false,357813.8000000715,357813,352988.894,353188.10000002384,353005.468,357631.283,1,40,,
trial,html.Screen,6_34_0,2023-11-20T19:35:26.750Z,,,,1,1.1388430156686884,1.2700552354887775,,,true,ll,5045.01700007153,response,-1.1346217981791904,1.2,-1.2,-1.1555132168806113,1.2,-1.2,low,low,,ISIC_9939653.JPG,,ISIC_0032771.JPG,,30,true,0.1,ll,keypress(f),0,false,362676.5,362676.3000000715,357614.383,357814,357631.283,362523.946,1,40,35,
sequence,flow.Sequence,6_34,2023-11-20T19:35:26.750Z,,,,,,,,,,,5045.01700007153,completion,,,,,,,low,low,,,,,,,true,,,,,false,362676.60000002384,362676.3000000715,357614.383,357814,357631.283,362523.946,1,40,,
trial,html.Screen,6_35_0,2023-11-20T19:35:31.535Z,,,,1,0.8579451262594331,-0.9633172970727744,,,true,lh,4936.953999976162,response,-0.8092423703106274,1.2,-1.2,1.1870093485714288,1.2,-1.2,low,high,,ISIC_0067172.JPG,,ISIC_8592235.JPG,,27,true,0.42000000000000026,lh,keypress(e),0,false,367461.2000000477,367460.89999997616,362473.99,362676.7000000477,362523.946,367283.244,1,40,36,
sequence,flow.Sequence,6_35,2023-11-20T19:35:31.535Z,,,,,,,,,,,4936.953999976162,completion,,,,,,,low,high,,,,,,,true,,,,,false,367461.5,367460.89999997616,362473.99,362676.7000000477,362523.946,367283.244,1,40,,
trial,html.Screen,6_36_0,2023-11-20T19:35:33.863Z,,,,1,1.0751036484083878,-1.143906455483852,,,true,lh,2505.9560000476777,response,-0.7871162143493278,1.2,-1.2,0.8429329800778957,1.2,-1.2,low,high,,ISIC_0064406.JPG,,ISIC_3439215.JPG,,27,true,0.42000000000000026,lh,keypress(e),0,false,369789.5,369789.2000000477,367250.049,367461.7000000477,367283.244,369604.436,1,40,37,
sequence,flow.Sequence,6_36,2023-11-20T19:35:33.863Z,,,,,,,,,,,2505.9560000476777,completion,,,,,,,low,high,,,,,,,true,,,,,false,369789.60000002384,369789.2000000477,367250.049,367461.60000002384,367283.244,369604.436,1,40,,
trial,html.Screen,6_37_0,2023-11-20T19:35:36.759Z,,,,1,-0.9873794329144926,0.7991077882008257,,,true,hl,3080.7640000476968,response,0.8487429103619056,1.2,-1.2,-0.9778257804233036,1.2,-1.2,high,low,,ISIC_0013498.JPG,,ISIC_4554863.JPG,,26,true,0.3600000000000002,hl,keypress(j),0,false,372685.5,372685.2000000477,369587.983,369789.7000000477,369604.436,372510.084,1,40,38,
sequence,flow.Sequence,6_37,2023-11-20T19:35:36.760Z,,,,,,,,,,,3080.7640000476968,completion,,,,,,,high,low,,,,,,,true,,,,,false,372686,372685.2000000477,369587.983,369789.7000000477,369604.436,372510.084,1,40,,
trial,html.Screen,6_38_0,2023-11-20T19:35:45.519Z,,,,1,-0.7809949855371787,0.8493861117004308,,,true,hl,8935.216000071552,response,0.869932994914832,1.2,-1.2,-0.8880533324432531,1.2,-1.2,high,low,,ISIC_7450481.JPG,,ISIC_8617084.JPG,,33,true,0.42000000000000026,hl,keypress(j),0,false,381445.8000000715,381445.3000000715,372476.915,372686.39999997616,372510.084,381260.46,1,40,39,
sequence,flow.Sequence,6_38,2023-11-20T19:35:45.520Z,,,,,,,,,,,8935.216000071552,completion,,,,,,,high,low,,,,,,,true,,,,,false,381446.3000000715,381445.3000000715,372476.915,372686.2000000477,372510.084,381260.46,1,40,,
trial,html.Screen,6_39_0,2023-11-20T19:35:49.302Z,,,,1,-1.1877026569952844,-1.1604367569896263,,,true,hh,3967.3400000715046,response,0.96885674750163,1.2,-1.2,1.153255258098753,1.2,-1.2,high,high,,ISIC_0064589.JPG,,ISIC_5722914.JPG,,253,true,0.42000000000000026,hh,keypress(i),0,false,385228,385227.8000000715,381243.908,381446.5,381260.46,385034.468,1,40,40,
sequence,flow.Sequence,6_39,2023-11-20T19:35:49.302Z,,,,,,,,,,,3967.3400000715046,completion,,,,,,,high,high,,,,,,,true,,,,,false,385228,385227.8000000715,381243.908,381446.39999997616,381260.46,385034.468,1,40,,
practice_loop,flow.Loop,6,2023-11-20T19:35:49.302Z,,,,,,,,,,,207363.24500007153,completion,,,,,,,,,,,,,,,true,,,,,false,385228.10000002384,385227.8000000715,177797.944,178019.5,177864.555,385034.468,1,40,,
stair_instructions,html.Screen,7,2023-11-20T19:35:52.606Z,,,,,,,,,,,3497.1320000238484,response,,,,,,,,,,,,,,,,,continue,click button,,,388532,388531.60000002384,385017.995,385228.2000000477,385034.468,388357.604,,,,
trial,html.Screen,8_0_0,2023-11-20T19:36:02.046Z,,,,2,0.0159061451859594,0.0296598845560212,,0.05,false,hl,9614.696000071533,response,1.0026266089287914,1.2,-1.2,-1.0913275913920335,1.2,-1.2,high,low,,ISIC_0072564.JPG,,ISIC_0033520.JPG,33,26,false,0.3600000000000002,ll,keypress(f),0,true,397972.39999997616,397972.3000000715,388324.343,388532.2000000477,388357.604,397792.581,1,40,1,
sequence,flow.Sequence,8_0,2023-11-20T19:36:02.046Z,,,,,,,,,,,9614.696000071533,completion,,,,,,,high,low,,,,,,,false,,,,,true,397972.5,397972.3000000715,388324.343,388532.2000000477,388357.604,397792.581,1,40,,
trial,html.Screen,8_1_0,2023-11-20T19:36:05.119Z,,,,2,0.0134764727102299,0.0033499036460912,,0.05,false,lh,3252.9189999999944,response,-0.9388660854518424,1.2,-1.15,0.79533948698576,1.15,-1.15,low,high,,ISIC_0009998.JPG,,ISIC_9291926.JPG,33,27,false,0.3700000000000002,ll,keypress(f),0,true,401045.8000000715,401045.5,397775.941,397972.5,397792.581,400865.441,1,40,2,
sequence,flow.Sequence,8_1,2023-11-20T19:36:05.120Z,,,,,,,,,,,3252.9189999999944,completion,,,,,,,low,high,,,,,,,false,,,,,true,401046.39999997616,401045.5,397775.941,397972.5,397792.581,400865.441,1,40,,
trial,html.Screen,8_2_0,2023-11-20T19:36:08.534Z,,,,2,-0.0389988030702649,-0.0143212271490256,,0.05,false,hh,3594.6590000238502,response,1.0316392011945703,1.15,-1.15,1.1580619988377847,1.15,-1.15,high,high,,ISIC_0064669.JPG,,ISIC_0054206.JPG,33,30,false,0.13,lh,keypress(e),0,true,404460.2000000477,404460.10000002384,400848.553,401046.60000002384,400865.441,404271.894,1,40,3,
sequence,flow.Sequence,8_2,2023-11-20T19:36:08.534Z,,,,,,,,,,,3594.6590000238502,completion,,,,,,,high,high,,,,,,,false,,,,,true,404460.5,404460.10000002384,400848.553,401046.5,400865.441,404271.894,1,40,,
trial,html.Screen,8_3_0,2023-11-20T19:36:20.008Z,,,,2,-0.0027483411352856,-0.0100996915276271,,0.05,false,hh,11661.505999976187,response,1.2706447584800626,1.15,-1.15,1.0903308007916603,1.15,-1.15,high,high,,ISIC_7364041.JPG,,ISIC_9425937.JPG,33,30,false,0.13,hl,keypress(j),0,true,415933.7000000477,415933.39999997616,404255.455,404460.60000002384,404271.894,415760.939,1,40,4,
sequence,flow.Sequence,8_3,2023-11-20T19:36:20.008Z,,,,,,,,,,,11661.505999976187,completion,,,,,,,high,high,,,,,,,false,,,,,true,415934.2000000477,415933.39999997616,404255.455,404460.5,404271.894,415760.939,1,40,,
trial,html.Screen,8_4_0,2023-11-20T19:36:22.865Z,,,,2,-0.0027483411352856,-0.0100996915276271,,0.05,false,lh,3029.7610000476707,response,-1.4092385398614515,1.15,-1.15,1.3046237992197836,1.15,-1.15,low,high,,ISIC_7364041.JPG,,ISIC_7254359.JPG,33,27,false,0.3700000000000002,ll,keypress(f),0,true,418790.8000000715,418790.7000000477,415727.674,415934.5,415760.939,418616.495,1,40,5,
sequence,flow.Sequence,8_4,2023-11-20T19:36:22.865Z,,,,,,,,,,,3029.7610000476707,completion,,,,,,,low,high,,,,,,,false,,,,,true,418791,418790.7000000477,415727.674,415934.39999997616,415760.939,418616.495,1,40,,
trial,html.Screen,8_5_0,2023-11-20T19:36:28.871Z,,,,2,-0.0085520978188085,0.0464691161264081,,0.05,false,lh,6180.80500007153,response,-1.4092385398614515,1.15,-1.0999999999999999,1.3046237992197836,1.15,-1.15,low,high,,ISIC_0758797.JPG,,ISIC_7254359.JPG,33,28,false,0.3600000000000002,hl,keypress(j),0,true,424797.60000002384,424797.3000000715,418583.286,418791.10000002384,418616.495,424611.524,1,40,6,
sequence,flow.Sequence,8_5,2023-11-20T19:36:28.872Z,,,,,,,,,,,6180.80500007153,completion,,,,,,,low,high,,,,,,,false,,,,,true,424798,424797.3000000715,418583.286,418791,418616.495,424611.524,1,40,,
trial,html.Screen,8_6_0,2023-11-20T19:36:37.560Z,,,,2,0.0245376145053177,-0.0436993426328401,,0.05,true,hh,8874.076000023866,response,1.131522954199764,1.15,-1.15,1.1047184491749509,1.15,-1.15,high,high,,ISIC_0056444.JPG,,ISIC_1868816.JPG,33,30,false,0.13,hh,keypress(i),0,true,433485.89999997616,433485.60000002384,424594.994,424798.2000000477,424611.524,433295.079,1,40,7,
sequence,flow.Sequence,8_6,2023-11-20T19:36:37.560Z,,,,,,,,,,,8874.076000023866,completion,,,,,,,high,high,,,,,,,false,,,,,true,433486.5,433485.60000002384,424594.994,424798.2000000477,424611.524,433295.079,1,40,,
trial,html.Screen,8_7_0,2023-11-20T19:36:42.216Z,,,,2,0.0159061451859594,0.0296598845560212,,0.05,true,ll,4846.420999999973,response,-1.188743606919222,1.0681207016873573,-1.15,-1.0980226451001782,1.15,-1.15,low,low,,ISIC_0072564.JPG,,ISIC_0060481.JPG,33,27,false,0.1,ll,keypress(f),0,true,438141.8000000715,438141.5,433278.533,433486.8000000715,433295.079,437954.152,1,40,8,
sequence,flow.Sequence,8_7,2023-11-20T19:36:42.216Z,,,,,,,,,,,4846.420999999973,completion,,,,,,,low,low,,,,,,,false,,,,,true,438142.39999997616,438141.5,433278.533,433486.7000000477,433295.079,437954.152,1,40,,
trial,html.Screen,8_8_0,2023-11-20T19:36:44.976Z,,,,2,0.0097091270150747,-0.0417921315885292,,0.05,true,ll,2947.347999999998,response,-1.2493792664822851,1.0681207016873573,-1.15,-1.1336008561684745,1.15,-1.0933831260097,low,low,,ISIC_3967213.JPG,,ISIC_0061475.JPG,33,32,false,0.1,ll,keypress(f),0,true,440901.89999997616,440901.5,437937.671,438142.7000000477,437954.152,440709.506,1,40,9,
sequence,flow.Sequence,8_8,2023-11-20T19:36:44.976Z,,,,,,,,,,,2947.347999999998,completion,,,,,,,low,low,,,,,,,false,,,,,true,440902.5,440901.5,437937.671,438142.60000002384,437954.152,440709.506,1,40,,
trial,html.Screen,8_9_0,2023-11-20T19:36:48.976Z,,,,2,0.0159061451859594,0.0296598845560212,,0.05,false,hl,4192.294000071532,response,0.8179805381029407,1.0681207016873573,-1.1414900613253798,-0.8578467162767749,1.15,-1.0933831260097,high,low,,ISIC_0072564.JPG,,ISIC_0067253.JPG,33,25,false,0.2600000000000001,ll,keypress(f),0,true,444902.2000000477,444901.8000000715,440692.973,440902.7000000477,440709.506,444717.292,1,40,10,
sequence,flow.Sequence,8_9,2023-11-20T19:36:48.977Z,,,,,,,,,,,4192.294000071532,completion,,,,,,,high,low,,,,,,,false,,,,,true,444902.7000000477,444901.8000000715,440692.973,440902.60000002384,440709.506,444717.292,1,40,,
trial,html.Screen,8_10_0,2023-11-20T19:36:53.336Z,,,,2,-0.0363437082783146,-0.0333332186217051,,0.05,true,hh,4544.207999999984,response,1.1388430156686884,1.1181207016873573,-1.1414900613253798,1.2700552354887775,1.15,-0.9457237862226247,high,high,,ISIC_3314555.JPG,,ISIC_9939653.JPG,33,28,false,0.13,hh,keypress(i),0,true,449261.8000000715,449261.5,444700.791,444903,444717.292,449075.869,1,40,11,
sequence,flow.Sequence,8_10,2023-11-20T19:36:53.336Z,,,,,,,,,,,4544.207999999984,completion,,,,,,,high,high,,,,,,,false,,,,,true,449262.3000000715,449261.5,444700.791,444902.89999997616,444717.292,449075.869,1,40,,
trial,html.Screen,8_11_0,2023-11-20T19:36:57.350Z,,,,2,-0.0456515796420274,0.0273567130070961,,0.05,true,ll,4200.331000047678,response,-1.1254252603792554,1.1181207016873573,-1.1414900613253798,-1.0263116781284176,1.154449125578733,-0.9457237862226247,low,low,,ISIC_0068610.JPG,,ISIC_0032420.JPG,33,29,false,0.1,ll,keypress(f),0,true,453276.3000000715,453276.2000000477,449059.053,449262.39999997616,449075.869,453083.6,1,40,12,
sequence,flow.Sequence,8_11,2023-11-20T19:36:57.350Z,,,,,,,,,,,4200.331000047678,completion,,,,,,,low,low,,,,,,,false,,,,,true,453276.39999997616,453276.2000000477,449059.053,449262.3000000715,449075.869,453083.6,1,40,,
trial,html.Screen,8_12_0,2023-11-20T19:37:01.544Z,,,,2,0.0159061451859594,0.0296598845560212,,0.05,true,hl,4386.200000071549,response,0.991282840649944,1.1181207016873573,-1.1414900613253798,-0.9397921099839784,1.154449125578733,-0.9457237862226247,high,low,,ISIC_0072564.JPG,,ISIC_0000463.JPG,33,27,false,0.2400000000000001,hl,keypress(j),0,true,457470.10000002384,457469.8000000715,453067.002,453276.60000002384,453083.6,457275.159,1,40,13,
sequence,flow.Sequence,8_12,2023-11-20T19:37:01.544Z,,,,,,,,,,,4386.200000071549,completion,,,,,,,high,low,,,,,,,false,,,,,true,457470.7000000477,457469.8000000715,453067.002,453276.60000002384,453083.6,457275.159,1,40,,
trial,html.Screen,8_13_0,2023-11-20T19:37:07.455Z,,,,2,-0.0070725527271049,-0.0049995141077508,,0.05,false,hl,6106.1410000715405,response,1.2075172235545184,1.0681207016873573,-1.1414900613253798,-0.9116724966267612,1.154449125578733,-0.933051894056198,high,low,,ISIC_6124481.JPG,,ISIC_0024235.JPG,33,26,false,0.21000000000000008,hh,keypress(i),0,true,463381.5,463381.3000000715,457258.618,457470.89999997616,457275.159,463186.671,1,40,14,
sequence,flow.Sequence,8_13,2023-11-20T19:37:07.456Z,,,,,,,,,,,6106.1410000715405,completion,,,,,,,high,low,,,,,,,false,,,,,true,463382,463381.3000000715,457258.618,457470.8000000715,457275.159,463186.671,1,40,,
trial,html.Screen,8_14_0,2023-11-20T19:37:09.832Z,,,,2,-0.039728379742806,0.0228701131373768,,0.05,true,ll,2570.6290000715526,response,-1.0491289899026992,1.0681207016873573,-1.1414900613253798,-1.058683139801412,1.154449125578733,-0.9830518940561981,low,low,,ISIC_0054073.JPG,,ISIC_0010866.JPG,33,27,false,0.1,ll,keypress(f),0,true,465757.7000000477,465757.3000000715,463169.858,463382.2000000477,463186.671,465574.574,1,40,15,
sequence,flow.Sequence,8_14,2023-11-20T19:37:09.832Z,,,,,,,,,,,2570.6290000715526,completion,,,,,,,low,low,,,,,,,false,,,,,true,465758.2000000477,465757.3000000715,463169.858,463382.2000000477,463186.671,465574.574,1,40,,
trial,html.Screen,8_15_0,2023-11-20T19:37:16.712Z,,,,2,-0.0324770283903853,-0.0249968632204382,,0.05,true,lh,7063.126000047661,response,-0.8947611078712571,1.0681207016873573,-1.0039060648520557,0.8960964505004638,1.154449125578733,-0.9830518940561981,low,high,,ISIC_7266462.JPG,,ISIC_6441128.JPG,33,25,false,0.3300000000000002,lh,keypress(e),0,true,472638,472637.7000000477,465558.006,465758.39999997616,465574.574,472454.633,1,40,16,
sequence,flow.Sequence,8_15,2023-11-20T19:37:16.712Z,,,,,,,,,,,7063.126000047661,completion,,,,,,,low,high,,,,,,,false,,,,,true,472638.5,472637.7000000477,465558.006,465758.39999997616,465574.574,472454.633,1,40,,
trial,html.Screen,8_16_0,2023-11-20T19:37:23.376Z,,,,2,-0.0107854985447517,-0.0478010417136109,,0.05,true,lh,6846.667000071553,response,-1.0264463986917702,1.0681207016873573,-1.0039060648520557,1.2804054832904397,1.154449125578733,-0.9830518940561981,low,high,,ISIC_0010500.JPG,,ISIC_7889838.JPG,33,25,false,0.3300000000000002,lh,keypress(e),0,true,479301.60000002384,479301.3000000715,472438.114,472638.8000000715,472454.633,479117.68,1,40,17,
sequence,flow.Sequence,8_16,2023-11-20T19:37:23.376Z,,,,,,,,,,,6846.667000071553,completion,,,,,,,low,high,,,,,,,false,,,,,true,479302.10000002384,479301.3000000715,472438.114,472638.7000000477,472454.633,479117.68,1,40,,
trial,html.Screen,8_17_0,2023-11-20T19:37:29.632Z,,,,2,-0.0456515796420274,0.0273567130070961,,0.05,true,ll,6439.820000000007,response,-1.007567553886196,1.0681207016873573,-0.9539060648520556,-0.9379731610733476,1.0382509668954516,-0.9830518940561981,low,low,,ISIC_0068610.JPG,,ISIC_0030824.JPG,33,44,false,0.1,ll,keypress(f),0,true,485557.8000000715,485557.5,479101.083,479302.3000000715,479117.68,485363.172,1,40,18,
sequence,flow.Sequence,8_17,2023-11-20T19:37:29.633Z,,,,,,,,,,,6439.820000000007,completion,,,,,,,low,low,,,,,,,false,,,,,true,485558.3000000715,485557.5,479101.083,479302.2000000477,479117.68,485363.172,1,40,,
trial,html.Screen,8_18_0,2023-11-20T19:37:32.822Z,,,,2,0.0102460616775615,-0.0309670599545429,,0.05,true,hh,3384.8279999999795,response,1.0769490291795207,1.0681207016873573,-0.9539060648520556,1.0174515954885954,1.0382509668954516,-0.9227703574797717,high,high,,ISIC_0072041.JPG,,ISIC_0028135.JPG,33,28,false,0.1,hh,keypress(i),0,true,488748.10000002384,488748,485346.536,485558.5,485363.172,488552.624,1,40,19,
sequence,flow.Sequence,8_18,2023-11-20T19:37:32.823Z,,,,,,,,,,,3384.8279999999795,completion,,,,,,,high,high,,,,,,,false,,,,,true,488748.39999997616,488748,485346.536,485558.39999997616,485363.172,488552.624,1,40,,
trial,html.Screen,8_19_0,2023-11-20T19:37:36.054Z,,,,2,-0.0050679133050021,0.0009714874637896,,0.05,false,hh,3427.3759999999893,response,0.9449111496440944,0.997200312334058,-0.9539060648520556,1.0105459531634893,1.0382509668954516,-0.9227703574797717,high,high,,ISIC_9848743.JPG,,ISIC_0679494.JPG,33,35,false,0.1,hl,keypress(j),0,true,491980.2000000477,491980,488536.17,488748.39999997616,488552.624,491792.3,1,40,20,
sequence,flow.Sequence,8_19,2023-11-20T19:37:36.055Z,,,,,,,,,,,3427.3759999999893,completion,,,,,,,high,high,,,,,,,false,,,,,true,491980.39999997616,491980,488536.17,488748.39999997616,488552.624,491792.3,1,40,,
trial,html.Screen,8_20_0,2023-11-20T19:37:41.912Z,,,,2,-0.0389988030702649,-0.0143212271490256,,0.05,false,lh,6045.400000047695,response,-0.7118141631588264,0.997200312334058,-0.9539060648520556,1.0369885917487718,1.0882509668954516,-0.9227703574797717,low,high,,ISIC_0064669.JPG,,ISIC_6917681.JPG,33,25,false,0.28000000000000014,ll,keypress(f),0,true,497838,497837.7000000477,491775.786,491980.5,491792.3,497653.687,1,40,21,
sequence,flow.Sequence,8_20,2023-11-20T19:37:41.913Z,,,,,,,,,,,6045.400000047695,completion,,,,,,,low,high,,,,,,,false,,,,,true,497838.5,497837.7000000477,491775.786,491980.39999997616,491792.3,497653.687,1,40,,
trial,html.Screen,8_21_0,2023-11-20T19:37:46.192Z,,,,2,0.0097091270150747,-0.0417921315885292,,0.05,true,ll,4463.813000000024,response,-1.00170887975541,0.997200312334058,-0.9039060648520556,-0.8949188450526304,1.1382509668954517,-0.9227703574797717,low,low,,ISIC_3967213.JPG,,ISIC_0057067.JPG,33,42,false,0.1,ll,keypress(f),0,true,502117.8000000715,502117.5,497636.914,497838.8000000715,497653.687,501928.673,1,40,22,
sequence,flow.Sequence,8_21,2023-11-20T19:37:46.193Z,,,,,,,,,,,4463.813000000024,completion,,,,,,,low,low,,,,,,,false,,,,,true,502118.3000000715,502117.5,497636.914,497838.7000000477,497653.687,501928.673,1,40,,
trial,html.Screen,8_22_0,2023-11-20T19:37:49.216Z,,,,2,-0.0070725527271049,-0.0049995141077508,,0.05,true,ll,3212.82699999999,response,-1.0022982145596024,0.997200312334058,-0.9039060648520556,-0.9703352077282876,1.1382509668954517,-0.9227703574797717,low,low,,ISIC_6124481.JPG,,ISIC_0011930.JPG,33,42,false,0.1,ll,keypress(f),0,true,505141.8000000715,505141.5,501911.953,502118.60000002384,501928.673,504951.202,1,40,23,
sequence,flow.Sequence,8_22,2023-11-20T19:37:49.217Z,,,,,,,,,,,3212.82699999999,completion,,,,,,,low,low,,,,,,,false,,,,,true,505142.3000000715,505141.5,501911.953,502118.60000002384,501928.673,504951.202,1,40,,
trial,html.Screen,8_23_0,2023-11-20T19:37:57.920Z,,,,2,-0.0450282431170921,0,,0.05,false,lh,8894.598000071535,response,-0.6386144741600837,0.997200312334058,-0.882627026390459,0.9535552759852256,1.1382509668954517,-0.882627026390459,low,high,,ISIC_1805163.JPG,,ISIC_1744817.JPG,33,26,false,0.2500000000000001,ll,keypress(f),0,true,513846.10000002384,513845.8000000715,504934.708,505142.60000002384,504951.202,513651.491,1,40,24,
sequence,flow.Sequence,8_23,2023-11-20T19:37:57.921Z,,,,,,,,,,,8894.598000071535,completion,,,,,,,low,high,,,,,,,false,,,,,true,513846.60000002384,513845.8000000715,504934.708,505142.5,504951.202,513651.491,1,40,,
trial,html.Screen,8_24_0,2023-11-20T19:38:01.568Z,,,,2,0.0348234368746005,-0.0236866303880924,,0.05,false,hl,3841.609000023862,response,1.1097716037944447,0.997200312334058,-0.882627026390459,-0.726994437314983,1.1882509668954517,-0.882627026390459,high,low,,ISIC_0011099.JPG,,ISIC_0000139.JPG,33,26,false,0.18000000000000005,lh,keypress(e),0,true,517493.5,517493.10000002384,513634.935,513846.89999997616,513651.491,517308.611,1,40,25,
sequence,flow.Sequence,8_24,2023-11-20T19:38:01.568Z,,,,,,,,,,,3841.609000023862,completion,,,,,,,high,low,,,,,,,false,,,,,true,517494,517493.10000002384,513634.935,513846.8000000715,513651.491,517308.611,1,40,,
trial,html.Screen,8_25_0,2023-11-20T19:38:10.080Z,,,,2,-0.0069555338059566,0.0310100918136373,,0.05,false,hl,8697.18900007155,response,1.2075172235545184,1.047200312334058,-0.882627026390459,-0.9116724966267612,1.1882509668954517,-0.932627026390459,high,low,,ISIC_0011177.JPG,,ISIC_0024235.JPG,33,27,false,0.20000000000000007,hh,keypress(i),0,true,526006.1000000238,526005.8000000715,517292.085,517494.2000000477,517308.611,525825.187,1,40,26,
sequence,flow.Sequence,8_25,2023-11-20T19:38:10.081Z,,,,,,,,,,,8697.18900007155,completion,,,,,,,high,low,,,,,,,false,,,,,true,526006.7000000477,526005.8000000715,517292.085,517494.2000000477,517308.611,525825.187,1,40,,
trial,html.Screen,8_26_0,2023-11-20T19:38:17.008Z,,,,2,-0.0450282431170921,0,,0.05,false,hl,7108.3129999999655,response,0.9696118525781644,1.047200312334058,-0.882627026390459,-0.9244148283103414,1.1882509668954517,-0.9826270263904591,high,low,,ISIC_1805163.JPG,,ISIC_7927525.JPG,33,25,false,0.21000000000000008,ll,keypress(f),0,true,532933.8999999762,532933.5,525808.506,526006.8999999762,525825.187,532772.043,1,40,27,
sequence,flow.Sequence,8_26,2023-11-20T19:38:17.009Z,,,,,,,,,,,7108.3129999999655,completion,,,,,,,high,low,,,,,,,false,,,,,true,532934.5,532933.5,525808.506,526006.8000000715,525825.187,532772.043,1,40,,
trial,html.Screen,8_27_0,2023-11-20T19:38:23.255Z,,,,2,-0.0324770283903853,-0.0249968632204382,,0.05,true,hl,6407.957000000053,response,0.8809306963311293,1.0972003123340581,-0.882627026390459,-0.8614910030038974,1.1882509668954517,-0.9826270263904591,high,low,,ISIC_7266462.JPG,,ISIC_0013731.JPG,33,27,false,0.2400000000000001,hl,keypress(j),0,true,539180.1000000238,539180,532721.897,532934.7000000477,532772.043,539000.839,1,40,28,
sequence,flow.Sequence,8_27,2023-11-20T19:38:23.255Z,,,,,,,,,,,6407.957000000053,completion,,,,,,,high,low,,,,,,,false,,,,,true,539180.2000000477,539180,532721.897,532934.6000000238,532772.043,539000.839,1,40,,
trial,html.Screen,8_28_0,2023-11-20T19:38:31.296Z,,,,2,-0.0450282431170921,0,,0.05,false,lh,8220.660999999964,response,-0.7197989269080959,1.0972003123340581,-0.882627026390459,0.9410141415297968,1.1882509668954517,-0.932627026390459,low,high,,ISIC_1805163.JPG,,ISIC_2635051.JPG,33,25,false,0.27000000000000013,hl,keypress(j),0,true,547221.8000000715,547221.5,538967.516,539180.3000000715,539000.839,547033.141,1,40,29,
sequence,flow.Sequence,8_28,2023-11-20T19:38:31.297Z,,,,,,,,,,,8220.660999999964,completion,,,,,,,low,high,,,,,,,false,,,,,true,547222.3000000715,547221.5,538967.516,539180.3000000715,539000.839,547033.141,1,40,,
trial,html.Screen,8_29_0,2023-11-20T19:38:38.337Z,,,,2,-0.0217698886732706,0.0410870915161425,,0.05,false,hh,7228.559000047739,response,1.0789197754694622,1.0972003123340581,-0.932627026390459,1.1654690806750023,1.1882509668954517,-0.932627026390459,high,high,,ISIC_0072173.JPG,,ISIC_1576437.JPG,33,28,false,0.13,hl,keypress(j),0,true,554262,554261.7000000477,547016.518,547222.6000000238,547033.141,554080.189,1,40,30,
sequence,flow.Sequence,8_29,2023-11-20T19:38:38.337Z,,,,,,,,,,,7228.559000047739,completion,,,,,,,high,high,,,,,,,false,,,,,true,554262.5,554261.7000000477,547016.518,547222.5,547033.141,554080.189,1,40,,
trial,html.Screen,8_30_0,2023-11-20T19:38:42.968Z,,,,2,0.0277178575053843,-0.0395587463147856,,0.05,false,lh,4813.411000023829,response,-0.7723849213858904,0.9299252359002956,-0.932627026390459,0.888372424147899,1.1882509668954517,-0.932627026390459,low,high,,ISIC_0010807.JPG,,ISIC_3884221.JPG,33,26,false,0.30000000000000016,ll,keypress(f),0,true,558893.8999999762,558893.6000000238,554063.53,554262.8000000715,554080.189,558705.819,1,40,31,
sequence,flow.Sequence,8_30,2023-11-20T19:38:42.969Z,,,,,,,,,,,4813.411000023829,completion,,,,,,,low,high,,,,,,,false,,,,,true,558894.3999999762,558893.6000000238,554063.53,554262.7000000477,554080.189,558705.819,1,40,,
trial,html.Screen,8_31_0,2023-11-20T19:38:48.264Z,,,,2,0,0.0264544974620926,,0.05,false,hh,5483.680999999982,response,0.8826131775592696,0.9299252359002956,-0.932627026390459,1.1197820736747437,1.1882509668954517,-0.932627026390459,high,high,,ISIC_0056991.JPG,,ISIC_7137995.JPG,33,31,false,0.12,hl,keypress(j),0,true,564189.8000000715,564189.5,558689.238,558894.6000000238,558705.819,564016.214,1,40,32,
sequence,flow.Sequence,8_31,2023-11-20T19:38:48.265Z,,,,,,,,,,,5483.680999999982,completion,,,,,,,high,high,,,,,,,false,,,,,true,564190.3000000715,564189.5,558689.238,558894.6000000238,558705.819,564016.214,1,40,,
trial,html.Screen,8_32_0,2023-11-20T19:38:58.135Z,,,,2,-0.007397293189458,-0.0174716772037504,,0.05,false,hh,10044.285999999964,response,0.8552639039862626,0.9299252359002956,-0.932627026390459,1.0982314620989122,1.1882509668954517,-0.932627026390459,high,high,,ISIC_0056226.JPG,,ISIC_0026278.JPG,33,31,false,0.12,hl,keypress(j),0,true,574060.6000000238,574060.5,563982.762,564190.6000000238,564016.214,573868.719,1,40,33,
sequence,flow.Sequence,8_32,2023-11-20T19:38:58.135Z,,,,,,,,,,,10044.285999999964,completion,,,,,,,high,high,,,,,,,false,,,,,true,574060.8000000715,574060.5,563982.762,564190.5,564016.214,573868.719,1,40,,
trial,html.Screen,8_33_0,2023-11-20T19:39:00.143Z,,,,2,-0.0085520978188085,0.0464691161264081,,0.05,true,ll,2199.680999976117,response,-0.9991183219041097,0.8189385407727661,-0.932627026390459,-1.0098382533872188,1.1882509668954517,-0.932627026390459,low,low,,ISIC_0758797.JPG,,ISIC_0010415.JPG,33,40,false,0.1,ll,keypress(f),0,true,576068.5,576068.3999999762,573851.998,574060.8999999762,573868.719,575872.615,1,40,34,
sequence,flow.Sequence,8_33,2023-11-20T19:39:00.143Z,,,,,,,,,,,2199.680999976117,completion,,,,,,,low,low,,,,,,,false,,,,,true,576068.7000000477,576068.3999999762,573851.998,574060.8999999762,573868.719,575872.615,1,40,,
trial,html.Screen,8_34_0,2023-11-20T19:39:09.297Z,,,,2,-0.0456515796420274,0.0273567130070961,,0.05,false,ll,9348.985000023851,response,-0.9185517403328254,0.8189385407727661,-0.9544782876456641,-0.9975299101285906,1.1882509668954517,-0.932627026390459,low,low,,ISIC_0068610.JPG,,ISIC_0011130.JPG,33,37,false,0.1,lh,keypress(e),0,true,585221.8999999762,585221.6000000238,575855.992,576068.8999999762,575872.615,585040.452,1,40,35,
sequence,flow.Sequence,8_34,2023-11-20T19:39:09.297Z,,,,,,,,,,,9348.985000023851,completion,,,,,,,low,low,,,,,,,false,,,,,true,585222.5,585221.6000000238,575855.992,576068.8999999762,575872.615,585040.452,1,40,,
trial,html.Screen,8_35_0,2023-11-20T19:39:12.768Z,,,,2,-0.0069555338059566,0.0310100918136373,,0.05,false,hl,3652.848000071477,response,0.879102500583965,0.8189385407727661,-0.9544782876456641,-1.0933081951979773,1.1882509668954517,-0.9826270263904591,high,low,,ISIC_0011177.JPG,,ISIC_0046223.JPG,33,25,false,0.17000000000000004,lh,keypress(e),0,true,588693.7000000477,588693.3000000715,585023.833,585222.8000000715,585040.452,588514.871,1,40,36,
sequence,flow.Sequence,8_35,2023-11-20T19:39:12.769Z,,,,,,,,,,,3652.848000071477,completion,,,,,,,high,low,,,,,,,false,,,,,true,588694.2000000477,588693.3000000715,585023.833,585222.8000000715,585040.452,588514.871,1,40,,
trial,html.Screen,8_36_0,2023-11-20T19:39:18.809Z,,,,2,0.013431314305098,-0.0140597582944232,,0.05,false,lh,6218.628999999957,response,-0.8947611078712571,0.8689385407727661,-0.9544782876456641,0.8960964505004638,1.1882509668954517,-1.0326270263904591,low,high,,ISIC_0069617.JPG,,ISIC_6441128.JPG,33,26,false,0.3200000000000002,hl,keypress(j),0,true,594733.8000000715,594733.5,588480.701,588694.5,588514.871,594542.277,1,40,37,
sequence,flow.Sequence,8_36,2023-11-20T19:39:18.809Z,,,,,,,,,,,6218.628999999957,completion,,,,,,,low,high,,,,,,,false,,,,,true,594734.3000000715,594733.5,588480.701,588694.5,588514.871,594542.277,1,40,,
trial,html.Screen,8_37_0,2023-11-20T19:39:22.913Z,,,,2,-0.0085520978188085,0.0464691161264081,,0.05,true,hh,4295.523000071524,response,0.8755959065262388,0.8689385407727661,-1.0044782876456642,1.093284184366194,1.1882509668954517,-1.0326270263904591,high,high,,ISIC_0758797.JPG,,ISIC_8096177.JPG,33,28,false,0.1,hh,keypress(i),0,true,598838.1000000238,598837.8000000715,594525.727,594734.5,594542.277,598650.284,1,40,38,
sequence,flow.Sequence,8_37,2023-11-20T19:39:22.914Z,,,,,,,,,,,4295.523000071524,completion,,,,,,,high,high,,,,,,,false,,,,,true,598838.7000000477,598837.8000000715,594525.727,594734.3999999762,594542.277,598650.284,1,40,,
trial,html.Screen,8_38_0,2023-11-20T19:39:28.577Z,,,,2,-0.0456515796420274,0.0273567130070961,,0.05,false,ll,5851.0160000715405,response,-1.0005520482328611,0.8689385407727661,-1.0044782876456642,-1.0694936015783003,1.1882509668954517,-1.0326270263904591,low,low,,ISIC_0068610.JPG,,ISIC_0059891.JPG,33,40,false,0.1,hl,keypress(j),0,true,604501.6000000238,604501.3000000715,598633.588,598838.8999999762,598650.284,604311.275,1,40,39,
sequence,flow.Sequence,8_38,2023-11-20T19:39:28.577Z,,,,,,,,,,,5851.0160000715405,completion,,,,,,,low,low,,,,,,,false,,,,,true,604502.2000000477,604501.3000000715,598633.588,598838.8000000715,598650.284,604311.275,1,40,,
trial,html.Screen,8_39_0,2023-11-20T19:39:34.305Z,,,,2,0.0409338693593207,-0.0072462710499874,,0.05,true,hl,5918.224999999977,response,0.879102500583965,0.8689385407727661,-1.0544782876456642,-1.0933081951979773,1.1882509668954517,-1.0326270263904591,high,low,,ISIC_3608788.JPG,,ISIC_0046223.JPG,33,28,false,0.18000000000000005,hl,keypress(j),0,true,610229.8000000715,610229.5,604294.773,604502.5,604311.275,610039.111,1,40,40,
sequence,flow.Sequence,8_39,2023-11-20T19:39:34.305Z,,,,,,,,,,,5918.224999999977,completion,,,,,,,high,low,,,,,,,false,,,,,true,610230.3999999762,610229.5,604294.773,604502.3999999762,604311.275,610039.111,1,40,,
stair_loop,flow.Loop,8,2023-11-20T19:39:34.306Z,,,,,,,,,,,221871.896,completion,,,,,,,,,,,,,,,false,,,,,true,610230.7000000477,610229.5,388324.343,388532.2000000477,388357.604,610039.111,1,40,,
exp_instructions,html.Screen,9,2023-11-20T19:39:40.704Z,,,,,,,,,,,6589.189000071492,response,,,,,,,,,,,,,,,,,continue,keypress(Space),,,616629.1000000238,616628.3000000715,610022.587,610230.8000000715,610039.111,616451.599,,,,
trial,html.Screen,10_0_0,2023-11-20T19:39:49.767Z,,,,1,-0.0363437082783146,-0.0333332186217051,,0.05,false,lh,9240.300999976113,response,-0.8655167308525522,0.9547174308225417,-0.9323742605362602,0.9298580423306444,1.1757509668954522,-0.9536485260538559,low,high,,ISIC_3314555.JPG,8,ISIC_4603706.JPG,33,26,false,0.30000000000000016,hl,keypress(j),0,false,625691.8999999762,625691.8999999762,616418.354,616629.6000000238,616451.599,625502.545,5,600,1,
break,html.Screen,10_0_1,2023-11-20T19:39:49.767Z,,,,,,,,,,,NaN,,,,,,,,low,high,,,,,,,false,,,,,false,625692.3999999762,625692.3000000715,,625692.1000000238,,625502.545,5,600,,
break_continue,html.Screen,10_0_2,2023-11-20T19:39:49.768Z,,,,,,,,,,,NaN,,,,,,,,low,high,,,,,,,false,,,,,false,625692.7000000477,625692.6000000238,,625692.5,,625502.545,5,600,,
sequence,flow.Sequence,10_0,2023-11-20T19:39:49.768Z,,,,,,,,,,,9241.001000023796,completion,,,,,,,low,high,,,,,,,false,,,,,false,625692.8000000715,625692.6000000238,616418.354,616629.3999999762,616451.599,625502.545,5,600,,
trial,html.Screen,10_1_0,2023-11-20T19:39:57.457Z,,,,1,-0.0050679133050021,0.0009714874637896,,0.05,true,hh,7878.954999999958,response,0.8985413691921805,0.9547174308225417,-0.9323742605362602,1.1177351920180405,1.1757509668954522,-0.9536485260538559,high,high,,ISIC_9848743.JPG,9,ISIC_2805573.JPG,33,28,false,0.12,hh,keypress(i),0,false,633381.8000000715,633381.5,625485.899,625692.8000000715,625502.545,633217.827,5,600,2,
break,html.Screen,10_1_1,2023-11-20T19:39:57.458Z,,,,,,,,,,,NaN,,,,,,,,high,high,,,,,,,false,,,,,false,633383.1000000238,633382.6000000238,,633382.2000000477,,633217.827,5,600,,
break_continue,html.Screen,10_1_2,2023-11-20T19:39:57.459Z,,,,,,,,,,,NaN,,,,,,,,high,high,,,,,,,false,,,,,false,633383.8000000715,633383.6000000238,,633383.3000000715,,633217.827,5,600,,
sequence,flow.Sequence,10_1,2023-11-20T19:39:57.459Z,,,,,,,,,,,7881.0550000238,completion,,,,,,,high,high,,,,,,,false,,,,,false,633384.2000000477,633383.6000000238,625485.899,625692.8000000715,625502.545,633217.827,5,600,,
trial,html.Screen,10_2_0,2023-11-20T19:40:05.368Z,,,,1,-0.0324770283903853,-0.0249968632204382,,0.05,true,ll,8074.672999999952,response,-1.0022982145596024,0.9547174308225417,-0.9323742605362602,-0.9703352077282876,1.1757509668954522,-0.9536485260538559,low,low,,ISIC_7266462.JPG,9,ISIC_0011930.JPG,33,41,false,0.1,ll,keypress(f),0,false,641292.5,641292.5,633201.086,633384.3000000715,633217.827,641099.568,5,600,3,
break,html.Screen,10_2_1,2023-11-20T19:40:05.368Z,,,,,,,,,,,NaN,,,,,,,,low,low,,,,,,,false,,,,,false,641293,641292.8999999762,,641292.7000000477,,641099.568,5,600,,
break_continue,html.Screen,10_2_2,2023-11-20T19:40:05.368Z,,,,,,,,,,,NaN,,,,,,,,low,low,,,,,,,false,,,,,false,641293.3000000715,641293.2000000477,,641293.1000000238,,641099.568,5,600,,
sequence,flow.Sequence,10_2,2023-11-20T19:40:05.368Z,,,,,,,,,,,8075.373000047635,completion,,,,,,,low,low,,,,,,,false,,,,,false,641293.3999999762,641293.2000000477,633201.086,633384.3000000715,633217.827,641099.568,5,600,,
trial,html.Screen,10_3_0,2023-11-20T19:40:11.777Z,,,,1,0.0188047466661863,-0.0288346930436979,,0.05,false,hh,6601.831999976188,response,0.9859190680307316,0.9547174308225417,-0.9323742605362602,1.0904756837966545,1.1757509668954522,-0.9536485260538559,high,high,,ISIC_0014157.JPG,9,ISIC_0063151.JPG,33,28,false,0.12,lh,keypress(e),0,false,647701.8000000715,647701.3999999762,641082.976,641293.5,641099.568,647512.055,5,600,4,
break,html.Screen,10_3_1,2023-11-20T19:40:11.778Z,,,,,,,,,,,NaN,,,,,,,,high,high,,,,,,,false,,,,,false,647703,647702.7000000477,,647702.1000000238,,647512.055,5,600,,
break_continue,html.Screen,10_3_2,2023-11-20T19:40:11.779Z,,,,,,,,,,,NaN,,,,,,,,high,high,,,,,,,false,,,,,false,647703.8000000715,647703.6000000238,,647703.2000000477,,647512.055,5,600,,
sequence,flow.Sequence,10_3,2023-11-20T19:40:11.779Z,,,,,,,,,,,6604.032000023872,completion,,,,,,,high,high,,,,,,,false,,,,,false,647704.1000000238,647703.6000000238,641082.976,641293.5,641099.568,647512.055,5,600,,
trial,html.Screen,10_4_0,2023-11-20T19:40:15.937Z,,,,1,-0.0116094682222121,0.0258434522530318,,0.05,false,ll,4349.745000071474,response,-0.943978570218156,0.9547174308225417,-0.9323742605362602,-0.9420387258741144,1.1757509668954522,-0.9536485260538559,low,low,,ISIC_9239632.JPG,8,ISIC_0011642.JPG,33,41,false,0.1,hh,keypress(i),0,false,651862.1000000238,651861.8000000715,647495.578,647704.3999999762,647512.055,651670.144,5,600,5,
break,html.Screen,10_4_1,2023-11-20T19:40:15.938Z,,,,,,,,,,,NaN,,,,,,,,low,low,,,,,,,false,,,,,false,651863.3000000715,651863,,651862.5,,651670.144,5,600,,
break_continue,html.Screen,10_4_2,2023-11-20T19:40:15.939Z,,,,,,,,,,,NaN,,,,,,,,low,low,,,,,,,false,,,,,false,651864.1000000238,651863.8999999762,,651863.5,,651670.144,5,600,,
sequence,flow.Sequence,10_4,2023-11-20T19:40:15.939Z,,,,,,,,,,,4351.844999976107,completion,,,,,,,low,low,,,,,,,false,,,,,false,651864.5,651863.8999999762,647495.578,647704.3000000715,647512.055,651670.144,5,600,,
trial,html.Screen,10_5_0,2023-11-20T19:40:20.721Z,,,,1,0.000047919190197942736,0.0462652940855003,,0.05,true,hl,4975.356000000029,response,0.9696118525781644,0.9547174308225417,-0.9323742605362602,-0.9244148283103414,1.1757509668954522,-0.9536485260538559,high,low,,ISIC_0011507.JPG,8,ISIC_7927525.JPG,33,25,false,0.18000000000000005,hl,keypress(j),0,false,656645.8000000715,656645.5,651653.541,651864.8000000715,651670.144,656462.788,5,600,6,
break,html.Screen,10_5_1,2023-11-20T19:40:20.723Z,,,,,,,,,,,NaN,,,,,,,,high,low,,,,,,,false,,,,,false,656647.2000000477,656646.8999999762,,656646.3999999762,,656462.788,5,600,,
break_continue,html.Screen,10_5_2,2023-11-20T19:40:20.723Z,,,,,,,,,,,NaN,,,,,,,,high,low,,,,,,,false,,,,,false,656648.1000000238,656647.8000000715,,656647.6000000238,,656462.788,5,600,,
sequence,flow.Sequence,10_5,2023-11-20T19:40:20.724Z,,,,,,,,,,,4977.656000071554,completion,,,,,,,high,low,,,,,,,false,,,,,false,656648.5,656647.8000000715,651653.541,651864.7000000477,651670.144,656462.788,5,600,,
trial,html.Screen,10_6_0,2023-11-20T19:40:23.185Z,,,,1,-0.0389988030702649,-0.0143212271490256,,0.05,true,hh,2646.4120000477415,response,0.913084438298574,0.9547174308225417,-0.9323742605362602,1.135180301076722,1.1757509668954522,-0.9536485260538559,high,high,,ISIC_0064669.JPG,9,ISIC_8637134.JPG,33,28,false,0.12,hh,keypress(i),0,false,659109.6000000238,659109.2000000477,656446.224,656648.7000000477,656462.788,658917.587,5,600,7,
break,html.Screen,10_6_1,2023-11-20T19:40:23.186Z,,,,,,,,,,,NaN,,,,,,,,high,high,,,,,,,false,,,,,false,659110.8000000715,659110.3999999762,,659110,,658917.587,5,600,,
break_continue,html.Screen,10_6_2,2023-11-20T19:40:23.187Z,,,,,,,,,,,NaN,,,,,,,,high,high,,,,,,,false,,,,,false,659111.5,659111.3000000715,,659111,,658917.587,5,600,,
sequence,flow.Sequence,10_6,2023-11-20T19:40:23.187Z,,,,,,,,,,,2648.5120000715833,completion,,,,,,,high,high,,,,,,,false,,,,,false,659111.8999999762,659111.3000000715,656446.224,656648.7000000477,656462.788,658917.587,5,600,,
trial,html.Screen,10_7_0,2023-11-20T19:40:25.977Z,,,,1,-0.0329095507339554,0.0382899749693245,,0.05,false,hl,2984.113000047626,response,0.858338058340649,0.9547174308225417,-0.9323742605362602,-0.9540612223480284,1.1757509668954522,-0.9536485260538559,high,low,,ISIC_8812781.JPG,9,ISIC_8922893.JPG,33,25,false,0.18000000000000005,hh,keypress(i),0,false,661902,661901.7000000477,658900.992,659112.1000000238,658917.587,661723.042,5,600,8,
break,html.Screen,10_7_1,2023-11-20T19:40:25.979Z,,,,,,,,,,,NaN,,,,,,,,high,low,,,,,,,false,,,,,false,661903.3000000715,661903,,661902.3999999762,,661723.042,5,600,,
break_continue,html.Screen,10_7_2,2023-11-20T19:40:25.979Z,,,,,,,,,,,NaN,,,,,,,,high,low,,,,,,,false,,,,,false,661904,661903.7000000477,,661903.3999999762,,661723.042,5,600,,
sequence,flow.Sequence,10_7,2023-11-20T19:40:25.980Z,,,,,,,,,,,2986.113000047626,completion,,,,,,,high,low,,,,,,,false,,,,,false,661904.3000000715,661903.7000000477,658900.992,659112,658917.587,661723.042,5,600,,
trial,html.Screen,10_8_0,2023-11-20T19:40:28.313Z,,,,1,0.0097091270150747,-0.0417921315885292,,0.05,false,lh,2514.3579999761423,response,-0.6386144741600837,0.9547174308225417,-0.9323742605362602,0.9535552759852256,1.1757509668954522,-0.9536485260538559,low,high,,ISIC_3967213.JPG,9,ISIC_1744817.JPG,33,26,false,0.30000000000000016,ll,keypress(f),0,false,664237.7000000477,664237.3999999762,661689.838,661904.5,661723.042,664060.981,5,600,9,
break,html.Screen,10_8_1,2023-11-20T19:40:28.314Z,,,,,,,,,,,NaN,,,,,,,,low,high,,,,,,,false,,,,,false,664239,664238.6000000238,,664238,,664060.981,5,600,,
break_continue,html.Screen,10_8_2,2023-11-20T19:40:28.315Z,,,,,,,,,,,NaN,,,,,,,,low,high,,,,,,,false,,,,,false,664239.7000000477,664239.3999999762,,664239.2000000477,,664060.981,5,600,,
sequence,flow.Sequence,10_8,2023-11-20T19:40:28.315Z,,,,,,,,,,,2516.3579999761423,completion,,,,,,,low,high,,,,,,,false,,,,,false,664240,664239.3999999762,661689.838,661904.3999999762,661723.042,664060.981,5,600,,
trial,html.Screen,10_9_0,2023-11-20T19:40:30.321Z,,,,1,0.0362376068089956,0.047825070846155,,0.05,true,hh,2184.4189999761293,response,0.913084438298574,0.9547174308225417,-0.9323742605362602,1.135180301076722,1.1757509668954522,-0.9536485260538559,high,high,,ISIC_6985114.JPG,9,ISIC_8637134.JPG,33,28,false,0.12,hh,keypress(i),0,false,666245.8000000715,666245.3999999762,664027.621,664240.2000000477,664060.981,666081.549,5,600,10,
break,html.Screen,10_9_1,2023-11-20T19:40:30.322Z,,,,,,,,,,,NaN,,,,,,,,high,high,,,,,,,false,,,,,false,666247,666246.7000000477,,666246.2000000477,,666081.549,5,600,,
break_continue,html.Screen,10_9_2,2023-11-20T19:40:30.323Z,,,,,,,,,,,NaN,,,,,,,,high,high,,,,,,,false,,,,,false,666247.8000000715,666247.5,,666247.3000000715,,666081.549,5,600,,
sequence,flow.Sequence,10_9,2023-11-20T19:40:30.323Z,,,,,,,,,,,2186.518999999971,completion,,,,,,,high,high,,,,,,,false,,,,,false,666248,666247.5,664027.621,664240.1000000238,664060.981,666081.549,5,600,,
trial,html.Screen,10_10_0,2023-11-20T19:40:36.105Z,,,,1,0.0159061451859594,0.0296598845560212,,0.05,false,hl,5948.151000047685,response,0.8534691366511764,0.9547174308225417,-0.9323742605362602,-1.03975580494588,1.1757509668954522,-0.9536485260538559,high,low,,ISIC_0072564.JPG,8,ISIC_0056788.JPG,33,25,false,0.18000000000000005,lh,keypress(e),0,false,672030,672029.7000000477,666064.903,666248.3000000715,666081.549,671842.745,5,600,11,
break,html.Screen,10_10_1,2023-11-20T19:40:36.107Z,,,,,,,,,,,NaN,,,,,,,,high,low,,,,,,,false,,,,,false,672031.2000000477,672030.8999999762,,672030.3999999762,,671842.745,5,600,,
break_continue,html.Screen,10_10_2,2023-11-20T19:40:36.107Z,,,,,,,,,,,NaN,,,,,,,,high,low,,,,,,,false,,,,,false,672031.8999999762,672031.7000000477,,672031.3999999762,,671842.745,5,600,,
sequence,flow.Sequence,10_10,2023-11-20T19:40:36.108Z,,,,,,,,,,,5950.151000047685,completion,,,,,,,high,low,,,,,,,false,,,,,false,672032.2000000477,672031.7000000477,666064.903,666248.2000000477,666081.549,671842.745,5,600,,
trial,html.Screen,10_11_0,2023-11-20T19:40:42.153Z,,,,1,-0.0329095507339554,0.0382899749693245,,0.05,true,lh,6234.955000047688,response,-0.661371304428672,0.9547174308225417,-0.9323742605362602,1.0907423478129648,1.1757509668954522,-0.9536485260538559,low,high,,ISIC_8812781.JPG,8,ISIC_6860222.JPG,33,26,false,0.30000000000000016,lh,keypress(e),0,false,678078.1000000238,678077.7000000477,671826.188,672032.3999999762,671842.745,677887.847,5,600,12,
break,html.Screen,10_11_1,2023-11-20T19:40:42.155Z,,,,,,,,,,,NaN,,,,,,,,low,high,,,,,,,false,,,,,false,678079.2000000477,678079,,678078.3999999762,,677887.847,5,600,,
break_continue,html.Screen,10_11_2,2023-11-20T19:40:42.155Z,,,,,,,,,,,NaN,,,,,,,,low,high,,,,,,,false,,,,,false,678080,678079.7000000477,,678079.5,,677887.847,5,600,,
sequence,flow.Sequence,10_11,2023-11-20T19:40:42.156Z,,,,,,,,,,,6236.955000047688,completion,,,,,,,low,high,,,,,,,false,,,,,false,678080.3000000715,678079.7000000477,671826.188,672032.3999999762,671842.745,677887.847,5,600,,
trial,html.Screen,10_12_0,2023-11-20T19:40:44.930Z,,,,1,-0.0456515796420274,0.0273567130070961,,0.05,true,hh,2966.0529999762075,response,0.8856899178393457,0.9547174308225417,-0.9323742605362602,1.1903131706835868,1.1757509668954522,-0.9536485260538559,high,high,,ISIC_0068610.JPG,9,ISIC_1233104.JPG,33,28,false,0.12,hh,keypress(i),0,false,680854.3000000715,680853.8999999762,677871.287,678080.5,677887.847,680676.637,5,600,13,
break,html.Screen,10_12_1,2023-11-20T19:40:44.931Z,,,,,,,,,,,NaN,,,,,,,,high,high,,,,,,,false,,,,,false,680855.6000000238,680855.2000000477,,680854.6000000238,,680676.637,5,600,,
break_continue,html.Screen,10_12_2,2023-11-20T19:40:44.932Z,,,,,,,,,,,NaN,,,,,,,,high,high,,,,,,,false,,,,,false,680856.3000000715,680856.1000000238,,680855.8000000715,,680676.637,5,600,,
sequence,flow.Sequence,10_12,2023-11-20T19:40:44.932Z,,,,,,,,,,,2968.253000023891,completion,,,,,,,high,high,,,,,,,false,,,,,false,680856.6000000238,680856.1000000238,677871.287,678080.3999999762,677887.847,680676.637,5,600,,
trial,html.Screen,10_13_0,2023-11-20T19:40:49.114Z,,,,1,0.0188047466661863,-0.0288346930436979,,0.05,false,ll,4361.363000000012,response,-0.9209488961172596,0.9547174308225417,-0.9323742605362602,-0.9916011869447884,1.1757509668954522,-0.9536485260538559,low,low,,ISIC_0014157.JPG,9,ISIC_3338629.JPG,33,41,false,0.1,hh,keypress(i),0,false,685038.3000000715,685038,680643.399,680856.8000000715,680676.637,684851.407,5,600,14,
break,html.Screen,10_13_1,2023-11-20T19:40:49.115Z,,,,,,,,,,,NaN,,,,,,,,low,low,,,,,,,false,,,,,false,685039.5,685039.2000000477,,685038.7000000477,,684851.407,5,600,,
break_continue,html.Screen,10_13_2,2023-11-20T19:40:49.116Z,,,,,,,,,,,NaN,,,,,,,,low,low,,,,,,,false,,,,,false,685040.3000000715,685040.1000000238,,685039.8000000715,,684851.407,5,600,,
sequence,flow.Sequence,10_13,2023-11-20T19:40:49.116Z,,,,,,,,,,,4363.463000023854,completion,,,,,,,low,low,,,,,,,false,,,,,false,685040.6000000238,685040.1000000238,680643.399,680856.8000000715,680676.637,684851.407,5,600,,
trial,html.Screen,10_14_0,2023-11-20T19:40:52.121Z,,,,1,0,0.0264544974620926,,0.05,true,ll,3194.0929999999935,response,-0.8426401499140178,0.9547174308225417,-0.9323742605362602,-0.9561650569523902,1.1757509668954522,-0.9536485260538559,low,low,,ISIC_0056991.JPG,8,ISIC_0060380.JPG,33,41,false,0.1,ll,keypress(f),0,false,688045.8999999762,688045.5,684834.889,685040.8999999762,684851.407,687857.251,5,600,15,
break,html.Screen,10_14_1,2023-11-20T19:40:52.122Z,,,,,,,,,,,NaN,,,,,,,,low,low,,,,,,,false,,,,,false,688047.1000000238,688046.8999999762,,688046.3000000715,,687857.251,5,600,,
break_continue,html.Screen,10_14_2,2023-11-20T19:40:52.123Z,,,,,,,,,,,NaN,,,,,,,,low,low,,,,,,,false,,,,,false,688047.8999999762,688047.6000000238,,688047.3000000715,,687857.251,5,600,,
sequence,flow.Sequence,10_14,2023-11-20T19:40:52.124Z,,,,,,,,,,,3196.1930000238353,completion,,,,,,,low,low,,,,,,,false,,,,,false,688048.3000000715,688047.6000000238,684834.889,685040.8999999762,684851.407,687857.251,5,600,,
trial,html.Screen,10_15_0,2023-11-20T19:40:54.455Z,,,,1,-0.0329095507339554,0.0382899749693245,,0.05,false,lh,2522.7489999999525,response,-0.6455395030138186,0.9547174308225417,-0.9323742605362602,1.3091676741424545,1.1757509668954522,-0.9536485260538559,low,high,,ISIC_8812781.JPG,8,ISIC_0028285.JPG,33,26,false,0.30000000000000016,ll,keypress(f),0,false,690380.1000000238,690380,687840.805,688048.5,687857.251,690195.138,5,600,16,
break,html.Screen,10_15_1,2023-11-20T19:40:54.456Z,,,,,,,,,,,NaN,,,,,,,,low,high,,,,,,,false,,,,,false,690380.5,690380.3000000715,,690380.2000000477,,690195.138,5,600,,
break_continue,html.Screen,10_15_2,2023-11-20T19:40:54.456Z,,,,,,,,,,,NaN,,,,,,,,low,high,,,,,,,false,,,,,false,690380.7000000477,690380.6000000238,,690380.5,,690195.138,5,600,,
sequence,flow.Sequence,10_15,2023-11-20T19:40:54.456Z,,,,,,,,,,,2523.3490000237944,completion,,,,,,,low,high,,,,,,,false,,,,,false,690380.7000000477,690380.6000000238,687840.805,688048.3999999762,687857.251,690195.138,5,600,,
trial,html.Screen,10_16_0,2023-11-20T19:40:59.049Z,,,,1,-0.0450282431170921,0,,0.05,false,hl,4778.261999976123,response,0.8860551570327019,0.9547174308225417,-0.9323742605362602,-0.8067116931297591,1.1757509668954522,-0.9536485260538559,high,low,,ISIC_1805163.JPG,10,ISIC_1457687.JPG,33,25,false,0.18000000000000005,lh,keypress(e),0,false,694973.7000000477,694973.3999999762,690178.581,690380.7000000477,690195.138,694787.407,5,600,17,
break,html.Screen,10_16_1,2023-11-20T19:40:59.050Z,,,,,,,,,,,NaN,,,,,,,,high,low,,,,,,,false,,,,,false,694975,694974.7000000477,,694974.2000000477,,694787.407,5,600,,
break_continue,html.Screen,10_16_2,2023-11-20T19:40:59.051Z,,,,,,,,,,,NaN,,,,,,,,high,low,,,,,,,false,,,,,false,694975.6000000238,694975.5,,694975.1000000238,,694787.407,5,600,,
sequence,flow.Sequence,10_16,2023-11-20T19:40:59.051Z,,,,,,,,,,,4780.361999999965,completion,,,,,,,high,low,,,,,,,false,,,,,false,694976,694975.5,690178.581,690380.7000000477,690195.138,694787.407,5,600,,
trial,html.Screen,10_17_0,2023-11-20T19:41:02.905Z,,,,1,0.000047919190197942736,0.0462652940855003,,0.05,false,hl,4042.1930000238353,response,1.020990671779317,0.9547174308225417,-0.9323742605362602,-1.0116513850520903,1.1757509668954522,-0.9536485260538559,high,low,,ISIC_0011507.JPG,8,ISIC_0011995.JPG,33,25,false,0.18000000000000005,lh,keypress(e),0,false,698829.8999999762,698829.6000000238,694770.7,694976.2000000477,694787.407,698644.91,5,600,18,
break,html.Screen,10_17_1,2023-11-20T19:41:02.906Z,,,,,,,,,,,NaN,,,,,,,,high,low,,,,,,,false,,,,,false,698831.1000000238,698830.8000000715,,698830.3000000715,,698644.91,5,600,,
break_continue,html.Screen,10_17_2,2023-11-20T19:41:02.907Z,,,,,,,,,,,NaN,,,,,,,,high,low,,,,,,,false,,,,,false,698831.8000000715,698831.6000000238,,698831.3000000715,,698644.91,5,600,,
sequence,flow.Sequence,10_17,2023-11-20T19:41:02.907Z,,,,,,,,,,,4044.1930000238353,completion,,,,,,,high,low,,,,,,,false,,,,,false,698832.1000000238,698831.6000000238,694770.7,694976.2000000477,694787.407,698644.91,5,600,,
trial,html.Screen,10_18_0,2023-11-20T19:41:14.808Z,,,,1,-0.0450282431170921,0,,0.05,false,hh,12087.390000071493,response,0.9821381220613687,0.9547174308225417,-0.9323742605362602,1.1931254848796,1.1757509668954522,-0.9536485260538559,high,high,,ISIC_1805163.JPG,9,ISIC_4107717.JPG,33,28,false,0.12,hl,keypress(j),0,false,710732.3999999762,710732.3000000715,698628.415,698832.3999999762,698644.91,710552.003,5,600,19,
break,html.Screen,10_18_1,2023-11-20T19:41:14.808Z,,,,,,,,,,,NaN,,,,,,,,high,high,,,,,,,false,,,,,false,710732.8000000715,710732.7000000477,,710732.6000000238,,710552.003,5,600,,
break_continue,html.Screen,10_18_2,2023-11-20T19:41:14.808Z,,,,,,,,,,,NaN,,,,,,,,high,high,,,,,,,false,,,,,false,710733,710732.8999999762,,710732.8000000715,,710552.003,5,600,,
sequence,flow.Sequence,10_18,2023-11-20T19:41:14.808Z,,,,,,,,,,,12087.989999976126,completion,,,,,,,high,high,,,,,,,false,,,,,false,710733.1000000238,710732.8999999762,698628.415,698832.3000000715,698644.91,710552.003,5,600,,
trial,html.Screen,10_19_0,2023-11-20T19:41:17.481Z,,,,1,-0.0085520978188085,0.0464691161264081,,0.05,true,hl,2853.496999999974,response,0.7836356408583546,0.9547174308225417,-0.9323742605362602,-1.1197925594706428,1.1757509668954522,-0.9536485260538559,high,low,,ISIC_0758797.JPG,9,ISIC_0024961.JPG,33,25,false,0.18000000000000005,hl,keypress(j),0,false,713406,713405.5,710518.275,710733.2000000477,710552.003,713223.297,5,600,20,
break,html.Screen,10_19_1,2023-11-20T19:41:17.483Z,,,,,,,,,,,NaN,,,,,,,,high,low,,,,,,,false,,,,,false,713407.2000000477,713406.8999999762,,713406.3999999762,,713223.297,5,600,,
break_continue,html.Screen,10_19_2,2023-11-20T19:41:17.483Z,,,,,,,,,,,NaN,,,,,,,,high,low,,,,,,,false,,,,,false,713407.8999999762,713407.7000000477,,713407.3999999762,,713223.297,5,600,,
sequence,flow.Sequence,10_19,2023-11-20T19:41:17.484Z,,,,,,,,,,,2855.6970000476576,completion,,,,,,,high,low,,,,,,,false,,,,,false,713408.3000000715,713407.7000000477,710518.275,710733.2000000477,710552.003,713223.297,5,600,,
trial,html.Screen,10_20_0,2023-11-20T19:41:21.514Z,,,,1,0.0134764727102299,0.0033499036460912,,0.05,true,hl,4214.303000023821,response,0.9579209317488,0.9547174308225417,-0.9323742605362602,-1.0147487101263497,1.1757509668954522,-0.9536485260538559,high,low,,ISIC_0009998.JPG,9,ISIC_8124482.JPG,33,25,false,0.18000000000000005,hl,keypress(j),0,false,717437.8999999762,717437.6000000238,713206.812,713408.5,713223.297,717247.799,5,600,21,
break,html.Screen,10_20_1,2023-11-20T19:41:21.515Z,,,,,,,,,,,NaN,,,,,,,,high,low,,,,,,,false,,,,,false,717439.2000000477,717438.8000000715,,717438.3000000715,,717247.799,5,600,,
break_continue,html.Screen,10_20_2,2023-11-20T19:41:21.516Z,,,,,,,,,,,NaN,,,,,,,,high,low,,,,,,,false,,,,,false,717439.8999999762,717439.7000000477,,717439.3999999762,,717247.799,5,600,,
sequence,flow.Sequence,10_20,2023-11-20T19:41:21.516Z,,,,,,,,,,,4216.403000047663,completion,,,,,,,high,low,,,,,,,false,,,,,false,717440.3000000715,717439.7000000477,713206.812,713408.3999999762,713223.297,717247.799,5,600,,
trial,html.Screen,10_21_0,2023-11-20T19:41:23.610Z,,,,1,-0.0217698886732706,0.0410870915161425,,0.05,true,hh,2285.701000000001,response,1.0316392011945703,0.9547174308225417,-0.9323742605362602,1.1580619988377847,1.1757509668954522,-0.9536485260538559,high,high,,ISIC_0072173.JPG,10,ISIC_0054206.JPG,33,28,false,0.12,hh,keypress(i),0,false,719533.8999999762,719533.5,717231.294,717440.5,717247.799,719351.935,5,600,22,
break,html.Screen,10_21_1,2023-11-20T19:41:23.611Z,,,,,,,,,,,NaN,,,,,,,,high,high,,,,,,,false,,,,,false,719535.1000000238,719534.8000000715,,719534.3000000715,,719351.935,5,600,,
break_continue,html.Screen,10_21_2,2023-11-20T19:41:23.611Z,,,,,,,,,,,NaN,,,,,,,,high,high,,,,,,,false,,,,,false,719535.7000000477,719535.5,,719535.2000000477,,719351.935,5,600,,
sequence,flow.Sequence,10_21,2023-11-20T19:41:23.612Z,,,,,,,,,,,2287.701000000001,completion,,,,,,,high,high,,,,,,,false,,,,,false,719536,719535.5,717231.294,717440.3999999762,717247.799,719351.935,5,600,,
trial,html.Screen,10_22_0,2023-11-20T19:41:25.954Z,,,,1,0.0112310719058792,-0.0469047359904117,,0.05,true,hh,2525.665000023786,response,0.9607077625123552,0.9547174308225417,-0.9323742605362602,1.0682608339754711,1.1757509668954522,-0.9536485260538559,high,high,,ISIC_0068184.JPG,8,ISIC_0064763.JPG,33,28,false,0.12,hh,keypress(i),0,false,721878,721877.6000000238,719335.335,719536.3000000715,719351.935,721689.771,5,600,23,
break,html.Screen,10_22_1,2023-11-20T19:41:25.955Z,,,,,,,,,,,NaN,,,,,,,,high,high,,,,,,,false,,,,,false,721879.2000000477,721878.8999999762,,721878.5,,721689.771,5,600,,
break_continue,html.Screen,10_22_2,2023-11-20T19:41:25.956Z,,,,,,,,,,,NaN,,,,,,,,high,high,,,,,,,false,,,,,false,721880,721879.7000000477,,721879.3999999762,,721689.771,5,600,,
sequence,flow.Sequence,10_22,2023-11-20T19:41:25.956Z,,,,,,,,,,,2527.765000047628,completion,,,,,,,high,high,,,,,,,false,,,,,false,721880.3000000715,721879.7000000477,719335.335,719536.2000000477,719351.935,721689.771,5,600,,
trial,html.Screen,10_23_0,2023-11-20T19:41:30.000Z,,,,1,-0.0027483411352856,-0.0100996915276271,,0.05,false,lh,4234.529000071576,response,-0.7833710010171356,0.9547174308225417,-0.9323742605362602,0.9315588090336896,1.1757509668954522,-0.9536485260538559,low,high,,ISIC_7364041.JPG,9,ISIC_3826102.JPG,33,26,false,0.30000000000000016,hl,keypress(j),0,false,725924.5,725924.3000000715,721673.322,721880.5,721689.771,725730.948,5,600,24,
break,html.Screen,10_23_1,2023-11-20T19:41:30.001Z,,,,,,,,,,,NaN,,,,,,,,low,high,,,,,,,false,,,,,false,725924.8000000715,725924.7000000477,,725924.6000000238,,725730.948,5,600,,
break_continue,html.Screen,10_23_2,2023-11-20T19:41:30.001Z,,,,,,,,,,,NaN,,,,,,,,low,high,,,,,,,false,,,,,false,725925,725925,,725924.8999999762,,725730.948,5,600,,
sequence,flow.Sequence,10_23,2023-11-20T19:41:30.001Z,,,,,,,,,,,4235.22900000005,completion,,,,,,,low,high,,,,,,,false,,,,,false,725925.1000000238,725925,721673.322,721880.5,721689.771,725730.948,5,600,,
trial,html.Screen,10_24_0,2023-11-20T19:41:32.034Z,,,,1,-0.0107854985447517,-0.0478010417136109,,0.05,true,hl,2226.652000023867,response,0.9579209317488,0.9547174308225417,-0.9323742605362602,-1.0147487101263497,1.1757509668954522,-0.9536485260538559,high,low,,ISIC_0010500.JPG,8,ISIC_8124482.JPG,33,25,false,0.18000000000000005,hl,keypress(j),0,false,727958,727957.6000000238,725714.51,725925.1000000238,725730.948,727768.271,5,600,25,
break,html.Screen,10_24_1,2023-11-20T19:41:32.035Z,,,,,,,,,,,NaN,,,,,,,,high,low,,,,,,,false,,,,,false,727959.2000000477,727958.8999999762,,727958.3999999762,,727768.271,5,600,,
break_continue,html.Screen,10_24_2,2023-11-20T19:41:32.036Z,,,,,,,,,,,NaN,,,,,,,,high,low,,,,,,,false,,,,,false,727959.8000000715,727959.6000000238,,727959.3999999762,,727768.271,5,600,,
sequence,flow.Sequence,10_24,2023-11-20T19:41:32.036Z,,,,,,,,,,,2228.652000023867,completion,,,,,,,high,low,,,,,,,false,,,,,false,727960.2000000477,727959.6000000238,725714.51,725925.1000000238,725730.948,727768.271,5,600,,
trial,html.Screen,10_25_0,2023-11-20T19:41:34.338Z,,,,1,-0.007397293189458,-0.0174716772037504,,0.05,true,hh,2493.429000047734,response,0.9517665083259332,0.9547174308225417,-0.9323742605362602,1.2717175116510189,1.1757509668954522,-0.9536485260538559,high,high,,ISIC_0056226.JPG,8,ISIC_2421696.JPG,33,28,false,0.12,hh,keypress(i),0,false,730262,730261.7000000477,727751.835,727960.3999999762,727768.271,730072.756,5,600,26,
break,html.Screen,10_25_1,2023-11-20T19:41:34.339Z,,,,,,,,,,,NaN,,,,,,,,high,high,,,,,,,false,,,,,false,730263.2000000477,730262.8999999762,,730262.3000000715,,730072.756,5,600,,
break_continue,html.Screen,10_25_2,2023-11-20T19:41:34.340Z,,,,,,,,,,,NaN,,,,,,,,high,high,,,,,,,false,,,,,false,730263.8000000715,730263.7000000477,,730263.3999999762,,730072.756,5,600,,
sequence,flow.Sequence,10_25,2023-11-20T19:41:34.340Z,,,,,,,,,,,2495.429000047734,completion,,,,,,,high,high,,,,,,,false,,,,,false,730264.2000000477,730263.7000000477,727751.835,727960.3000000715,727768.271,730072.756,5,600,,
trial,html.Screen,10_26_0,2023-11-20T19:41:36.898Z,,,,1,0.0348234368746005,-0.0236866303880924,,0.05,true,hh,2749.0440000714734,response,0.9821381220613687,0.9547174308225417,-0.9323742605362602,1.1931254848796,1.1757509668954522,-0.9536485260538559,high,high,,ISIC_0011099.JPG,9,ISIC_4107717.JPG,33,28,false,0.12,hh,keypress(i),0,false,732822.3000000715,732821.8000000715,730056.293,730264.3999999762,730072.756,732644.394,5,600,27,
break,html.Screen,10_26_1,2023-11-20T19:41:36.899Z,,,,,,,,,,,NaN,,,,,,,,high,high,,,,,,,false,,,,,false,732822.8999999762,732822.8000000715,,732822.6000000238,,732644.394,5,600,,
break_continue,html.Screen,10_26_2,2023-11-20T19:41:36.899Z,,,,,,,,,,,NaN,,,,,,,,high,high,,,,,,,false,,,,,false,732823.1000000238,732823,,732822.8999999762,,732644.394,5,600,,
sequence,flow.Sequence,10_26,2023-11-20T19:41:36.899Z,,,,,,,,,,,2750.243999999948,completion,,,,,,,high,high,,,,,,,false,,,,,false,732823.1000000238,732823,730056.293,730264.3999999762,730072.756,732644.394,5,600,,
trial,html.Screen,10_27_0,2023-11-20T19:41:39.921Z,,,,1,-0.0456515796420274,0.0273567130070961,,0.05,false,lh,3201.106000000029,response,-0.7833710010171356,0.9547174308225417,-0.9323742605362602,0.9315588090336896,1.1757509668954522,-0.9536485260538559,low,high,,ISIC_0068610.JPG,9,ISIC_3826102.JPG,33,26,false,0.30000000000000016,hl,keypress(j),0,false,735845.7000000477,735845.5,732611.194,732823.2000000477,732644.394,735650.366,5,600,28,
break,html.Screen,10_27_1,2023-11-20T19:41:39.923Z,,,,,,,,,,,NaN,,,,,,,,low,high,,,,,,,false,,,,,false,735846.7000000477,735846.6000000238,,735846,,735650.366,5,600,,
break_continue,html.Screen,10_27_2,2023-11-20T19:41:39.923Z,,,,,,,,,,,NaN,,,,,,,,low,high,,,,,,,false,,,,,false,735847.3999999762,735847.2000000477,,735847,,735650.366,5,600,,
sequence,flow.Sequence,10_27,2023-11-20T19:41:39.923Z,,,,,,,,,,,3202.8060000477126,completion,,,,,,,low,high,,,,,,,false,,,,,false,735847.7000000477,735847.2000000477,732611.194,732823.1000000238,732644.394,735650.366,5,600,,
trial,html.Screen,10_28_0,2023-11-20T19:41:43.368Z,,,,1,-0.0217698886732706,0.0410870915161425,,0.05,true,hh,3641.633999999962,response,0.9517665083259332,0.9547174308225417,-0.9323742605362602,1.2717175116510189,1.1757509668954522,-0.9536485260538559,high,high,,ISIC_0072173.JPG,9,ISIC_2421696.JPG,33,28,false,0.12,hh,keypress(i),0,false,739292.1000000238,739292,735633.746,735847.8999999762,735650.366,739107.016,5,600,29,
break,html.Screen,10_28_1,2023-11-20T19:41:43.368Z,,,,,,,,,,,NaN,,,,,,,,high,high,,,,,,,false,,,,,false,739292.5,739292.3999999762,,739292.2000000477,,739107.016,5,600,,
break_continue,html.Screen,10_28_2,2023-11-20T19:41:43.368Z,,,,,,,,,,,NaN,,,,,,,,high,high,,,,,,,false,,,,,false,739292.7000000477,739292.6000000238,,739292.5,,739107.016,5,600,,
sequence,flow.Sequence,10_28,2023-11-20T19:41:43.368Z,,,,,,,,,,,3642.2340000238037,completion,,,,,,,high,high,,,,,,,false,,,,,false,739292.7000000477,739292.6000000238,735633.746,735847.8999999762,735650.366,739107.016,5,600,,
trial,html.Screen,10_29_0,2023-11-20T19:41:45.288Z,,,,1,-0.0363437082783146,-0.0333332186217051,,0.05,true,hh,2104.984000000055,response,1.0717785279820962,0.9547174308225417,-0.9323742605362602,1.1267239445830604,1.1757509668954522,-0.9536485260538559,high,high,,ISIC_3314555.JPG,10,ISIC_9948815.JPG,33,28,false,0.12,hh,keypress(i),0,false,741212.2000000477,741212,739090.544,739292.8000000715,739107.016,741027.416,5,600,30,
break,html.Screen,10_29_1,2023-11-20T19:41:45.288Z,,,,,,,,,,,NaN,,,,,,,,high,high,,,,,,,false,,,,,false,741212.6000000238,741212.5,,741212.3000000715,,741027.416,5,600,,
break_continue,html.Screen,10_29_2,2023-11-20T19:41:45.288Z,,,,,,,,,,,NaN,,,,,,,,high,high,,,,,,,false,,,,,false,741212.8000000715,741212.7000000477,,741212.7000000477,,741027.416,5,600,,
sequence,flow.Sequence,10_29,2023-11-20T19:41:45.289Z,,,,,,,,,,,2105.6840000477387,completion,,,,,,,high,high,,,,,,,false,,,,,false,741212.8000000715,741212.7000000477,739090.544,739292.7000000477,739107.016,741027.416,5,600,,
trial,html.Screen,10_30_0,2023-11-20T19:41:48.002Z,,,,1,0.0159061451859594,0.0296598845560212,,0.05,true,ll,2898.2840000477154,response,-0.9789697360622612,0.9547174308225417,-0.9323742605362602,-1.0321843200509992,1.1757509668954522,-0.9536485260538559,low,low,,ISIC_0072564.JPG,9,ISIC_0056406.JPG,33,41,false,0.1,ll,keypress(f),0,false,743926,743925.7000000477,741010.7,741212.8999999762,741027.416,743732.649,5,600,31,
break,html.Screen,10_30_1,2023-11-20T19:41:48.003Z,,,,,,,,,,,NaN,,,,,,,,low,low,,,,,,,false,,,,,false,743927.1000000238,743926.8999999762,,743926.3999999762,,743732.649,5,600,,
break_continue,html.Screen,10_30_2,2023-11-20T19:41:48.004Z,,,,,,,,,,,NaN,,,,,,,,low,low,,,,,,,false,,,,,false,743927.8999999762,743927.6000000238,,743927.3999999762,,743732.649,5,600,,
sequence,flow.Sequence,10_30,2023-11-20T19:41:48.004Z,,,,,,,,,,,2900.1840000238735,completion,,,,,,,low,low,,,,,,,false,,,,,false,743928.1000000238,743927.6000000238,741010.7,741212.8000000715,741027.416,743732.649,5,600,,
trial,html.Screen,10_31_0,2023-11-20T19:41:55.904Z,,,,1,-0.0450282431170921,0,,0.05,false,ll,8095.351000000024,response,-0.9249963751334934,0.9547174308225417,-0.9323742605362602,-0.8954921660911329,1.1757509668954522,-0.9536485260538559,low,low,,ISIC_1805163.JPG,9,ISIC_6404049.JPG,33,41,false,0.1,hl,keypress(j),0,false,751828.2000000477,751828,743716.215,743928.3000000715,743732.649,751648.091,5,600,32,
break,html.Screen,10_31_1,2023-11-20T19:41:55.904Z,,,,,,,,,,,NaN,,,,,,,,low,low,,,,,,,false,,,,,false,751828.6000000238,751828.3999999762,,751828.3000000715,,751648.091,5,600,,
break_continue,html.Screen,10_31_2,2023-11-20T19:41:55.905Z,,,,,,,,,,,NaN,,,,,,,,low,low,,,,,,,false,,,,,false,751828.8000000715,751828.7000000477,,751828.6000000238,,751648.091,5,600,,
sequence,flow.Sequence,10_31,2023-11-20T19:41:55.905Z,,,,,,,,,,,8096.051000047708,completion,,,,,,,low,low,,,,,,,false,,,,,false,751828.8000000715,751828.7000000477,743716.215,743928.2000000477,743732.649,751648.091,5,600,,
trial,html.Screen,10_32_0,2023-11-20T19:41:58.682Z,,,,1,0.0097091270150747,-0.0417921315885292,,0.05,false,lh,2957.609000047669,response,-0.705042352333099,0.9547174308225417,-0.9323742605362602,0.9127244278050396,1.1757509668954522,-0.9536485260538559,low,high,,ISIC_3967213.JPG,8,ISIC_0787229.JPG,33,26,false,0.30000000000000016,ll,keypress(f),0,false,754606,754605.7000000477,751614.636,751828.8999999762,751648.091,754453.558,5,600,33,
break,html.Screen,10_32_1,2023-11-20T19:41:58.683Z,,,,,,,,,,,NaN,,,,,,,,low,high,,,,,,,false,,,,,false,754607,754606.8000000715,,754606.3999999762,,754453.558,5,600,,
break_continue,html.Screen,10_32_2,2023-11-20T19:41:58.683Z,,,,,,,,,,,NaN,,,,,,,,low,high,,,,,,,false,,,,,false,754607.7000000477,754607.5,,754607.3000000715,,754453.558,5,600,,
sequence,flow.Sequence,10_32,2023-11-20T19:41:58.684Z,,,,,,,,,,,2959.408999999985,completion,,,,,,,low,high,,,,,,,false,,,,,false,754608,754607.5,751614.636,751828.8999999762,751648.091,754453.558,5,600,,
trial,html.Screen,10_33_0,2023-11-20T19:42:00.648Z,,,,1,-0.0027483411352856,-0.0100996915276271,,0.05,false,lh,2118.942000000039,response,-0.7118141631588264,0.9547174308225417,-0.9323742605362602,1.0369885917487718,1.1757509668954522,-0.9536485260538559,low,high,,ISIC_7364041.JPG,8,ISIC_6917681.JPG,33,26,false,0.30000000000000016,ll,keypress(f),0,false,756572.6000000238,756572.5,754403.697,754608.1000000238,754453.558,756390.658,5,600,34,
break,html.Screen,10_33_1,2023-11-20T19:42:00.649Z,,,,,,,,,,,NaN,,,,,,,,low,high,,,,,,,false,,,,,false,756573,756572.8999999762,,756572.7000000477,,756390.658,5,600,,
break_continue,html.Screen,10_33_2,2023-11-20T19:42:00.649Z,,,,,,,,,,,NaN,,,,,,,,low,high,,,,,,,false,,,,,false,756573.2000000477,756573.1000000238,,756573,,756390.658,5,600,,
sequence,flow.Sequence,10_33,2023-11-20T19:42:00.649Z,,,,,,,,,,,2119.542000023881,completion,,,,,,,low,high,,,,,,,false,,,,,false,756573.2000000477,756573.1000000238,754403.697,754608.1000000238,754453.558,756390.658,5,600,,
trial,html.Screen,10_34_0,2023-11-20T19:42:02.625Z,,,,1,-0.0050679133050021,0.0009714874637896,,0.05,false,lh,2158.5420000476297,response,-0.8092423703106274,0.9547174308225417,-0.9323742605362602,1.1870093485714288,1.1757509668954522,-0.9536485260538559,low,high,,ISIC_9848743.JPG,9,ISIC_8592235.JPG,33,26,false,0.30000000000000016,hh,keypress(i),0,false,758549.5,758549.2000000477,756374.059,756573.3000000715,756390.658,758361.127,5,600,35,
break,html.Screen,10_34_1,2023-11-20T19:42:02.626Z,,,,,,,,,,,NaN,,,,,,,,low,high,,,,,,,false,,,,,false,758550.5,758550.2000000477,,758549.8000000715,,758361.127,5,600,,
break_continue,html.Screen,10_34_2,2023-11-20T19:42:02.627Z,,,,,,,,,,,NaN,,,,,,,,low,high,,,,,,,false,,,,,false,758551.1000000238,758550.8999999762,,758550.7000000477,,758361.127,5,600,,
sequence,flow.Sequence,10_34,2023-11-20T19:42:02.627Z,,,,,,,,,,,2160.241999976104,completion,,,,,,,low,high,,,,,,,false,,,,,false,758551.3999999762,758550.8999999762,756374.059,756573.3000000715,756390.658,758361.127,5,600,,
trial,html.Screen,10_35_0,2023-11-20T19:42:07.770Z,,,,1,-0.0116094682222121,0.0258434522530318,,0.05,false,hl,5332.673000071547,response,0.858338058340649,0.9547174308225417,-0.9323742605362602,-0.9540612223480284,1.1757509668954522,-0.9536485260538559,high,low,,ISIC_9239632.JPG,9,ISIC_8922893.JPG,33,25,false,0.18000000000000005,hh,keypress(i),0,false,763694.1000000238,763693.8000000715,758344.62,758551.6000000238,758361.127,763504.496,5,600,36,
break,html.Screen,10_35_1,2023-11-20T19:42:07.771Z,,,,,,,,,,,NaN,,,,,,,,high,low,,,,,,,false,,,,,false,763695.3000000715,763695,,763694.5,,763504.496,5,600,,
break_continue,html.Screen,10_35_2,2023-11-20T19:42:07.772Z,,,,,,,,,,,NaN,,,,,,,,high,low,,,,,,,false,,,,,false,763696.1000000238,763695.8999999762,,763695.6000000238,,763504.496,5,600,,
sequence,flow.Sequence,10_35,2023-11-20T19:42:07.772Z,,,,,,,,,,,5334.77299997618,completion,,,,,,,high,low,,,,,,,false,,,,,false,763696.3999999762,763695.8999999762,758344.62,758551.6000000238,758361.127,763504.496,5,600,,
trial,html.Screen,10_36_0,2023-11-20T19:42:10.282Z,,,,1,-0.0027483411352856,-0.0100996915276271,,0.05,false,hl,2701.604000023799,response,0.9454713230140772,0.9547174308225417,-0.9323742605362602,-0.9245167441969216,1.1757509668954522,-0.9536485260538559,high,low,,ISIC_7364041.JPG,9,ISIC_9101055.JPG,33,25,false,0.18000000000000005,ll,keypress(f),0,false,766206.5,766206.1000000238,763487.896,763696.6000000238,763504.496,766027.516,5,600,37,
break,html.Screen,10_36_1,2023-11-20T19:42:10.283Z,,,,,,,,,,,NaN,,,,,,,,high,low,,,,,,,false,,,,,false,766207.7000000477,766207.3000000715,,766206.8000000715,,766027.516,5,600,,
break_continue,html.Screen,10_36_2,2023-11-20T19:42:10.284Z,,,,,,,,,,,NaN,,,,,,,,high,low,,,,,,,false,,,,,false,766208.3999999762,766208.2000000477,,766208,,766027.516,5,600,,
sequence,flow.Sequence,10_36,2023-11-20T19:42:10.285Z,,,,,,,,,,,2703.704000047641,completion,,,,,,,high,low,,,,,,,false,,,,,false,766208.8000000715,766208.2000000477,763487.896,763696.6000000238,763504.496,766027.516,5,600,,
trial,html.Screen,10_37_0,2023-11-20T19:42:12.394Z,,,,1,-0.0057914759495055,-0.0074667911845194,,0.05,true,hh,2290.1840000477387,response,0.8985413691921805,0.9547174308225417,-0.9323742605362602,1.1177351920180405,1.1757509668954522,-0.9536485260538559,high,high,,ISIC_0058723.JPG,9,ISIC_2805573.JPG,33,28,false,0.12,hh,keypress(i),0,false,768318,768317.7000000477,765992.914,766209.1000000238,766027.516,768130.18,5,600,38,
break,html.Screen,10_37_1,2023-11-20T19:42:12.395Z,,,,,,,,,,,NaN,,,,,,,,high,high,,,,,,,false,,,,,false,768319.2000000477,768318.8999999762,,768318.3999999762,,768130.18,5,600,,
break_continue,html.Screen,10_37_2,2023-11-20T19:42:12.396Z,,,,,,,,,,,NaN,,,,,,,,high,high,,,,,,,false,,,,,false,768319.8999999762,768319.7000000477,,768319.3999999762,,768130.18,5,600,,
sequence,flow.Sequence,10_37,2023-11-20T19:42:12.396Z,,,,,,,,,,,2292.1840000477387,completion,,,,,,,high,high,,,,,,,false,,,,,false,768320.3000000715,768319.7000000477,765992.914,766209,766027.516,768130.18,5,600,,
