sender,sender_type,sender_id,timestamp,meta,,age,blockNo,c1,c2,condition,control_tolerance,correct,correctResponse,duration,ended_on,f1,f1_high,f1_low,f2,f2_high,f2_low,feature_level1,feature_level2,gender,img_left,img_reveal,img_right,n_control_images,n_target_images,practice,range_tolerance,response,response_action,selection_duration,staircase,time_commit,time_end,time_render,time_run,time_show,time_switch,total_blocks,total_trials,trialNo,url
informed_consent,html.Screen,0,2024-03-07T17:09:22.956Z,"{""labjs_version"":""20.2.4"",""labjs_build"":{""flavor"":""development"",""commit"":""f5b4a49f956347addd546a832a3327688c2c0fef""},""location"":""https://labjs.felixhenninger.com/api/labjs_preview/index.html"",""userAgent"":""Mozilla/5.0 (Windows NT 10.0; Win64; x64) AppleWebKit/537.36 (KHTML, like Gecko) Chrome/122.0.0.0 Safari/537.36"",""platform"":""Win32"",""language"":""en-US"",""locale"":""en-US"",""timeZone"":""America/Chicago"",""timezoneOffset"":360,""screen_width"":2560,""screen_height"":1440,""scroll_width"":1265,""scroll_height"":1278,""window_innerWidth"":1265,""window_innerHeight"":1326,""devicePixelRatio"":1}",,,,,,,,,,53940.60000038147,response,,,,,,,,,,,,,,,,,consent,click button,,,54470.20000076294,54461.10000038147,503.616,637.4000015258789,520.5,54349.73,,,,{}
Demography form,html.Form,1,2024-03-07T17:09:29.772Z,,,20,,,,,,,,6936.769999999997,form submission,,,,,,,,,female,,,,,,,,,,,,61286.80000114441,61286.5,54349.73,54470.5,54349.73,61171.962,,,,
Welcome,html.Screen,2,2024-03-07T17:09:54.843Z,,,,,,,"[""asym"",""col""]",,,,25185.13800038147,response,,,,,,,,,,,,,,,,,continue,click button,,,86357.80000114441,86357.10000038147,61171.962,61286.80000114441,61171.962,86258.5,,,,
demo_instructions,html.Screen,3,2024-03-07T17:10:34.051Z,,,,,,,,,,,39306.40000152588,response,,,,,,,,,,,,,,,,,continue,click button,,,125565.5,125564.90000152588,86242.764,86357.90000152588,86258.5,125457,,,,
trial,html.Screen,4_0_0,2024-03-07T17:11:19.033Z,,,,0,-1.2059606637811695,-1.214966446488752,,,true,hh,45089.60000038147,response,1.053007132776416,1.2,-1.2,1.341217082060068,1.2,-1.2,high,high,,ISIC_0013334.JPG,,ISIC_0024208.JPG,,25,true,0.15000000000000002,hh,keypress(i),100,false,170547.70000076294,170546.60000038147,125455.248,125565.70000076294,125457,170445.3,1,16,1,
sequence,flow.Sequence,4_0,2024-03-07T17:11:19.035Z,,,,,,,,,,,45089.60000038147,completion,,,,,,,high,high,,,,,,,true,,,,,false,170549.20000076294,170546.60000038147,125455.248,125565.70000076294,125457,170445.3,1,16,,
trial,html.Screen,4_1_0,2024-03-07T17:11:35.701Z,,,,0,-1.1711612520017805,-1.191169949562454,,,true,hh,16769.60000152589,response,1.1363600109870835,1.2,-1.2,1.295816345369928,1.2,-1.2,high,high,,ISIC_0061936.JPG,,ISIC_0026141.JPG,,25,true,0.15000000000000002,hh,keypress(i),100,false,187215.5,187214.90000152588,170428.666,170549.5,170445.3,187125.2,1,16,2,
sequence,flow.Sequence,4_1,2024-03-07T17:11:35.702Z,,,,,,,,,,,16769.60000152589,completion,,,,,,,high,high,,,,,,,true,,,,,false,187216.3000011444,187214.90000152588,170428.666,170549.40000152588,170445.3,187125.2,1,16,,
trial,html.Screen,4_2_0,2024-03-07T17:11:44.192Z,,,,0,-1.152619213055059,-1.2957497771092716,,,true,hh,8580.799999999988,response,1.0885984639975343,1.2,-1.2,1.2042618719491294,1.2,-1.2,high,high,,ISIC_0061915.JPG,,ISIC_0012740.JPG,,25,true,0.15000000000000002,hh,keypress(i),100,false,195706.3000011444,195706,187108.7,187216.70000076294,187125.2,195615.6,1,16,3,
sequence,flow.Sequence,4_2,2024-03-07T17:11:44.192Z,,,,,,,,,,,8580.799999999988,completion,,,,,,,high,high,,,,,,,true,,,,,false,195706.60000038147,195706,187108.7,187216.5,187125.2,195615.6,1,16,,
trial,html.Screen,4_3_0,2024-03-07T17:11:50.168Z,,,,0,-1.2289750544294995,-1.3003764624334877,,,true,hh,6065.800001525873,response,1.2200968917423711,1.2,-1.2,1.3183466064109373,1.2,-1.2,high,high,,ISIC_0054167.JPG,,ISIC_3624318.JPG,,25,true,0.15000000000000002,hh,keypress(i),100,false,201681.90000152588,201681.40000152588,195598.966,195706.70000076294,195615.6,201587.7,1,16,4,
sequence,flow.Sequence,4_3,2024-03-07T17:11:50.168Z,,,,,,,,,,,6065.800001525873,completion,,,,,,,high,high,,,,,,,true,,,,,false,201682.5,201681.40000152588,195598.966,195706.70000076294,195615.6,201587.7,1,16,,
trial,html.Screen,4_4_0,2024-03-07T17:12:08.306Z,,,,0,1.1363600109870835,1.295816345369928,,,true,ll,18231.500000762928,response,-1.1392234684115472,1.2,-1.2,-1.3198277407683998,1.2,-1.2,low,low,,ISIC_0026141.JPG,,ISIC_0071875.JPG,,27,true,0.12,ll,keypress(f),100,false,219819.8000011444,219819.20000076294,201571.066,201682.70000076294,201587.7,219718.7,1,16,5,
sequence,flow.Sequence,4_4,2024-03-07T17:12:08.306Z,,,,,,,,,,,18231.500000762928,completion,,,,,,,low,low,,,,,,,true,,,,,false,219820.70000076294,219819.20000076294,201571.066,201682.60000038147,201587.7,219718.7,1,16,,
trial,html.Screen,4_5_0,2024-03-07T17:12:13.724Z,,,,0,1.294521945180264,1.3078626540563885,,,true,ll,5519.299999999988,response,-1.1783311757907324,1.2,-1.2,-1.266840220031473,1.2,-1.2,low,low,,ISIC_3601224.JPG,,ISIC_8241457.JPG,,41,true,0.15000000000000002,ll,keypress(f),100,false,225238.3000011444,225238,219702.73,219821.10000038147,219718.7,225140.5,1,16,6,
sequence,flow.Sequence,4_5,2024-03-07T17:12:13.724Z,,,,,,,,,,,5519.299999999988,completion,,,,,,,low,low,,,,,,,true,,,,,false,225238.60000038147,225238,219702.73,219821.10000038147,219718.7,225140.5,1,16,,
trial,html.Screen,4_6_0,2024-03-07T17:12:24.356Z,,,,0,1.0878102877901663,1.3154097543539391,,,true,ll,10728.80000114441,response,-1.0698162624196283,1.2,-1.2,-1.0648460966097275,1.2,-1.2,low,low,,ISIC_1413242.JPG,,ISIC_0030552.JPG,,41,true,0.15000000000000002,ll,keypress(f),100,false,235869.8000011444,235869.3000011444,225123.766,225238.60000038147,225140.5,235765.2,1,16,7,
sequence,flow.Sequence,4_6,2024-03-07T17:12:24.356Z,,,,,,,,,,,10728.80000114441,completion,,,,,,,low,low,,,,,,,true,,,,,false,235870.40000152588,235869.3000011444,225123.766,225238.60000038147,225140.5,235765.2,1,16,,
trial,html.Screen,4_7_0,2024-03-07T17:12:30.943Z,,,,0,1.0885984639975343,1.2042618719491294,,,true,ll,6691.000000762928,response,-1.2040551955011098,1.2,-1.2,-1.2664651062241792,1.2,-1.2,low,low,,ISIC_0012740.JPG,,ISIC_0068886.JPG,,41,true,0.15000000000000002,ll,keypress(f),100,false,242456.70000076294,242456.20000076294,235749.3,235870.8000011444,235765.2,242371.398,1,16,8,
sequence,flow.Sequence,4_7,2024-03-07T17:12:30.943Z,,,,,,,,,,,6691.000000762928,completion,,,,,,,low,low,,,,,,,true,,,,,false,242457.5,242456.20000076294,235749.3,235870.70000076294,235765.2,242371.398,1,16,,
trial,html.Screen,4_8_0,2024-03-07T17:12:41.751Z,,,,0,0.8644465729542988,-0.8679598285079457,,,true,lh,10893.902001144423,response,-1.0700930503975157,1.2,-1.2,0.923753102263735,1.2,-1.2,low,high,,ISIC_6718969.JPG,,ISIC_0000022.JPG,,26,true,0.3300000000000002,lh,keypress(e),100,false,253265.5,253265.3000011444,242371.398,242457.90000152588,242371.398,253163.564,1,16,9,
sequence,flow.Sequence,4_8,2024-03-07T17:12:41.752Z,,,,,,,,,,,10893.902001144423,completion,,,,,,,low,high,,,,,,,true,,,,,false,253265.60000038147,253265.3000011444,242371.398,242457.8000011444,242371.398,253163.564,1,16,,
trial,html.Screen,4_9_0,2024-03-07T17:13:02.411Z,,,,0,0.9087169856594104,-0.8835647084207277,,,true,lh,20761.236001144396,response,-1.0748728054622358,1.2,-1.2,1.2840853987892311,1.2,-1.2,low,high,,ISIC_0000349.JPG,,ISIC_0059219.JPG,,33,true,0.3600000000000002,lh,keypress(e),100,false,273925.10000038147,273924.8000011444,253163.564,253265.8000011444,253163.564,273830.4,1,16,10,
sequence,flow.Sequence,4_9,2024-03-07T17:13:02.412Z,,,,,,,,,,,20761.236001144396,completion,,,,,,,low,high,,,,,,,true,,,,,false,273925.60000038147,273924.8000011444,253163.564,253265.70000076294,253163.564,273830.4,1,16,,
trial,html.Screen,4_10_0,2024-03-07T17:13:08.369Z,,,,0,1.1890109863264902,-0.8867825318561365,,,true,lh,6052.000001525856,response,-1.0264463986917702,1.2,-1.2,1.171271535505083,1.2,-1.2,low,high,,ISIC_0072576.JPG,,ISIC_7889838.JPG,,33,true,0.3600000000000002,lh,keypress(e),100,false,279882.8000011444,279882.4000015259,273814.066,273925.8000011444,273830.4,279785.598,1,16,11,
sequence,flow.Sequence,4_10,2024-03-07T17:13:08.369Z,,,,,,,,,,,6052.000001525856,completion,,,,,,,low,high,,,,,,,true,,,,,false,279883.4000015259,279882.4000015259,273814.066,273925.70000076294,273830.4,279785.598,1,16,,
trial,html.Screen,4_11_0,2024-03-07T17:13:14.728Z,,,,0,0.849847885203758,-0.973447384095442,,,true,lh,6455.702001144411,response,-1.055319394932912,1.2,-1.2,1.409116680310466,1.2,-1.2,low,high,,ISIC_9612228.JPG,,ISIC_6398669.JPG,,33,true,0.3600000000000002,lh,keypress(e),100,false,286241.5,286241.3000011444,279785.598,279883.60000038147,279785.598,286140.862,1,16,12,
sequence,flow.Sequence,4_11,2024-03-07T17:13:14.728Z,,,,,,,,,,,6455.702001144411,completion,,,,,,,low,high,,,,,,,true,,,,,false,286241.8000011444,286241.3000011444,279785.598,279883.60000038147,279785.598,286140.862,1,16,,
trial,html.Screen,4_12_0,2024-03-07T17:13:26.337Z,,,,0,-1.155796217969438,1.1646564121743912,,,true,hl,11709.438001144386,response,0.8494721812820843,1.2,-1.2,-1.3435429139974266,1.2,-1.2,high,low,,ISIC_2685523.JPG,,ISIC_0033585.JPG,,29,true,0.3600000000000002,hl,keypress(j),100,false,297850.8000011444,297850.3000011444,286140.862,286241.9000015259,286140.862,297750.364,1,16,13,
sequence,flow.Sequence,4_12,2024-03-07T17:13:26.337Z,,,,,,,,,,,11709.438001144386,completion,,,,,,,high,low,,,,,,,true,,,,,false,297851.5,297850.3000011444,286140.862,286241.9000015259,286140.862,297750.364,1,16,,
trial,html.Screen,4_13_0,2024-03-07T17:13:30.862Z,,,,0,-1.1592423187534993,1.067128884093211,,,true,hl,4625.736000381468,response,0.9445114955578736,1.2,-1.2,-1.0054210059625863,1.2,-1.2,high,low,,ISIC_6854940.JPG,,ISIC_0033807.JPG,,29,true,0.3600000000000002,hl,keypress(j),100,false,302376.5,302376.10000038147,297750.364,297851.9000015259,297750.364,302287,1,16,14,
sequence,flow.Sequence,4_13,2024-03-07T17:13:30.863Z,,,,,,,,,,,4625.736000381468,completion,,,,,,,high,low,,,,,,,true,,,,,false,302377.10000038147,302376.10000038147,297750.364,297851.70000076294,297750.364,302287,1,16,,
trial,html.Screen,4_14_0,2024-03-07T17:13:40.393Z,,,,0,-0.9566823908868002,0.9602125665128364,,,true,hl,9620.5,response,1.11329866545753,1.2,-1.2,-1.2155631217348757,1.2,-1.2,high,low,,ISIC_0056784.JPG,,ISIC_0032610.JPG,,29,true,0.3600000000000002,hl,keypress(j),100,false,311907.70000076294,311907.5,302270.766,302377.3000011444,302287,311811.798,1,16,15,
sequence,flow.Sequence,4_14,2024-03-07T17:13:40.394Z,,,,,,,,,,,9620.5,completion,,,,,,,high,low,,,,,,,true,,,,,false,311907.8000011444,311907.5,302270.766,302377.20000076294,302287,311811.798,1,16,,
trial,html.Screen,4_15_0,2024-03-07T17:13:45.090Z,,,,0,-1.052305774554686,1.3940181224717798,,,true,hl,4792.502001144399,response,0.8779374983479176,1.2,-1.2,-0.9745548032823428,1.2,-1.2,high,low,,ISIC_4175400.JPG,,ISIC_2991354.JPG,,29,true,0.3600000000000002,hl,keypress(j),100,false,316604.5,316604.3000011444,311811.798,311907.9000015259,311811.798,316516,1,16,16,
sequence,flow.Sequence,4_15,2024-03-07T17:13:45.091Z,,,,,,,,,,,4792.502001144399,completion,,,,,,,high,low,,,,,,,true,,,,,false,316604.9000015259,316604.3000011444,311811.798,311907.9000015259,311811.798,316516,1,16,,
demonstration_loop,flow.Loop,4,2024-03-07T17:13:45.091Z,,,,,,,,,,,191147.3000011444,completion,,,,,,,,,,,,,,,true,,,,,false,316605.10000038147,316604.3000011444,125455.248,125565.70000076294,125457,316516,1,16,,
practice_instructions,html.Screen,5,2024-03-07T17:14:06.900Z,,,,,,,,,,,21889.70000076294,response,,,,,,,,,,,,,,,,,continue,click button,,,338414,338405.70000076294,316498.8,316605.3000011444,316516,338316.628,,,,
trial,html.Screen,6_0_0,2024-03-07T17:14:14.982Z,,,,1,-1.1547137855907486,1.0185275168641534,,,true,hl,8172.272001525853,response,1.0003671514840182,1.2,-1.2,-0.8992716557663581,1.2,-1.2,high,low,,ISIC_7604870.JPG,,ISIC_0061749.JPG,,29,true,0.3600000000000002,hl,keypress(j),0,false,346496.10000038147,346488.9000015259,338316.628,338414.20000076294,338316.628,346406.3,1,40,1,
sequence,flow.Sequence,6_0,2024-03-07T17:14:14.982Z,,,,,,,,,,,8172.272001525853,completion,,,,,,,high,low,,,,,,,true,,,,,false,346496.3000011444,346488.9000015259,338316.628,338414.20000076294,338316.628,346406.3,1,40,,
trial,html.Screen,6_1_0,2024-03-07T17:14:30.993Z,,,,1,-1.2609895831255231,1.0687377724194886,,,,,16013.600000000035,timeout,1.11329866545753,1.2,-1.2,-1.2155631217348757,1.2,-1.2,high,low,,ISIC_1367610.JPG,,ISIC_0032610.JPG,,29,true,0.3600000000000002,,,0,false,362507.4000015259,362507.10000038147,346389.9,346496.3000011444,346406.3,362419.9,1,40,2,
sequence,flow.Sequence,6_1,2024-03-07T17:14:30.994Z,,,,,,,,,,,16100.800000381481,completion,,,,,,,high,low,,,,,,,true,,,,,false,362507.8000011444,362507.10000038147,346389.9,346496.3000011444,346406.3,362419.9,1,40,,
trial,html.Screen,6_2_0,2024-03-07T17:14:37.255Z,,,,1,-1.2232482867978696,-1.2451219760556858,,,false,hh,6348.900001144386,response,1.1432120973785689,1.2,-1.2,0.973254467915268,1.2,-1.2,high,high,,ISIC_0030889.JPG,,ISIC_2072219.JPG,,127,true,0.3300000000000002,hl,keypress(j),0,false,368769.4000015259,368768.8000011444,362403.2,362508,362419.9,368658.4,1,40,3,
sequence,flow.Sequence,6_2,2024-03-07T17:14:37.256Z,,,,,,,,,,,6348.900001144386,completion,,,,,,,high,high,,,,,,,true,,,,,false,368770.20000076294,368768.8000011444,362403.2,362508,362419.9,368658.4,1,40,,
trial,html.Screen,6_3_0,2024-03-07T17:14:51.143Z,,,,1,1.0959058628476686,1.2921331918483707,,,false,ll,13998.000001525856,response,-1.2059606637811695,1.2,-1.2,-1.214966446488752,1.2,-1.2,low,low,,ISIC_5920470.JPG,,ISIC_0013334.JPG,,27,true,0.12,hl,keypress(j),0,false,382656.8000011444,382656.4000015259,368654.29,368770.5,368658.4,382553.2,1,40,4,
sequence,flow.Sequence,6_3,2024-03-07T17:14:51.143Z,,,,,,,,,,,13998.000001525856,completion,,,,,,,low,low,,,,,,,true,,,,,false,382657.5,382656.4000015259,368654.29,368770.5,368658.4,382553.2,1,40,,
trial,html.Screen,6_4_0,2024-03-07T17:14:58.294Z,,,,1,1.073296525451802,1.3454282740421717,,,true,ll,7254.500000762928,response,-1.1711612520017805,1.2,-1.2,-1.191169949562454,1.2,-1.2,low,low,,ISIC_5787312.JPG,,ISIC_0061936.JPG,,41,true,0.15000000000000002,ll,keypress(f),0,false,389808.20000076294,389807.70000076294,382542.618,382658,382553.2,389709.7,1,40,5,
sequence,flow.Sequence,6_4,2024-03-07T17:14:58.295Z,,,,,,,,,,,7254.500000762928,completion,,,,,,,low,low,,,,,,,true,,,,,false,389808.8000011444,389807.70000076294,382542.618,382657.8000011444,382553.2,389709.7,1,40,,
trial,html.Screen,6_5_0,2024-03-07T17:15:01.988Z,,,,1,-1.2055236989581275,-1.1960893075698802,,,true,hh,3792.2999999999884,response,1.0581281450494728,1.2,-1.2,1.133169116569424,1.2,-1.2,high,high,,ISIC_0072393.JPG,,ISIC_5490352.JPG,,25,true,0.15000000000000002,hh,keypress(i),0,false,393502.10000038147,393502,389687.178,389809.10000038147,389709.7,393395.4,1,40,6,
sequence,flow.Sequence,6_5,2024-03-07T17:15:01.988Z,,,,,,,,,,,3792.2999999999884,completion,,,,,,,high,high,,,,,,,true,,,,,false,393502.3000011444,393502,389687.178,389809,389709.7,393395.4,1,40,,
trial,html.Screen,6_6_0,2024-03-07T17:15:04.790Z,,,,1,-1.152619213055059,-1.2957497771092716,,,true,hh,2908.5000015258556,response,1.0878102877901663,1.2,-1.2,1.3154097543539391,1.2,-1.2,high,high,,ISIC_0061915.JPG,,ISIC_1413242.JPG,,25,true,0.15000000000000002,hh,keypress(i),0,false,396304.3000011444,396303.9000015259,393379.2,393502.3000011444,393395.4,396231,1,40,7,
sequence,flow.Sequence,6_6,2024-03-07T17:15:04.791Z,,,,,,,,,,,2908.5000015258556,completion,,,,,,,high,high,,,,,,,true,,,,,false,396304.8000011444,396303.9000015259,393379.2,393502.3000011444,393395.4,396231,1,40,,
trial,html.Screen,6_7_0,2024-03-07T17:15:10.374Z,,,,1,1.1235224875125256,-0.8641223012137988,,,false,lh,5657.10000038147,response,-0.9873794329144926,1.2,-1.2,0.9500689037516484,1.2,-1.2,low,high,,ISIC_0033901.JPG,,ISIC_0013498.JPG,,26,true,0.3300000000000002,ll,keypress(f),0,false,401888.5,401888.10000038147,396228.62,396305.10000038147,396231,401785.7,1,40,8,
sequence,flow.Sequence,6_7,2024-03-07T17:15:10.375Z,,,,,,,,,,,5657.10000038147,completion,,,,,,,low,high,,,,,,,true,,,,,false,401889.20000076294,401888.10000038147,396228.62,396305.10000038147,396231,401785.7,1,40,,
trial,html.Screen,6_8_0,2024-03-07T17:15:16.903Z,,,,1,0.8479396253253069,-1.011054319516718,,,false,lh,6630.799999999988,response,-1.155796217969438,1.2,-1.2,1.1646564121743912,1.2,-1.2,low,high,,ISIC_0063521.JPG,,ISIC_2685523.JPG,,33,true,0.3600000000000002,ll,keypress(f),0,false,408417,408416.5,401782.318,401889.5,401785.7,408320.112,1,40,9,
sequence,flow.Sequence,6_8,2024-03-07T17:15:16.903Z,,,,,,,,,,,6630.799999999988,completion,,,,,,,low,high,,,,,,,true,,,,,false,408417.70000076294,408416.5,401782.318,401889.3000011444,401785.7,408320.112,1,40,,
trial,html.Screen,6_9_0,2024-03-07T17:15:22.212Z,,,,1,-1.296989496412063,1.1425074323097002,,,true,hl,5405.788001525856,response,0.8591294258188253,1.2,-1.2,-0.870797302150167,1.2,-1.2,high,low,,ISIC_6356803.JPG,,ISIC_0055841.JPG,,29,true,0.3600000000000002,hl,keypress(j),0,false,413726,413725.9000015259,408320.112,408417.9000015259,408320.112,413611.2,1,40,10,
sequence,flow.Sequence,6_9,2024-03-07T17:15:22.212Z,,,,,,,,,,,5405.788001525856,completion,,,,,,,high,low,,,,,,,true,,,,,false,413726.10000038147,413725.9000015259,408320.112,408417.9000015259,408320.112,413611.2,1,40,,
trial,html.Screen,6_10_0,2024-03-07T17:15:27.045Z,,,,1,1.3471772753257971,1.055978100098093,,,true,ll,4948.299999999988,response,-1.0561331896671369,1.2,-1.2,-1.026183861508091,1.2,-1.2,low,low,,ISIC_2077116.JPG,,ISIC_0026595.JPG,,211,true,0.3300000000000002,ll,keypress(f),0,false,418559.70000076294,418559.5,413609.062,413726.10000038147,413611.2,418449.4,1,40,11,
sequence,flow.Sequence,6_10,2024-03-07T17:15:27.046Z,,,,,,,,,,,4948.299999999988,completion,,,,,,,low,low,,,,,,,true,,,,,false,418560,418559.5,413609.062,413726.10000038147,413611.2,418449.4,1,40,,
trial,html.Screen,6_11_0,2024-03-07T17:15:31.542Z,,,,1,-1.2055236989581275,-1.1960893075698802,,,true,hh,4606.800000762916,response,1.204229955025689,1.2,-1.2,1.0874249761617445,1.2,-1.2,high,high,,ISIC_0072393.JPG,,ISIC_0056930.JPG,,25,true,0.15000000000000002,hh,keypress(i),0,false,423056.60000038147,423056.20000076294,418446.48,418560.20000076294,418449.4,422952.6,1,40,12,
sequence,flow.Sequence,6_11,2024-03-07T17:15:31.543Z,,,,,,,,,,,4606.800000762916,completion,,,,,,,high,high,,,,,,,true,,,,,false,423057.20000076294,423056.20000076294,418446.48,418560.10000038147,418449.4,422952.6,1,40,,
trial,html.Screen,6_12_0,2024-03-07T17:15:36.550Z,,,,1,1.1168199061753437,1.212287319329914,,,true,ll,5111.600000762963,response,-1.1711612520017805,1.2,-1.2,-1.191169949562454,1.2,-1.2,low,low,,ISIC_5919355.JPG,,ISIC_0061936.JPG,,27,true,0.12,ll,keypress(f),0,false,428064.60000038147,428064.20000076294,422936.8,423057.5,422952.6,427987.272,1,40,13,
sequence,flow.Sequence,6_12,2024-03-07T17:15:36.551Z,,,,,,,,,,,5111.600000762963,completion,,,,,,,low,low,,,,,,,true,,,,,false,428065.3000011444,428064.20000076294,422936.8,423057.4000015259,422952.6,427987.272,1,40,,
trial,html.Screen,6_13_0,2024-03-07T17:15:47.877Z,,,,1,-0.9212323139676136,0.9882196642247332,,,false,hl,11403.428000762942,response,1.11329866545753,1.2,-1.2,-1.2155631217348757,1.2,-1.2,high,low,,ISIC_0014255.JPG,,ISIC_0032610.JPG,,29,true,0.3600000000000002,ll,keypress(f),0,false,439390.8000011444,439390.70000076294,427987.272,428065.60000038147,427987.272,439291.488,1,40,14,
sequence,flow.Sequence,6_13,2024-03-07T17:15:47.877Z,,,,,,,,,,,11403.428000762942,completion,,,,,,,high,low,,,,,,,true,,,,,false,439391,439390.70000076294,427987.272,428065.5,427987.272,439291.488,1,40,,
trial,html.Screen,6_14_0,2024-03-07T17:15:52.423Z,,,,1,-1.2043484010107477,1.2178113180138233,,,false,hl,4644.912001525867,response,1.0143509683988825,1.2,-1.2,-1.0281980567462463,1.2,-1.2,high,low,,ISIC_0011917.JPG,,ISIC_0062031.JPG,,29,true,0.3600000000000002,ll,keypress(f),0,false,443936.8000011444,443936.4000015259,439291.488,439391.20000076294,439291.488,443837,1,40,15,
sequence,flow.Sequence,6_14,2024-03-07T17:15:52.423Z,,,,,,,,,,,4644.912001525867,completion,,,,,,,high,low,,,,,,,true,,,,,false,443937.5,443936.4000015259,439291.488,439391.10000038147,439291.488,443837,1,40,,
trial,html.Screen,6_15_0,2024-03-07T17:15:58.309Z,,,,1,1.4727776799485246,-0.8779113138076752,,,false,lh,5986.300001144409,response,-1.155796217969438,1.2,-1.2,1.1646564121743912,1.2,-1.2,low,high,,ISIC_0033074.JPG,,ISIC_2685523.JPG,,26,true,0.3300000000000002,hl,keypress(j),0,false,449823.60000038147,449823.3000011444,443833.092,443937.70000076294,443837,449708.6,1,40,16,
sequence,flow.Sequence,6_15,2024-03-07T17:15:58.310Z,,,,,,,,,,,5986.300001144409,completion,,,,,,,low,high,,,,,,,true,,,,,false,449823.9000015259,449823.3000011444,443833.092,443937.60000038147,443837,449708.6,1,40,,
trial,html.Screen,6_16_0,2024-03-07T17:16:03.539Z,,,,1,1.1305948371148624,1.2802709447034604,,,true,ll,5344.900000000023,response,-1.2137859487412823,1.2,-1.2,-0.9733061422664008,1.2,-1.2,low,low,,ISIC_5648111.JPG,,ISIC_2987613.JPG,,249,true,0.3600000000000002,ll,keypress(f),0,false,455053.5,455053.5,449704.562,449824.10000038147,449708.6,454945.2,1,40,17,
sequence,flow.Sequence,6_16,2024-03-07T17:16:03.539Z,,,,,,,,,,,5344.900000000023,completion,,,,,,,low,low,,,,,,,true,,,,,false,455053.60000038147,455053.5,449704.562,449824,449708.6,454945.2,1,40,,
trial,html.Screen,6_17_0,2024-03-07T17:16:14.327Z,,,,1,0.9087169856594104,-0.8835647084207277,,,true,lh,10895.600001144398,response,-1.2609895831255231,1.2,-1.2,1.0687377724194886,1.2,-1.2,low,high,,ISIC_0000349.JPG,,ISIC_1367610.JPG,,26,true,0.3300000000000002,lh,keypress(e),0,false,465841.20000076294,465840.8000011444,454942.354,455053.70000076294,454945.2,465738.3,1,40,18,
sequence,flow.Sequence,6_17,2024-03-07T17:16:14.328Z,,,,,,,,,,,10895.600001144398,completion,,,,,,,low,high,,,,,,,true,,,,,false,465842,465840.8000011444,454942.354,455053.60000038147,454945.2,465738.3,1,40,,
trial,html.Screen,6_18_0,2024-03-07T17:16:18.675Z,,,,1,-1.238264833797662,-1.176099940770289,,,false,hh,4451.200000000012,response,1.3045229691102764,1.2,-1.2,1.1781544075681951,1.2,-1.2,high,high,,ISIC_0032861.JPG,,ISIC_6148533.JPG,,157,true,0.3600000000000002,hl,keypress(j),0,false,470189.60000038147,470189.5,465730.442,465842.20000076294,465738.3,470074.3,1,40,19,
sequence,flow.Sequence,6_18,2024-03-07T17:16:18.675Z,,,,,,,,,,,4451.200000000012,completion,,,,,,,high,high,,,,,,,true,,,,,false,470189.70000076294,470189.5,465730.442,465842.10000038147,465738.3,470074.3,1,40,,
trial,html.Screen,6_19_0,2024-03-07T17:16:23.670Z,,,,1,1.11329866545753,-1.2155631217348757,,,false,lh,5110.000001144421,response,-1.1592423187534993,1.2,-1.2,1.067128884093211,1.2,-1.2,low,high,,ISIC_0032610.JPG,,ISIC_6854940.JPG,,26,true,0.3300000000000002,hh,keypress(i),0,false,475184.70000076294,475184.3000011444,470072.9,470189.70000076294,470074.3,475096.1,1,40,20,
sequence,flow.Sequence,6_19,2024-03-07T17:16:23.671Z,,,,,,,,,,,5110.000001144421,completion,,,,,,,low,high,,,,,,,true,,,,,false,475185.5,475184.3000011444,470072.9,470189.70000076294,470074.3,475096.1,1,40,,
trial,html.Screen,6_20_0,2024-03-07T17:16:31.796Z,,,,1,1.2838089642212804,-0.8550527900640753,,,true,lh,8214.400000000023,response,-0.9225524349657857,1.2,-1.2,0.929746784178986,1.2,-1.2,low,high,,ISIC_0034187.JPG,,ISIC_0011077.JPG,,33,true,0.3600000000000002,lh,keypress(e),0,false,483310.60000038147,483310.5,475091.94,475185.8000011444,475096.1,483203.2,1,40,21,
sequence,flow.Sequence,6_20,2024-03-07T17:16:31.797Z,,,,,,,,,,,8214.400000000023,completion,,,,,,,low,high,,,,,,,true,,,,,false,483311,483310.5,475091.94,475185.8000011444,475096.1,483203.2,1,40,,
trial,html.Screen,6_21_0,2024-03-07T17:16:40.486Z,,,,1,-1.1894733304494307,-1.1169761866204877,,,false,hh,8797.000000762928,response,0.967434313906551,1.2,-1.2,0.9078292667476092,1.2,-1.2,high,high,,ISIC_0033813.JPG,,ISIC_0011668.JPG,,157,true,0.3600000000000002,hl,keypress(j),0,false,492000.60000038147,492000.20000076294,483197.116,483311.20000076294,483203.2,491893.3,1,40,22,
sequence,flow.Sequence,6_21,2024-03-07T17:16:40.487Z,,,,,,,,,,,8797.000000762928,completion,,,,,,,high,high,,,,,,,true,,,,,false,492001.20000076294,492000.20000076294,483197.116,483311.10000038147,483203.2,491893.3,1,40,,
trial,html.Screen,6_22_0,2024-03-07T17:16:46.039Z,,,,1,-1.189469386514313,-1.3008582067137853,,,true,hh,5659.300000381481,response,1.204229955025689,1.2,-1.2,1.0874249761617445,1.2,-1.2,high,high,,ISIC_0010644.JPG,,ISIC_0056930.JPG,,25,true,0.15000000000000002,hh,keypress(i),0,false,497553,497552.60000038147,491887.226,492001.5,491893.3,497477.65,1,40,23,
sequence,flow.Sequence,6_22,2024-03-07T17:16:46.039Z,,,,,,,,,,,5659.300000381481,completion,,,,,,,high,high,,,,,,,true,,,,,false,497553.60000038147,497552.60000038147,491887.226,492001.5,491893.3,497477.65,1,40,,
trial,html.Screen,6_23_0,2024-03-07T17:16:51.958Z,,,,1,-0.9670240379618178,1.1806404773220665,,,false,hl,5994.550000762916,response,1.225025174430573,1.2,-1.2,-0.8422679054456499,1.2,-1.2,high,low,,ISIC_0002288.JPG,,ISIC_7503950.JPG,,29,true,0.3600000000000002,hh,keypress(i),0,false,503472.60000038147,503472.20000076294,497477.65,497553.9000015259,497477.65,503369.6,1,40,24,
sequence,flow.Sequence,6_23,2024-03-07T17:16:51.959Z,,,,,,,,,,,5994.550000762916,completion,,,,,,,high,low,,,,,,,true,,,,,false,503473.20000076294,503472.20000076294,497477.65,497553.8000011444,497477.65,503369.6,1,40,,
trial,html.Screen,6_24_0,2024-03-07T17:16:59.941Z,,,,1,-1.2059606637811695,-1.214966446488752,,,false,hh,8085.2000011444325,response,0.9133847107512522,1.2,-1.2,1.1467555629414397,1.2,-1.2,high,high,,ISIC_0013334.JPG,,ISIC_0032171.JPG,,127,true,0.3300000000000002,lh,keypress(e),0,false,511455,511454.8000011444,503352.8,503473.5,503369.6,511342.7,1,40,25,
sequence,flow.Sequence,6_24,2024-03-07T17:16:59.941Z,,,,,,,,,,,8085.2000011444325,completion,,,,,,,high,high,,,,,,,true,,,,,false,511455.20000076294,511454.8000011444,503352.8,503473.4000015259,503369.6,511342.7,1,40,,
trial,html.Screen,6_25_0,2024-03-07T17:17:03.717Z,,,,1,-1.1894733304494307,-1.1169761866204877,,,true,hh,3888.2000015258673,response,1.1305948371148624,1.2,-1.2,1.2802709447034604,1.2,-1.2,high,high,,ISIC_0033813.JPG,,ISIC_5648111.JPG,,25,true,0.15000000000000002,hh,keypress(i),0,false,515231.10000038147,515230.9000015259,511336.688,511455.3000011444,511342.7,515128.2,1,40,26,
sequence,flow.Sequence,6_25,2024-03-07T17:17:03.717Z,,,,,,,,,,,3888.2000015258673,completion,,,,,,,high,high,,,,,,,true,,,,,false,515231.5,515230.9000015259,511336.688,511455.20000076294,511342.7,515128.2,1,40,,
trial,html.Screen,6_26_0,2024-03-07T17:17:09.413Z,,,,1,0.8779374983479176,-0.9745548032823428,,,true,lh,5798.900000381458,response,-0.9212323139676136,1.2,-1.2,0.9882196642247332,1.2,-1.2,low,high,,ISIC_2991354.JPG,,ISIC_0014255.JPG,,26,true,0.3300000000000002,lh,keypress(e),0,false,520927.3000011444,520927.10000038147,515127.322,515231.60000038147,515128.2,520816.2,1,40,27,
sequence,flow.Sequence,6_26,2024-03-07T17:17:09.413Z,,,,,,,,,,,5798.900000381458,completion,,,,,,,low,high,,,,,,,true,,,,,false,520927.5,520927.10000038147,515127.322,515231.60000038147,515128.2,520816.2,1,40,,
trial,html.Screen,6_27_0,2024-03-07T17:17:14.039Z,,,,1,-0.9046170303418553,1.0063426986460375,,,true,hl,4736.200001525867,response,0.8644465729542988,1.2,-1.2,-0.8679598285079457,1.2,-1.2,high,low,,ISIC_0055759.JPG,,ISIC_6718969.JPG,,29,true,0.3600000000000002,hl,keypress(j),0,false,525552.8000011444,525552.4000015259,520813.68,520927.60000038147,520816.2,525454.2,1,40,28,
sequence,flow.Sequence,6_27,2024-03-07T17:17:14.039Z,,,,,,,,,,,4736.200001525867,completion,,,,,,,high,low,,,,,,,true,,,,,false,525553.3000011444,525552.4000015259,520813.68,520927.60000038147,520816.2,525454.2,1,40,,
trial,html.Screen,6_28_0,2024-03-07T17:17:24.871Z,,,,1,0.9087169856594104,-0.8835647084207277,,,false,lh,10930.200001525925,response,-0.9873794329144926,1.2,-1.2,0.9500689037516484,1.2,-1.2,low,high,,ISIC_0000349.JPG,,ISIC_0013498.JPG,,26,true,0.3300000000000002,ll,keypress(f),0,false,536384.9000015259,536384.4000015259,525451.688,525553.6000003815,525454.2,536280,1,40,29,
sequence,flow.Sequence,6_28,2024-03-07T17:17:24.871Z,,,,,,,,,,,10930.200001525925,completion,,,,,,,low,high,,,,,,,true,,,,,false,536385.5,536384.4000015259,525451.688,525553.5,525454.2,536280,1,40,,
trial,html.Screen,6_29_0,2024-03-07T17:17:28.182Z,,,,1,-1.3132505134129506,-1.0949928516457437,,,true,hh,3416.1000003814697,response,0.9493297220358412,1.2,-1.2,1.3285927343371364,1.2,-1.2,high,high,,ISIC_0066935.JPG,,ISIC_9738202.JPG,,157,true,0.3600000000000002,hh,keypress(i),0,false,539696.6000003815,539696.1000003815,536271.664,536385.7000007629,536280,539615.9,1,40,30,
sequence,flow.Sequence,6_29,2024-03-07T17:17:28.183Z,,,,,,,,,,,3416.1000003814697,completion,,,,,,,high,high,,,,,,,true,,,,,false,539697.2000007629,539696.1000003815,536271.664,536385.6000003815,536280,539615.9,1,40,,
trial,html.Screen,6_30_0,2024-03-07T17:17:37.927Z,,,,1,1.3411487193830047,-1.198640448317381,,,false,lh,9824.599999999977,response,-1.0822170028935367,1.2,-1.2,1.1654796154432183,1.2,-1.2,low,high,,ISIC_3093026.JPG,,ISIC_7288818.JPG,,26,true,0.3300000000000002,ll,keypress(f),0,false,549440.9000015259,549440.5,539614.44,539697.5,539615.9,549340.7,1,40,31,
sequence,flow.Sequence,6_30,2024-03-07T17:17:37.927Z,,,,,,,,,,,9824.599999999977,completion,,,,,,,low,high,,,,,,,true,,,,,false,549441.6000003815,549440.5,539614.44,539697.4000015259,539615.9,549340.7,1,40,,
trial,html.Screen,6_31_0,2024-03-07T17:17:42.806Z,,,,1,-1.155796217969438,1.1646564121743912,,,false,hl,4979.000000762986,response,1.1235224875125256,1.2,-1.2,-0.8641223012137988,1.2,-1.2,high,low,,ISIC_2685523.JPG,,ISIC_0033901.JPG,,29,true,0.3600000000000002,ll,keypress(f),0,false,554320.2000007629,554319.7000007629,549333.408,549441.9000015259,549340.7,554211.5,1,40,32,
sequence,flow.Sequence,6_31,2024-03-07T17:17:42.806Z,,,,,,,,,,,4979.000000762986,completion,,,,,,,high,low,,,,,,,true,,,,,false,554320.7000007629,554319.7000007629,549333.408,549441.8000011444,549340.7,554211.5,1,40,,
trial,html.Screen,6_32_0,2024-03-07T17:17:46.310Z,,,,1,1.204229955025689,1.0874249761617445,,,true,ll,3612.900001525879,response,-1.4034613870249286,1.2,-1.2,-0.964619808646792,1.2,-1.2,low,low,,ISIC_0056930.JPG,,ISIC_0011364.JPG,,211,true,0.3300000000000002,ll,keypress(f),0,false,557824.8000011444,557824.4000015259,554208.502,554321.1000003815,554211.5,557715.4,1,40,33,
sequence,flow.Sequence,6_32,2024-03-07T17:17:46.311Z,,,,,,,,,,,3612.900001525879,completion,,,,,,,low,low,,,,,,,true,,,,,false,557825.4000015259,557824.4000015259,554208.502,554320.9000015259,554211.5,557715.4,1,40,,
trial,html.Screen,6_33_0,2024-03-07T17:17:49.447Z,,,,1,1.0878102877901663,1.3154097543539391,,,true,ll,3245.0999999999767,response,-1.094624209823328,1.2,-1.2,-1.0544499428769605,1.2,-1.2,low,low,,ISIC_1413242.JPG,,ISIC_0055526.JPG,,41,true,0.15000000000000002,ll,keypress(f),0,false,560960.9000015259,560960.5,557712.8,557825.7000007629,557715.4,560866.8,1,40,34,
sequence,flow.Sequence,6_33,2024-03-07T17:17:49.447Z,,,,,,,,,,,3245.0999999999767,completion,,,,,,,low,low,,,,,,,true,,,,,false,560961.5,560960.5,557712.8,557825.6000003815,557715.4,560866.8,1,40,,
trial,html.Screen,6_34_0,2024-03-07T17:17:54.006Z,,,,1,-1.082730232773217,0.8833175387485132,,,true,hl,4653.300000381423,response,0.9013888878932071,1.2,-1.2,-0.9328095253308732,1.2,-1.2,high,low,,ISIC_0011933.JPG,,ISIC_0068259.JPG,,29,true,0.3600000000000002,hl,keypress(j),0,false,565520.6000003815,565520.1000003815,560865.274,560961.7000007629,560866.8,565421.3,1,40,35,
sequence,flow.Sequence,6_34,2024-03-07T17:17:54.007Z,,,,,,,,,,,4653.300000381423,completion,,,,,,,high,low,,,,,,,true,,,,,false,565521.1000003815,565520.1000003815,560865.274,560961.7000007629,560866.8,565421.3,1,40,,
trial,html.Screen,6_35_0,2024-03-07T17:18:02.324Z,,,,1,1.1363600109870835,1.295816345369928,,,true,ll,8416.600001525832,response,-1.0163868413625183,1.2,-1.2,-1.403674139754067,1.2,-1.2,low,low,,ISIC_0026141.JPG,,ISIC_0016114.JPG,,211,true,0.3300000000000002,ll,keypress(f),0,false,573838.1000003815,573837.9000015259,565401.426,565521.5,565421.3,573726.5,1,40,36,
sequence,flow.Sequence,6_35,2024-03-07T17:18:02.324Z,,,,,,,,,,,8416.600001525832,completion,,,,,,,low,low,,,,,,,true,,,,,false,573838.2000007629,573837.9000015259,565401.426,565521.4000015259,565421.3,573726.5,1,40,,
trial,html.Screen,6_36_0,2024-03-07T17:18:09.684Z,,,,1,1.301795918505203,1.0518606632781424,,,true,ll,7471.400001525879,response,-1.1894733304494307,1.2,-1.2,-1.1169761866204877,1.2,-1.2,low,low,,ISIC_0027666.JPG,,ISIC_0033813.JPG,,41,true,0.15000000000000002,ll,keypress(f),0,false,581198,581197.9000015259,573721.564,573838.3000011444,573726.5,581082.7,1,40,37,
sequence,flow.Sequence,6_36,2024-03-07T17:18:09.684Z,,,,,,,,,,,7471.400001525879,completion,,,,,,,low,low,,,,,,,true,,,,,false,581198.1000003815,581197.9000015259,573721.564,573838.3000011444,573726.5,581082.7,1,40,,
trial,html.Screen,6_37_0,2024-03-07T17:18:16.644Z,,,,1,-0.9212323139676136,0.9882196642247332,,,true,hl,7075.7000015259255,response,0.849847885203758,1.2,-1.2,-0.973447384095442,1.2,-1.2,high,low,,ISIC_0014255.JPG,,ISIC_9612228.JPG,,29,true,0.3600000000000002,hl,keypress(j),0,false,588158.4000015259,588158.4000015259,581078.646,581198.1000003815,581082.7,588056.1,1,40,38,
sequence,flow.Sequence,6_37,2024-03-07T17:18:16.644Z,,,,,,,,,,,7075.7000015259255,completion,,,,,,,high,low,,,,,,,true,,,,,false,588158.6000003815,588158.4000015259,581078.646,581198.1000003815,581082.7,588056.1,1,40,,
trial,html.Screen,6_38_0,2024-03-07T17:18:23.827Z,,,,1,1.2615315960773072,-1.194084675079932,,,true,lh,7285.600000762963,response,-1.0264463986917702,1.2,-1.2,1.171271535505083,1.2,-1.2,low,high,,ISIC_0010044.JPG,,ISIC_7889838.JPG,,26,true,0.3300000000000002,lh,keypress(e),0,false,595341.8000011444,595341.7000007629,588049.862,588158.6000003815,588056.1,595227.6,1,40,39,
sequence,flow.Sequence,6_38,2024-03-07T17:18:23.828Z,,,,,,,,,,,7285.600000762963,completion,,,,,,,low,high,,,,,,,true,,,,,false,595341.9000015259,595341.7000007629,588049.862,588158.6000003815,588056.1,595227.6,1,40,,
trial,html.Screen,6_39_0,2024-03-07T17:18:26.964Z,,,,1,1.301795918505203,1.0518606632781424,,,true,ll,3250.7000011444325,response,-1.023702319483283,1.2,-1.2,-0.8767219558395388,1.2,-1.2,low,low,,ISIC_0027666.JPG,,ISIC_0064986.JPG,,249,true,0.3600000000000002,ll,keypress(f),0,false,598478.3000011444,598478.3000011444,595223.82,595341.9000015259,595227.6,598363.5,1,40,40,
sequence,flow.Sequence,6_39,2024-03-07T17:18:26.964Z,,,,,,,,,,,3250.7000011444325,completion,,,,,,,low,low,,,,,,,true,,,,,false,598478.4000015259,598478.3000011444,595223.82,595341.9000015259,595227.6,598363.5,1,40,,
practice_loop,flow.Loop,6,2024-03-07T17:18:26.964Z,,,,,,,,,,,260161.67200114438,completion,,,,,,,,,,,,,,,true,,,,,false,598478.4000015259,598478.3000011444,338316.628,338414.20000076294,338316.628,598363.5,1,40,,
stair_instructions,html.Screen,7,2024-03-07T17:18:47.796Z,,,,,,,,,,,20946.40000152588,response,,,,,,,,,,,,,,,,,continue,click button,,,619310.6000003815,619309.9000015259,598361.648,598478.4000015259,598363.5,619215.862,,,,
trial,html.Screen,8_0_0,2024-03-07T17:18:57.951Z,,,,2,0.010035581303589,-0.0100711721396864,,0.04,false,hl,10249.338000762975,response,0.9013888878932071,1.2,-1.2,-0.9328095253308732,1.2,-1.2,high,low,,ISIC_0030592.JPG,,ISIC_0068259.JPG,28,29,false,0.3600000000000002,hh,keypress(i),0,true,629465.3000011444,629465.2000007629,619215.862,619310.7000007629,619215.862,629372.1,1,40,1,
sequence,flow.Sequence,8_0,2024-03-07T17:18:57.951Z,,,,,,,,,,,10249.338000762975,completion,,,,,,,high,low,,,,,,,false,,,,,true,629465.5,629465.2000007629,619215.862,619310.7000007629,619215.862,629372.1,1,40,,
trial,html.Screen,8_1_0,2024-03-07T17:19:02.662Z,,,,2,-0.0060918352854008,0.029032683404407,,0.04,true,hh,4803.800001525902,response,1.1990772227054871,1.15,-1.15,1.1224329926844498,1.15,-1.2,high,high,,ISIC_8436194.JPG,,ISIC_3425388.JPG,28,26,false,0.14,hh,keypress(i),0,true,634176,634175.9000015259,629357.3,629465.6000003815,629372.1,634059.6,1,40,2,
sequence,flow.Sequence,8_1,2024-03-07T17:19:02.662Z,,,,,,,,,,,4803.800001525902,completion,,,,,,,high,high,,,,,,,false,,,,,true,634176.1000003815,634175.9000015259,629357.3,629465.6000003815,629372.1,634059.6,1,40,,
trial,html.Screen,8_2_0,2024-03-07T17:19:11.492Z,,,,2,-0.0350697500805515,-0.0166617848231997,,0.04,false,lh,8946.400000000023,response,-1.052305774554686,1.1107551076949684,-1.15,1.3940181224717798,1.15,-1.15,low,high,,ISIC_0024423.JPG,,ISIC_4175400.JPG,28,25,false,0.28000000000000014,hh,keypress(i),0,true,643006.1000003815,643006,634057.252,634176.1000003815,634059.6,642900.2,1,40,3,
sequence,flow.Sequence,8_2,2024-03-07T17:19:11.492Z,,,,,,,,,,,8946.400000000023,completion,,,,,,,low,high,,,,,,,false,,,,,true,643006.3000011444,643006,634057.252,634176.1000003815,634059.6,642900.2,1,40,,
trial,html.Screen,8_3_0,2024-03-07T17:19:19.284Z,,,,2,0.0199897690678184,0.0312486875504497,,0.04,true,hh,7897.600001144456,response,1.0064329161780483,1.1107551076949684,-1.15,1.0631481857644678,1.1582255575781146,-1.15,high,high,,ISIC_5482426.JPG,,ISIC_0033137.JPG,28,25,false,0.13,hh,keypress(i),0,true,650798,650797.8000011444,642883.7,643006.4000015259,642900.2,650690.2,1,40,4,
sequence,flow.Sequence,8_3,2024-03-07T17:19:19.284Z,,,,,,,,,,,7897.600001144456,completion,,,,,,,high,high,,,,,,,false,,,,,true,650798.1000003815,650797.8000011444,642883.7,643006.3000011444,642900.2,650690.2,1,40,,
trial,html.Screen,8_4_0,2024-03-07T17:19:26.453Z,,,,2,-0.012810673904807,0.00400964452501,,0.04,true,hh,7276.600001144456,response,1.1655508270784471,1.1107551076949684,-1.15,1.1162776063248168,1.1582255575781146,-1.15,high,high,,ISIC_0064656.JPG,,ISIC_5509946.JPG,28,25,false,0.13,hh,keypress(i),0,true,657967,657966.8000011444,650674.5,650798.2000007629,650690.2,657862.3,1,40,5,
sequence,flow.Sequence,8_4,2024-03-07T17:19:26.453Z,,,,,,,,,,,7276.600001144456,completion,,,,,,,high,high,,,,,,,false,,,,,true,657967.1000003815,657966.8000011444,650674.5,650798.2000007629,650690.2,657862.3,1,40,,
trial,html.Screen,8_5_0,2024-03-07T17:19:31.652Z,,,,2,0.0127320821962457,-0.0315308940184827,,0.04,true,hl,5303.699999999953,response,1.2615315960773072,1.0397128960446422,-1.15,-1.194084675079932,1.0397128960446422,-1.15,high,low,,ISIC_8156101.JPG,,ISIC_0010044.JPG,28,27,false,0.29000000000000015,hl,keypress(j),0,true,663166,663166,657857.32,657967.2000007629,657862.3,663050.2,1,40,6,
sequence,flow.Sequence,8_5,2024-03-07T17:19:31.652Z,,,,,,,,,,,5303.699999999953,completion,,,,,,,high,low,,,,,,,false,,,,,true,663166.1000003815,663166,657857.32,657967.2000007629,657862.3,663050.2,1,40,,
trial,html.Screen,8_6_0,2024-03-07T17:19:37.959Z,,,,2,-0.0166849894750452,0.0371614812368835,,0.04,true,lh,6422.900000381516,response,-0.9566823908868002,1.0397128960446422,-1.15,0.9602125665128364,1.0397128960446422,-1.15,low,high,,ISIC_6231450.JPG,,ISIC_0056784.JPG,28,26,false,0.2600000000000001,lh,keypress(e),0,true,669473.6000003815,669473.1000003815,663046.666,663166.1000003815,663050.2,669373,1,40,7,
sequence,flow.Sequence,8_6,2024-03-07T17:19:37.960Z,,,,,,,,,,,6422.900000381516,completion,,,,,,,low,high,,,,,,,false,,,,,true,669474.2000007629,669473.1000003815,663046.666,663166.1000003815,663050.2,669373,1,40,,
trial,html.Screen,8_7_0,2024-03-07T17:19:46.007Z,,,,2,0.0327772618698018,-0.0056908372048728,,0.04,true,lh,8147.800001144409,response,-0.9235571765207048,1.0397128960446422,-1.15,0.7832040253954599,1.0397128960446422,-1.15,low,high,,ISIC_7897925.JPG,,ISIC_8796632.JPG,28,26,false,0.2600000000000001,lh,keypress(e),0,true,677521.2000007629,677520.8000011444,669367.454,669474.5,669373,677413.1,1,40,8,
sequence,flow.Sequence,8_7,2024-03-07T17:19:46.007Z,,,,,,,,,,,8147.800001144409,completion,,,,,,,low,high,,,,,,,false,,,,,true,677521.8000011444,677520.8000011444,669367.454,669474.4000015259,669373,677413.1,1,40,,
trial,html.Screen,8_8_0,2024-03-07T17:19:51.620Z,,,,2,0.0086413421586899,0.0360184993500958,,0.04,true,hh,5721.500000381493,response,1.030110396260192,1.0397128960446422,-1.0999999999999999,0.7499544059059257,0.8217082959541481,-1.15,high,high,,ISIC_0010767.JPG,,ISIC_2479134.JPG,28,30,false,0.1,hh,keypress(i),0,true,683134.8000011444,683134.6000003815,677407.142,677522.1000003815,677413.1,683033.7,1,40,9,
sequence,flow.Sequence,8_8,2024-03-07T17:19:51.621Z,,,,,,,,,,,5721.500000381493,completion,,,,,,,high,high,,,,,,,false,,,,,true,683135,683134.6000003815,677407.142,677522,677413.1,683033.7,1,40,,
trial,html.Screen,8_9_0,2024-03-07T17:19:59.190Z,,,,2,0.0361875505619981,-0.0291457404567876,,0.04,false,hl,7670.2000015259255,response,0.8494721812820843,0.8400324010830589,-1.0999999999999999,-1.3435429139974266,0.8217082959541481,-1.15,high,low,,ISIC_0027480.JPG,,ISIC_0033585.JPG,28,28,false,0.22000000000000008,ll,keypress(f),0,true,690704.3000011444,690703.9000015259,683014.316,683135.1000003815,683033.7,690590.6,1,40,10,
sequence,flow.Sequence,8_9,2024-03-07T17:19:59.190Z,,,,,,,,,,,7670.2000015259255,completion,,,,,,,high,low,,,,,,,false,,,,,true,690704.6000003815,690703.9000015259,683014.316,683135.1000003815,683033.7,690590.6,1,40,,
trial,html.Screen,8_10_0,2024-03-07T17:20:04.855Z,,,,2,-0.0158987717472563,-0.0292472192292015,,0.04,true,hl,5778.400000000023,response,0.8534691366511764,0.8900324010830589,-1.0999999999999999,-1.276663727068437,0.8217082959541481,-1.0999999999999999,high,low,,ISIC_1366765.JPG,,ISIC_0056788.JPG,28,25,false,0.22000000000000008,hl,keypress(j),0,true,696369.5,696369,690585.072,690704.8000011444,690590.6,696261.8,1,40,11,
sequence,flow.Sequence,8_10,2024-03-07T17:20:04.856Z,,,,,,,,,,,5778.400000000023,completion,,,,,,,high,low,,,,,,,false,,,,,true,696370.1000003815,696369,690585.072,690704.7000007629,690590.6,696261.8,1,40,,
trial,html.Screen,8_11_0,2024-03-07T17:20:11.847Z,,,,2,0.0365981355399771,0.0162670920008846,,0.04,false,lh,7098.900000762893,response,-1.011242755434436,0.8900324010830589,-1.0999999999999999,0.7314289497713841,0.8217082959541481,-1.0999999999999999,low,high,,ISIC_0982855.JPG,,ISIC_0966527.JPG,28,27,false,0.18000000000000005,ll,keypress(f),0,true,703361.2000007629,703360.7000007629,696258.28,696370.4000015259,696261.8,703251.1,1,40,12,
sequence,flow.Sequence,8_11,2024-03-07T17:20:11.847Z,,,,,,,,,,,7098.900000762893,completion,,,,,,,low,high,,,,,,,false,,,,,true,703361.8000011444,703360.7000007629,696258.28,696370.3000011444,696261.8,703251.1,1,40,,
trial,html.Screen,8_12_0,2024-03-07T17:20:17.543Z,,,,2,-0.00126575685933,-0.0325046559638838,,0.04,false,hh,5805.600000762963,response,0.9416900312335138,0.8900324010830589,-1.0999999999999999,0.9485840589720004,0.8717082959541481,-1.0999999999999999,high,high,,ISIC_5682259.JPG,,ISIC_2784686.JPG,28,49,false,0.1,ll,keypress(f),0,true,709057.1000003815,709056.7000007629,703246.494,703362.1000003815,703251.1,708955.7,1,40,13,
sequence,flow.Sequence,8_12,2024-03-07T17:20:17.543Z,,,,,,,,,,,5805.600000762963,completion,,,,,,,high,high,,,,,,,false,,,,,true,709057.6000003815,709056.7000007629,703246.494,703362,703251.1,708955.7,1,40,,
trial,html.Screen,8_13_0,2024-03-07T17:20:22.199Z,,,,2,-0.0350697500805515,-0.0166617848231997,,0.04,false,hl,4756.800000000047,response,0.9039158082670506,0.940032401083059,-1.0999999999999999,-1.0517562064343149,0.9217082959541482,-1.0999999999999999,high,low,,ISIC_0024423.JPG,,ISIC_0015411.JPG,28,26,false,0.2300000000000001,hh,keypress(i),0,true,713712.9000015259,713712.5,708951.902,709057.9000015259,708955.7,713609.6,1,40,14,
sequence,flow.Sequence,8_13,2024-03-07T17:20:22.199Z,,,,,,,,,,,4756.800000000047,completion,,,,,,,high,low,,,,,,,false,,,,,true,713713.5,713712.5,708951.902,709057.8000011444,708955.7,713609.6,1,40,,
trial,html.Screen,8_14_0,2024-03-07T17:20:25.159Z,,,,2,0.0327772618698018,-0.0056908372048728,,0.04,true,ll,3063.1000007629627,response,-1.1227373144244253,0.940032401083059,-1.0999999999999999,-1.1886610799377713,0.9217082959541482,-1.15,low,low,,ISIC_7897925.JPG,,ISIC_0059506.JPG,28,29,false,0.11,ll,keypress(f),0,true,716673.2000007629,716672.7000007629,713606.854,713713.7000007629,713609.6,716562,1,40,15,
sequence,flow.Sequence,8_14,2024-03-07T17:20:25.159Z,,,,,,,,,,,3063.1000007629627,completion,,,,,,,low,low,,,,,,,false,,,,,true,716673.7000007629,716672.7000007629,713606.854,713713.7000007629,713609.6,716562,1,40,,
trial,html.Screen,8_15_0,2024-03-07T17:20:37.124Z,,,,2,-0.0077673378094614,-0.0021810768579373,,0.04,false,lh,12076.5,response,-1.135372722680314,0.940032401083059,-1.1056991971810983,0.7741624649032207,0.9217082959541482,-1.15,low,high,,ISIC_0067621.JPG,,ISIC_2355513.JPG,28,28,false,0.22000000000000008,hh,keypress(i),0,true,728638.7000007629,728638.5,716560.322,716674,716562,728529.562,1,40,16,
sequence,flow.Sequence,8_15,2024-03-07T17:20:37.124Z,,,,,,,,,,,12076.5,completion,,,,,,,low,high,,,,,,,false,,,,,true,728638.8000011444,728638.5,716560.322,716674,716562,728529.562,1,40,,
trial,html.Screen,8_16_0,2024-03-07T17:20:43.334Z,,,,2,-0.00126575685933,-0.0325046559638838,,0.04,true,lh,6318.9379999999655,response,-1.2313629723857695,0.940032401083059,-1.1556991971810984,0.8233104214456342,0.9217082959541482,-1.15,low,high,,ISIC_5682259.JPG,,ISIC_3475660.JPG,28,26,false,0.2400000000000001,lh,keypress(e),0,true,734848.9000015259,734848.5,728529.562,728638.8000011444,728529.562,734743.7,1,40,17,
sequence,flow.Sequence,8_16,2024-03-07T17:20:43.335Z,,,,,,,,,,,6318.9379999999655,completion,,,,,,,low,high,,,,,,,false,,,,,true,734849.6000003815,734848.5,728529.562,728638.8000011444,728529.562,734743.7,1,40,,
trial,html.Screen,8_17_0,2024-03-07T17:20:49.381Z,,,,2,0.0367218428225813,-0.0026956749740767,,0.04,false,hl,6151.600001144456,response,1.064425982109969,0.940032401083059,-1.1556991971810984,-0.958564243697126,0.8717082959541481,-1.15,high,low,,ISIC_7212271.JPG,,ISIC_3203344.JPG,28,25,false,0.2600000000000001,hh,keypress(i),0,true,740895.6000003815,740895.3000011444,734739.692,734849.8000011444,734743.7,740780.9,1,40,18,
sequence,flow.Sequence,8_17,2024-03-07T17:20:49.381Z,,,,,,,,,,,6151.600001144456,completion,,,,,,,high,low,,,,,,,false,,,,,true,740895.8000011444,740895.3000011444,734739.692,734849.7000007629,734743.7,740780.9,1,40,,
trial,html.Screen,8_18_0,2024-03-07T17:20:54.677Z,,,,2,-0.0166849894750452,0.0371614812368835,,0.04,true,hh,5410.700000381446,response,0.7938518256595252,0.8900324010830589,-1.1556991971810984,0.7824087886010256,0.8717082959541481,-1.15,high,high,,ISIC_6231450.JPG,,ISIC_2426937.JPG,28,49,false,0.1,hh,keypress(i),0,true,746191.9000015259,746191.6000003815,740777.922,740895.9000015259,740780.9,746086.4,1,40,19,
sequence,flow.Sequence,8_18,2024-03-07T17:20:54.678Z,,,,,,,,,,,5410.700000381446,completion,,,,,,,high,high,,,,,,,false,,,,,true,746192.2000007629,746191.6000003815,740777.922,740895.9000015259,740780.9,746086.4,1,40,,
trial,html.Screen,8_19_0,2024-03-07T17:21:03.479Z,,,,2,0.0051046740562181,-0.0178832721027728,,0.04,true,ll,8906.599999999977,response,-1.089914260719518,0.8900324010830589,-1.1556991971810984,-1.1695563571046357,0.8717082959541481,-1.15,low,low,,ISIC_9545819.JPG,,ISIC_0030695.JPG,28,30,false,0.12,ll,keypress(f),0,true,754993.4000015259,754993,746081.718,746192.3000011444,746086.4,754893.6,1,40,20,
sequence,flow.Sequence,8_19,2024-03-07T17:21:03.480Z,,,,,,,,,,,8906.599999999977,completion,,,,,,,low,low,,,,,,,false,,,,,true,754994.1000003815,754993,746081.718,746192.3000011444,746086.4,754893.6,1,40,,
trial,html.Screen,8_20_0,2024-03-07T17:21:06.503Z,,,,2,-0.0166849894750452,0.0371614812368835,,0.04,false,lh,3123.6000007629627,response,-0.9147541456900236,0.8900324010830589,-1.079735308912077,0.7003745893096066,0.8717082959541481,-1.15,low,high,,ISIC_6231450.JPG,,ISIC_0000394.JPG,28,25,false,0.18000000000000005,ll,keypress(f),0,true,758017.8000011444,758017.2000007629,754887.388,754994.4000015259,754893.6,757912.8,1,40,21,
sequence,flow.Sequence,8_20,2024-03-07T17:21:06.504Z,,,,,,,,,,,3123.6000007629627,completion,,,,,,,low,high,,,,,,,false,,,,,true,758018.6000003815,758017.2000007629,754887.388,754994.4000015259,754893.6,757912.8,1,40,,
trial,html.Screen,8_21_0,2024-03-07T17:21:08.614Z,,,,2,-0.0350697500805515,-0.0166617848231997,,0.04,true,ll,2215.5000011443626,response,-1.1671212908494544,0.8900324010830589,-1.079735308912077,-1.1286681796701683,0.9217082959541482,-1.15,low,low,,ISIC_0024423.JPG,,ISIC_0065022.JPG,28,26,false,0.1,ll,keypress(f),0,true,760128.8000011444,760128.3000011444,757895.1,758019,757912.8,760014.6,1,40,22,
sequence,flow.Sequence,8_21,2024-03-07T17:21:08.615Z,,,,,,,,,,,2215.5000011443626,completion,,,,,,,low,low,,,,,,,false,,,,,true,760129.3000011444,760128.3000011444,757895.1,758018.9000015259,757912.8,760014.6,1,40,,
trial,html.Screen,8_22_0,2024-03-07T17:21:12.453Z,,,,2,0.0327772618698018,-0.0056908372048728,,0.04,true,ll,3952.800001525902,response,-0.9506699737853276,0.8900324010830589,-0.9717111626800958,-0.988934053363149,0.9217082959541482,-0.9717111626800958,low,low,,ISIC_7897925.JPG,,ISIC_0014217.JPG,28,50,false,0.1,ll,keypress(f),0,true,763967.5,763967.4000015259,760013.712,760129.6000003815,760014.6,763850,1,40,23,
sequence,flow.Sequence,8_22,2024-03-07T17:21:12.453Z,,,,,,,,,,,3952.800001525902,completion,,,,,,,low,low,,,,,,,false,,,,,true,763967.8000011444,763967.4000015259,760013.712,760129.5,760014.6,763850,1,40,,
trial,html.Screen,8_23_0,2024-03-07T17:21:15.048Z,,,,2,-0.0077673378094614,-0.0021810768579373,,0.04,true,ll,2711.400001525879,response,-0.9738365957110542,0.8900324010830589,-0.9717111626800958,-0.9145475604754156,0.9217082959541482,-0.9717111626800958,low,low,,ISIC_0067621.JPG,,ISIC_3435596.JPG,28,50,false,0.1,ll,keypress(f),0,true,766562,766561.4000015259,763848.92,763967.8000011444,763850,766453.2,1,40,24,
sequence,flow.Sequence,8_23,2024-03-07T17:21:15.048Z,,,,,,,,,,,2711.400001525879,completion,,,,,,,low,low,,,,,,,false,,,,,true,766562.7000007629,766561.4000015259,763848.92,763967.8000011444,763850,766453.2,1,40,,
trial,html.Screen,8_24_0,2024-03-07T17:21:21.236Z,,,,2,-0.0060934073440827,-0.0279108145883031,,0.04,false,hh,6297.100001144456,response,0.8682932893841188,0.8900324010830589,-0.9017408069192823,0.949897846123557,0.9217082959541482,-0.9017408069192823,high,high,,ISIC_0032604.JPG,,ISIC_0033229.JPG,28,37,false,0.1,hl,keypress(j),0,true,772750.4000015259,772750.3000011444,766437,766563,766453.2,772640.7,1,40,25,
sequence,flow.Sequence,8_24,2024-03-07T17:21:21.236Z,,,,,,,,,,,6297.100001144456,completion,,,,,,,high,high,,,,,,,false,,,,,true,772750.6000003815,772750.3000011444,766437,766562.9000015259,766453.2,772640.7,1,40,,
trial,html.Screen,8_25_0,2024-03-07T17:21:25.268Z,,,,2,0.0199897690678184,0.0312486875504497,,0.04,true,ll,4141.600001144456,response,-0.8868080718134892,0.8400324010830589,-0.9017408069192823,-0.8837963869804757,0.9717082959541482,-0.9017408069192823,low,low,,ISIC_5482426.JPG,,ISIC_0068895.JPG,28,57,false,0.1,ll,keypress(f),0,true,776782.6000003815,776782.3000011444,772624.9,772750.7000007629,772640.7,776677.3,1,40,26,
sequence,flow.Sequence,8_25,2024-03-07T17:21:25.268Z,,,,,,,,,,,4141.600001144456,completion,,,,,,,low,low,,,,,,,false,,,,,true,776782.7000007629,776782.3000011444,772624.9,772750.6000003815,772640.7,776677.3,1,40,,
trial,html.Screen,8_26_0,2024-03-07T17:21:29.206Z,,,,2,-0.0060918352854008,0.029032683404407,,0.04,false,hl,4043.300000381423,response,0.7401156491866404,0.8400324010830589,-0.9017408069192823,-0.8169638598102704,0.9717082959541482,-0.9017408069192823,high,low,,ISIC_8436194.JPG,,ISIC_0072429.JPG,28,27,false,0.13,hh,keypress(i),0,true,780720.9000015259,780720.6000003815,776660.4,776782.7000007629,776677.3,780614.9,1,40,27,
sequence,flow.Sequence,8_26,2024-03-07T17:21:29.207Z,,,,,,,,,,,4043.300000381423,completion,,,,,,,high,low,,,,,,,false,,,,,true,780721.6000003815,780720.6000003815,776660.4,776782.7000007629,776677.3,780614.9,1,40,,
trial,html.Screen,8_27_0,2024-03-07T17:21:32.966Z,,,,2,-0.0350697500805515,-0.0166617848231997,,0.04,false,hh,3865.5000015258556,response,0.77266095910939,0.8400324010830589,-0.9017408069192823,0.8757752877102069,0.9717082959541482,-0.9517408069192823,high,high,,ISIC_0024423.JPG,,ISIC_0283506.JPG,28,37,false,0.1,lh,keypress(e),0,true,784480.8000011444,784480.4000015259,780612.782,780721.9000015259,780614.9,784368.1,1,40,28,
sequence,flow.Sequence,8_27,2024-03-07T17:21:32.967Z,,,,,,,,,,,3865.5000015258556,completion,,,,,,,high,high,,,,,,,false,,,,,true,784481.3000011444,784480.4000015259,780612.782,780721.9000015259,780614.9,784368.1,1,40,,
trial,html.Screen,8_28_0,2024-03-07T17:21:42.308Z,,,,2,0.0361875505619981,-0.0291457404567876,,0.04,true,ll,9454.400000000023,response,-0.913652449364318,0.8900324010830589,-0.9017408069192823,-0.9917659814487484,0.9717082959541482,-0.9517408069192823,low,low,,ISIC_0027480.JPG,,ISIC_0032233.JPG,28,49,false,0.1,ll,keypress(f),0,true,793822.6000003815,793822.5,784365.59,784481.4000015259,784368.1,793709,1,40,29,
sequence,flow.Sequence,8_28,2024-03-07T17:21:42.308Z,,,,,,,,,,,9454.400000000023,completion,,,,,,,low,low,,,,,,,false,,,,,true,793822.7000007629,793822.5,784365.59,784481.4000015259,784368.1,793709,1,40,,
trial,html.Screen,8_29_0,2024-03-07T17:21:46.773Z,,,,2,0.0199897690678184,0.0312486875504497,,0.04,true,hl,4578,response,1.0003671514840182,0.8900324010830589,-0.9027092154065331,-0.8992716557663581,0.9717082959541482,-0.9517408069192823,high,low,,ISIC_5482426.JPG,,ISIC_0061749.JPG,28,25,false,0.16000000000000003,hl,keypress(j),0,true,798287.1000003815,798287,793701.99,793822.8000011444,793709,798179.6,1,40,30,
sequence,flow.Sequence,8_29,2024-03-07T17:21:46.773Z,,,,,,,,,,,4578,completion,,,,,,,high,low,,,,,,,false,,,,,true,798287.2000007629,798287,793701.99,793822.8000011444,793709,798179.6,1,40,,
trial,html.Screen,8_30_0,2024-03-07T17:21:50.949Z,,,,2,0.0321039635696159,0.020496766286318,,0.04,true,hh,4283.600000762963,response,0.8229443006010407,0.8900324010830589,-0.9027092154065331,1.0222744279054352,0.9717082959541482,-0.9017408069192823,high,high,,ISIC_0058063.JPG,,ISIC_0059257.JPG,28,35,false,0.1,hh,keypress(i),0,true,802463.3000011444,802463.2000007629,798163,798287.3000011444,798179.6,802349.4,1,40,31,
sequence,flow.Sequence,8_30,2024-03-07T17:21:50.949Z,,,,,,,,,,,4283.600000762963,completion,,,,,,,high,high,,,,,,,false,,,,,true,802463.6000003815,802463.2000007629,798163,798287.2000007629,798179.6,802349.4,1,40,,
trial,html.Screen,8_31_0,2024-03-07T17:21:54.408Z,,,,2,-0.0350697500805515,-0.0166617848231997,,0.04,true,ll,3572.2000003814464,response,-0.838609817323933,0.9613207896947267,-0.9027092154065331,-0.8422150101593281,0.9613207896947267,-0.9017408069192823,low,low,,ISIC_0024423.JPG,,ISIC_0009913.JPG,28,57,false,0.1,ll,keypress(f),0,true,805922,805921.6000003815,802346.896,802463.7000007629,802349.4,805819,1,40,32,
sequence,flow.Sequence,8_31,2024-03-07T17:21:54.408Z,,,,,,,,,,,3572.2000003814464,completion,,,,,,,low,low,,,,,,,false,,,,,true,805922.6000003815,805921.6000003815,802346.896,802463.6000003815,802349.4,805819,1,40,,
trial,html.Screen,8_32_0,2024-03-07T17:22:02.548Z,,,,2,0.010035581303589,-0.0100711721396864,,0.04,false,hl,8243.10000038147,response,1.1172883106398417,0.9613207896947267,-0.9027092154065331,-0.7336493335132354,0.9613207896947267,-0.9017408069192823,high,low,,ISIC_0030592.JPG,,ISIC_7415335.JPG,28,26,false,0.17000000000000004,lh,keypress(e),0,true,814062.3000011444,814062.1000003815,805817.268,805922.9000015259,805819,813958.1,1,40,33,
sequence,flow.Sequence,8_32,2024-03-07T17:22:02.548Z,,,,,,,,,,,8243.10000038147,completion,,,,,,,high,low,,,,,,,false,,,,,true,814062.3000011444,814062.1000003815,805817.268,805922.8000011444,805819,813958.1,1,40,,
trial,html.Screen,8_33_0,2024-03-07T17:22:07.940Z,,,,2,0.0321039635696159,0.020496766286318,,0.04,true,hh,5496.400000000023,response,0.9597587651037712,1.0113207896947267,-0.9027092154065331,0.8860066980618031,0.9613207896947267,-0.9517408069192823,high,high,,ISIC_0058063.JPG,,ISIC_7534592.JPG,28,30,false,0.11,hh,keypress(i),0,true,819454.7000007629,819454.5,813942.7,814062.3000011444,813958.1,819345.9,1,40,34,
sequence,flow.Sequence,8_33,2024-03-07T17:22:07.940Z,,,,,,,,,,,5496.400000000023,completion,,,,,,,high,high,,,,,,,false,,,,,true,819454.7000007629,819454.5,813942.7,814062.3000011444,813958.1,819345.9,1,40,,
trial,html.Screen,8_34_0,2024-03-07T17:22:13.332Z,,,,2,0.0321039635696159,0.020496766286318,,0.04,false,ll,5500.200000381446,response,-0.8800173162815772,1.0113207896947267,-0.9027092154065331,-0.912069987718464,0.9613207896947267,-0.9517408069192823,low,low,,ISIC_0058063.JPG,,ISIC_0030852.JPG,28,49,false,0.1,hh,keypress(i),0,true,824846.1000003815,824846.1000003815,819330.5,819454.8000011444,819345.9,824733.5,1,40,35,
sequence,flow.Sequence,8_34,2024-03-07T17:22:13.332Z,,,,,,,,,,,5500.200000381446,completion,,,,,,,low,low,,,,,,,false,,,,,true,824846.2000007629,824846.1000003815,819330.5,819454.8000011444,819345.9,824733.5,1,40,,
trial,html.Screen,8_35_0,2024-03-07T17:22:25.108Z,,,,2,0.0051046740562181,-0.0178832721027728,,0.04,true,lh,11888.80000114441,response,-0.781391003063482,1.0113207896947267,-0.9527092154065332,0.9644960393010829,0.9613207896947267,-1.0017408069192824,low,high,,ISIC_9545819.JPG,,ISIC_2087913.JPG,28,26,false,0.18000000000000005,lh,keypress(e),0,true,836622.3000011444,836622.3000011444,824729.614,824846.3000011444,824733.5,836509.8,1,40,36,
sequence,flow.Sequence,8_35,2024-03-07T17:22:25.108Z,,,,,,,,,,,11888.80000114441,completion,,,,,,,low,high,,,,,,,false,,,,,true,836622.4000015259,836622.3000011444,824729.614,824846.2000007629,824733.5,836509.8,1,40,,
trial,html.Screen,8_36_0,2024-03-07T17:22:36.052Z,,,,2,0.0189295602385628,0.0128812415435153,,0.04,false,lh,11056.300000381423,response,-0.8946880006769797,1.0113207896947267,-0.9527092154065332,0.7754915110667046,0.9113207896947266,-1.0017408069192824,low,high,,ISIC_0010372.JPG,,ISIC_7840728.JPG,28,29,false,0.18000000000000005,hh,keypress(i),0,true,847566.1000003815,847566.1000003815,836500.536,836622.4000015259,836509.8,847452.2,1,40,37,
sequence,flow.Sequence,8_36,2024-03-07T17:22:36.052Z,,,,,,,,,,,11056.300000381423,completion,,,,,,,low,high,,,,,,,false,,,,,true,847566.2000007629,847566.1000003815,836500.536,836622.4000015259,836509.8,847452.2,1,40,,
trial,html.Screen,8_37_0,2024-03-07T17:22:39.396Z,,,,2,0.0051046740562181,-0.0178832721027728,,0.04,true,ll,3457.7000015259255,response,-0.9293599144917216,1.0113207896947267,-1.0027092154065331,-1.045616100036335,0.9113207896947266,-1.0017408069192824,low,low,,ISIC_9545819.JPG,,ISIC_0011031.JPG,28,44,false,0.1,ll,keypress(f),0,true,850909.9000015259,850909.9000015259,847443.636,847566.2000007629,847452.2,850805.1,1,40,38,
sequence,flow.Sequence,8_37,2024-03-07T17:22:39.396Z,,,,,,,,,,,3457.7000015259255,completion,,,,,,,low,low,,,,,,,false,,,,,true,850910.1000003815,850909.9000015259,847443.636,847566.2000007629,847452.2,850805.1,1,40,,
trial,html.Screen,8_38_0,2024-03-07T17:22:45.332Z,,,,2,0.0051046740562181,-0.0178832721027728,,0.04,true,hl,6040.900000000023,response,1.1235224875125256,1.0113207896947267,-1.0027092154065331,-0.8641223012137988,0.9113207896947266,-1.0017408069192824,high,low,,ISIC_9545819.JPG,,ISIC_0033901.JPG,28,26,false,0.21000000000000008,hl,keypress(j),0,true,856846.1000003815,856846,850788.2,850910.1000003815,850805.1,856743.3,1,40,39,
sequence,flow.Sequence,8_38,2024-03-07T17:22:45.332Z,,,,,,,,,,,6040.900000000023,completion,,,,,,,high,low,,,,,,,false,,,,,true,856846.2000007629,856846,850788.2,850910.1000003815,850805.1,856743.3,1,40,,
trial,html.Screen,8_39_0,2024-03-07T17:22:52.388Z,,,,2,-0.0071892445601978,0.0246015408628738,,0.04,false,lh,7158.699999999953,response,-1.1592423187534993,0.9613207896947267,-1.0027092154065331,1.067128884093211,0.9113207896947266,-0.9048692006250669,low,high,,ISIC_0014133.JPG,,ISIC_6854940.JPG,28,27,false,0.19000000000000006,hh,keypress(i),0,true,863902,863902,856726.4,856846.3000011444,856743.3,863799.2,1,40,40,
sequence,flow.Sequence,8_39,2024-03-07T17:22:52.388Z,,,,,,,,,,,7158.699999999953,completion,,,,,,,low,high,,,,,,,false,,,,,true,863902.1000003815,863902,856726.4,856846.2000007629,856743.3,863799.2,1,40,,
stair_loop,flow.Loop,8,2024-03-07T17:22:52.388Z,,,,,,,,,,,244686.13800000004,completion,,,,,,,,,,,,,,,false,,,,,true,863902.2000007629,863902,619215.862,619310.6000003815,619215.862,863799.2,1,40,,
exp_instructions,html.Screen,9,2024-03-07T17:23:12.084Z,,,,,,,,,,,19798.600001144456,response,,,,,,,,,,,,,,,,,continue,keypress(Space),,,883598.3000011444,883597.8000011444,863782.4,863902.2000007629,863799.2,883482,,,,
trial,html.Screen,10_0_0,2024-03-07T17:23:19.221Z,,,,1,-0.0166849894750452,0.0371614812368835,,0.04,true,ll,7253.800001144409,response,-1.0228768574896494,0.9296121759583093,-0.9470699173626311,-0.9413691675751268,0.9420339181374084,-0.9662201814887249,low,low,,ISIC_6231450.JPG,10,ISIC_0063492.JPG,28,50,false,0.1,ll,keypress(f),0,false,890735.8000011444,890735.8000011444,883481.746,883598.4000015259,883482,890621.3,5,600,1,
break,html.Screen,10_0_1,2024-03-07T17:23:19.222Z,,,,,,,,,,,NaN,,,,,,,,low,low,,,,,,,false,,,,,false,890736.2000007629,890736.1000003815,,890735.9000015259,,890621.3,5,600,,
break_continue,html.Screen,10_0_2,2024-03-07T17:23:19.222Z,,,,,,,,,,,NaN,,,,,,,,low,low,,,,,,,false,,,,,false,890736.4000015259,890736.3000011444,,890736.2000007629,,890621.3,5,600,,
sequence,flow.Sequence,10_0,2024-03-07T17:23:19.222Z,,,,,,,,,,,7254.300001144409,completion,,,,,,,low,low,,,,,,,false,,,,,false,890736.5,890736.3000011444,883481.746,883598.4000015259,883482,890621.3,5,600,,
trial,html.Screen,10_1_0,2024-03-07T17:23:24.484Z,,,,1,-0.0050679133050021,-0.0174815595031679,,0.04,true,lh,5376.800000381423,response,-0.9873794329144926,0.9296121759583093,-0.9470699173626311,0.9500689037516484,0.9420339181374084,-0.9662201814887249,low,high,,ISIC_9848743.JPG,8,ISIC_0013498.JPG,28,28,false,0.18000000000000005,lh,keypress(e),0,false,895998.2000007629,895998.1000003815,890615.788,890736.5,890621.3,895892.3,5,600,2,
break,html.Screen,10_1_1,2024-03-07T17:23:24.484Z,,,,,,,,,,,NaN,,,,,,,,low,high,,,,,,,false,,,,,false,895998.5,895998.4000015259,,895998.3000011444,,895892.3,5,600,,
break_continue,html.Screen,10_1_2,2024-03-07T17:23:24.484Z,,,,,,,,,,,NaN,,,,,,,,low,high,,,,,,,false,,,,,false,895998.6000003815,895998.6000003815,,895998.5,,895892.3,5,600,,
sequence,flow.Sequence,10_1,2024-03-07T17:23:24.484Z,,,,,,,,,,,5377.300000381423,completion,,,,,,,low,high,,,,,,,false,,,,,false,895998.6000003815,895998.6000003815,890615.788,890736.5,890621.3,895892.3,5,600,,
trial,html.Screen,10_2_0,2024-03-07T17:23:28.020Z,,,,1,0.0189295602385628,0.0128812415435153,,0.04,false,hl,3642.400000762893,response,0.8644465729542988,0.9296121759583093,-0.9470699173626311,-0.8679598285079457,0.9420339181374084,-0.9662201814887249,high,low,,ISIC_0010372.JPG,9,ISIC_6718969.JPG,28,25,false,0.18000000000000005,hh,keypress(i),0,false,899535,899534.7000007629,895875.5,895998.7000007629,895892.3,899428.9,5,600,3,
break,html.Screen,10_2_1,2024-03-07T17:23:28.021Z,,,,,,,,,,,NaN,,,,,,,,high,low,,,,,,,false,,,,,false,899535.6000003815,899535.3000011444,,899535.1000003815,,899428.9,5,600,,
break_continue,html.Screen,10_2_2,2024-03-07T17:23:28.021Z,,,,,,,,,,,NaN,,,,,,,,high,low,,,,,,,false,,,,,false,899535.9000015259,899535.8000011444,,899535.7000007629,,899428.9,5,600,,
sequence,flow.Sequence,10_2,2024-03-07T17:23:28.022Z,,,,,,,,,,,3643.5000011443626,completion,,,,,,,high,low,,,,,,,false,,,,,false,899536,899535.8000011444,895875.5,895998.6000003815,895892.3,899428.9,5,600,,
trial,html.Screen,10_3_0,2024-03-07T17:23:33.830Z,,,,1,0.0365981355399771,0.0162670920008846,,0.04,false,lh,5915.500001525856,response,-0.9225524349657857,0.9296121759583093,-0.9470699173626311,0.929746784178986,0.9420339181374084,-0.9662201814887249,low,high,,ISIC_0982855.JPG,9,ISIC_0011077.JPG,28,28,false,0.18000000000000005,ll,keypress(f),0,false,905344.8000011444,905344.4000015259,899411.8,899536.2000007629,899428.9,905234.3,5,600,4,
break,html.Screen,10_3_1,2024-03-07T17:23:33.834Z,,,,,,,,,,,NaN,,,,,,,,low,high,,,,,,,false,,,,,false,905348.4000015259,905347.8000011444,,905345.8000011444,,905234.3,5,600,,
break_continue,html.Screen,10_3_2,2024-03-07T17:23:33.834Z,,,,,,,,,,,NaN,,,,,,,,low,high,,,,,,,false,,,,,false,905348.7000007629,905348.6000003815,,905348.5,,905234.3,5,600,,
sequence,flow.Sequence,10_3,2024-03-07T17:23:33.834Z,,,,,,,,,,,5919.700000381446,completion,,,,,,,low,high,,,,,,,false,,,,,false,905348.7000007629,905348.6000003815,899411.8,899536.2000007629,899428.9,905234.3,5,600,,
trial,html.Screen,10_4_0,2024-03-07T17:23:36.599Z,,,,1,0.0321039635696159,0.020496766286318,,0.04,false,hl,2878.900000762893,response,0.9039158082670506,0.9296121759583093,-0.9470699173626311,-1.0517562064343149,0.9420339181374084,-0.9662201814887249,high,low,,ISIC_0058063.JPG,9,ISIC_0015411.JPG,28,25,false,0.18000000000000005,hh,keypress(i),0,false,908113.6000003815,908113.2000007629,905229.548,905348.8000011444,905234.3,908003.2,5,600,5,
break,html.Screen,10_4_1,2024-03-07T17:23:36.601Z,,,,,,,,,,,NaN,,,,,,,,high,low,,,,,,,false,,,,,false,908115.2000007629,908114.7000007629,,908114.1000003815,,908003.2,5,600,,
break_continue,html.Screen,10_4_2,2024-03-07T17:23:36.602Z,,,,,,,,,,,NaN,,,,,,,,high,low,,,,,,,false,,,,,false,908116.1000003815,908115.8000011444,,908115.5,,908003.2,5,600,,
sequence,flow.Sequence,10_4,2024-03-07T17:23:36.602Z,,,,,,,,,,,2881.5000011443626,completion,,,,,,,high,low,,,,,,,false,,,,,false,908116.5,908115.8000011444,905229.548,905348.8000011444,905234.3,908003.2,5,600,,
trial,html.Screen,10_5_0,2024-03-07T17:23:45.575Z,,,,1,-0.0158987717472563,-0.0292472192292015,,0.04,false,hh,9085.600001144456,response,0.9658792885069516,0.9296121759583093,-0.9470699173626311,0.916173605730014,0.9420339181374084,-0.9662201814887249,high,high,,ISIC_1366765.JPG,9,ISIC_8979275.JPG,28,32,false,0.1,hl,keypress(j),0,false,917089.4000015259,917088.8000011444,908002.196,908116.7000007629,908003.2,916977.4,5,600,6,
break,html.Screen,10_5_1,2024-03-07T17:23:45.577Z,,,,,,,,,,,NaN,,,,,,,,high,high,,,,,,,false,,,,,false,917091,917090.6000003815,,917089.8000011444,,916977.4,5,600,,
break_continue,html.Screen,10_5_2,2024-03-07T17:23:45.578Z,,,,,,,,,,,NaN,,,,,,,,high,high,,,,,,,false,,,,,false,917092,917091.6000003815,,917091.3000011444,,916977.4,5,600,,
sequence,flow.Sequence,10_5,2024-03-07T17:23:45.578Z,,,,,,,,,,,9088.400000381516,completion,,,,,,,high,high,,,,,,,false,,,,,false,917092.4000015259,917091.6000003815,908002.196,908116.7000007629,908003.2,916977.4,5,600,,
trial,html.Screen,10_6_0,2024-03-07T17:23:50.471Z,,,,1,-0.00126575685933,-0.0325046559638838,,0.04,false,hh,5007.900001144386,response,0.9487751044258608,0.9296121759583093,-0.9470699173626311,0.9230722071334148,0.9420339181374084,-0.9662201814887249,high,high,,ISIC_5682259.JPG,8,ISIC_4568084.JPG,28,32,false,0.1,hl,keypress(j),0,false,921985.7000007629,921985.3000011444,916976.23,917092.6000003815,916977.4,921881.2,5,600,7,
break,html.Screen,10_6_1,2024-03-07T17:23:50.473Z,,,,,,,,,,,NaN,,,,,,,,high,high,,,,,,,false,,,,,false,921987.5,921987.1000003815,,921986.3000011444,,921881.2,5,600,,
break_continue,html.Screen,10_6_2,2024-03-07T17:23:50.474Z,,,,,,,,,,,NaN,,,,,,,,high,high,,,,,,,false,,,,,false,921988.5,921988.1000003815,,921987.8000011444,,921881.2,5,600,,
sequence,flow.Sequence,10_6,2024-03-07T17:23:50.474Z,,,,,,,,,,,5010.700000381446,completion,,,,,,,high,high,,,,,,,false,,,,,false,921988.9000015259,921988.1000003815,916976.23,917092.5,916977.4,921881.2,5,600,,
trial,html.Screen,10_7_0,2024-03-07T17:23:54.343Z,,,,1,0.0063515208248796,0.0194177605767913,,0.04,true,ll,3975.6000011444557,response,-0.903200901040808,0.9296121759583093,-0.9470699173626311,-0.8884252535933715,0.9420339181374084,-0.9662201814887249,low,low,,ISIC_5281908.JPG,9,ISIC_0065260.JPG,28,50,false,0.1,ll,keypress(f),0,false,925857.3000011444,925856.8000011444,921864.9,921989.2000007629,921881.2,925751.2,5,600,8,
break,html.Screen,10_7_1,2024-03-07T17:23:54.344Z,,,,,,,,,,,NaN,,,,,,,,low,low,,,,,,,false,,,,,false,925858.9000015259,925858.3000011444,,925857.7000007629,,925751.2,5,600,,
break_continue,html.Screen,10_7_2,2024-03-07T17:23:54.345Z,,,,,,,,,,,NaN,,,,,,,,low,low,,,,,,,false,,,,,false,925859.9000015259,925859.6000003815,,925859.1000003815,,925751.2,5,600,,
sequence,flow.Sequence,10_7,2024-03-07T17:23:54.346Z,,,,,,,,,,,3978.4000003815163,completion,,,,,,,low,low,,,,,,,false,,,,,false,925860.2000007629,925859.6000003815,921864.9,921989.1000003815,921881.2,925751.2,5,600,,
trial,html.Screen,10_8_0,2024-03-07T17:24:00.825Z,,,,1,0.0199897690678184,0.0312486875504497,,0.04,true,hh,6587.900000381516,response,0.9597587651037712,0.9296121759583093,-0.9470699173626311,0.8860066980618031,0.9420339181374084,-0.9662201814887249,high,high,,ISIC_5482426.JPG,8,ISIC_7534592.JPG,28,32,false,0.1,hh,keypress(i),0,false,932339.7000007629,932339.1000003815,925749.152,925860.5,925751.2,932239.9,5,600,9,
break,html.Screen,10_8_1,2024-03-07T17:24:00.827Z,,,,,,,,,,,NaN,,,,,,,,high,high,,,,,,,false,,,,,false,932341.5,932340.9000015259,,932340.2000007629,,932239.9,5,600,,
break_continue,html.Screen,10_8_2,2024-03-07T17:24:00.827Z,,,,,,,,,,,NaN,,,,,,,,high,high,,,,,,,false,,,,,false,932341.7000007629,932341.6000003815,,932341.5,,932239.9,5,600,,
sequence,flow.Sequence,10_8,2024-03-07T17:24:00.827Z,,,,,,,,,,,6590.400000381516,completion,,,,,,,high,high,,,,,,,false,,,,,false,932341.8000011444,932341.6000003815,925749.152,925860.4000015259,925751.2,932239.9,5,600,,
trial,html.Screen,10_9_0,2024-03-07T17:24:06.951Z,,,,1,0.0199897690678184,0.0312486875504497,,0.04,false,hl,6225.000001525856,response,0.8069562753553525,0.9296121759583093,-0.9470699173626311,-0.9101764190105358,0.9420339181374084,-0.9662201814887249,high,low,,ISIC_5482426.JPG,9,ISIC_0046596.JPG,28,25,false,0.18000000000000005,lh,keypress(e),0,false,938465.3000011444,938464.9000015259,932223.452,932341.8000011444,932239.9,938361.6,5,600,10,
break,html.Screen,10_9_1,2024-03-07T17:24:06.953Z,,,,,,,,,,,NaN,,,,,,,,high,low,,,,,,,false,,,,,false,938466.9000015259,938466.4000015259,,938465.7000007629,,938361.6,5,600,,
break_continue,html.Screen,10_9_2,2024-03-07T17:24:06.954Z,,,,,,,,,,,NaN,,,,,,,,high,low,,,,,,,false,,,,,false,938468.1000003815,938467.7000007629,,938467.2000007629,,938361.6,5,600,,
sequence,flow.Sequence,10_9,2024-03-07T17:24:06.954Z,,,,,,,,,,,6227.800000762916,completion,,,,,,,high,low,,,,,,,false,,,,,false,938468.5,938467.7000007629,932223.452,932341.8000011444,932239.9,938361.6,5,600,,
trial,html.Screen,10_10_0,2024-03-07T17:24:12.791Z,,,,1,-0.0377791839943904,0.0227626648172468,,0.04,false,lh,5943.2000011444325,response,-0.9212323139676136,0.9296121759583093,-0.9470699173626311,0.9882196642247332,0.9420339181374084,-0.9662201814887249,low,high,,ISIC_7167479.JPG,9,ISIC_0014255.JPG,28,28,false,0.18000000000000005,ll,keypress(f),0,false,944305.3000011444,944304.8000011444,938359.728,938468.8000011444,938361.6,944199.9,5,600,11,
break,html.Screen,10_10_1,2024-03-07T17:24:12.793Z,,,,,,,,,,,NaN,,,,,,,,low,high,,,,,,,false,,,,,false,944307,944306.4000015259,,944305.8000011444,,944199.9,5,600,,
break_continue,html.Screen,10_10_2,2024-03-07T17:24:12.794Z,,,,,,,,,,,NaN,,,,,,,,low,high,,,,,,,false,,,,,false,944308,944307.8000011444,,944307.3000011444,,944199.9,5,600,,
sequence,flow.Sequence,10_10,2024-03-07T17:24:12.794Z,,,,,,,,,,,5946.2000011444325,completion,,,,,,,low,high,,,,,,,false,,,,,false,944308.5,944307.8000011444,938359.728,938468.8000011444,938361.6,944199.9,5,600,,
trial,html.Screen,10_11_0,2024-03-07T17:24:19.796Z,,,,1,-0.012810673904807,0.00400964452501,,0.04,false,ll,7110.400001144386,response,-1.0053183338862537,0.9296121759583093,-0.9470699173626311,-1.0383223796934642,0.9420339181374084,-0.9662201814887249,low,low,,ISIC_0064656.JPG,10,ISIC_0000519.JPG,28,50,false,0.1,lh,keypress(e),0,false,951310.5,951310.3000011444,944183,944308.8000011444,944199.9,951205.8,5,600,12,
break,html.Screen,10_11_1,2024-03-07T17:24:19.796Z,,,,,,,,,,,NaN,,,,,,,,low,low,,,,,,,false,,,,,false,951310.8000011444,951310.8000011444,,951310.5,,951205.8,5,600,,
break_continue,html.Screen,10_11_2,2024-03-07T17:24:19.797Z,,,,,,,,,,,NaN,,,,,,,,low,low,,,,,,,false,,,,,false,951311.1000003815,951311,,951310.9000015259,,951205.8,5,600,,
sequence,flow.Sequence,10_11,2024-03-07T17:24:19.797Z,,,,,,,,,,,7111.099999999977,completion,,,,,,,low,low,,,,,,,false,,,,,false,951311.2000007629,951311,944183,944308.6000003815,944199.9,951205.8,5,600,,
trial,html.Screen,10_12_0,2024-03-07T17:24:22.744Z,,,,1,-0.00126575685933,-0.0325046559638838,,0.04,true,ll,3051.6999999999534,response,-0.8847502213514871,0.9296121759583093,-0.9470699173626311,-0.9725947392713435,0.9420339181374084,-0.9662201814887249,low,low,,ISIC_5682259.JPG,9,ISIC_0073044.JPG,28,50,false,0.1,ll,keypress(f),0,false,954258.1000003815,954257.5,951189.2,951311.3000011444,951205.8,954158.6,5,600,13,
break,html.Screen,10_12_1,2024-03-07T17:24:22.745Z,,,,,,,,,,,NaN,,,,,,,,low,low,,,,,,,false,,,,,false,954259.9000015259,954259.6000003815,,954258.8000011444,,954158.6,5,600,,
break_continue,html.Screen,10_12_2,2024-03-07T17:24:22.746Z,,,,,,,,,,,NaN,,,,,,,,low,low,,,,,,,false,,,,,false,954260.1000003815,954260,,954259.9000015259,,954158.6,5,600,,
sequence,flow.Sequence,10_12,2024-03-07T17:24:22.746Z,,,,,,,,,,,3054.1999999999534,completion,,,,,,,low,low,,,,,,,false,,,,,false,954260.2000007629,954260,951189.2,951311.2000007629,951205.8,954158.6,5,600,,
trial,html.Screen,10_13_0,2024-03-07T17:24:28.855Z,,,,1,-0.0399381815506136,-0.0177751789152893,,0.04,false,hl,6210.400000000023,response,0.8479396253253069,0.9296121759583093,-0.9470699173626311,-1.011054319516718,0.9420339181374084,-0.9662201814887249,high,low,,ISIC_3981425.JPG,8,ISIC_0063521.JPG,28,25,false,0.18000000000000005,hh,keypress(i),0,false,960369.4000015259,960369,954141.2,954260.3000011444,954158.6,960263,5,600,14,
break,html.Screen,10_13_1,2024-03-07T17:24:28.856Z,,,,,,,,,,,NaN,,,,,,,,high,low,,,,,,,false,,,,,false,960370.8000011444,960370.3000011444,,960369.8000011444,,960263,5,600,,
break_continue,html.Screen,10_13_2,2024-03-07T17:24:28.857Z,,,,,,,,,,,NaN,,,,,,,,high,low,,,,,,,false,,,,,false,960371.4000015259,960371.2000007629,,960371,,960263,5,600,,
sequence,flow.Sequence,10_13,2024-03-07T17:24:28.857Z,,,,,,,,,,,6212.600000762963,completion,,,,,,,high,low,,,,,,,false,,,,,false,960371.6000003815,960371.2000007629,954141.2,954260.3000011444,954158.6,960263,5,600,,
trial,html.Screen,10_14_0,2024-03-07T17:24:35.223Z,,,,1,0.010035581303589,-0.0100711721396864,,0.04,true,lh,6474.10000038147,response,-0.9235571765207048,0.9296121759583093,-0.9470699173626311,0.7832040253954599,0.9420339181374084,-0.9662201814887249,low,high,,ISIC_0030592.JPG,9,ISIC_8796632.JPG,28,28,false,0.18000000000000005,lh,keypress(e),0,false,966737.5,966737.1000003815,960258.352,960371.8000011444,960263,966634.8,5,600,15,
break,html.Screen,10_14_1,2024-03-07T17:24:35.225Z,,,,,,,,,,,NaN,,,,,,,,low,high,,,,,,,false,,,,,false,966739.1000003815,966738.6000003815,,966738,,966634.8,5,600,,
break_continue,html.Screen,10_14_2,2024-03-07T17:24:35.225Z,,,,,,,,,,,NaN,,,,,,,,low,high,,,,,,,false,,,,,false,966740,966739.7000007629,,966739.4000015259,,966634.8,5,600,,
sequence,flow.Sequence,10_14,2024-03-07T17:24:35.226Z,,,,,,,,,,,6476.700000762939,completion,,,,,,,low,high,,,,,,,false,,,,,false,966740.3000011444,966739.7000007629,960258.352,960371.7000007629,960263,966634.8,5,600,,
trial,html.Screen,10_15_0,2024-03-07T17:24:42.039Z,,,,1,-0.0350697500805515,-0.0166617848231997,,0.04,true,hl,6918.500001144363,response,0.7555963738331037,0.9296121759583093,-0.9470699173626311,-0.8728259922218632,0.9420339181374084,-0.9662201814887249,high,low,,ISIC_0024423.JPG,10,ISIC_3060248.JPG,28,25,false,0.18000000000000005,hl,keypress(j),0,false,973553.8000011444,973553.3000011444,966632.834,966740.6000003815,966634.8,973440.6,5,600,16,
break,html.Screen,10_15_1,2024-03-07T17:24:42.041Z,,,,,,,,,,,NaN,,,,,,,,high,low,,,,,,,false,,,,,false,973555.3000011444,973554.8000011444,,973554.2000007629,,973440.6,5,600,,
break_continue,html.Screen,10_15_2,2024-03-07T17:24:42.042Z,,,,,,,,,,,NaN,,,,,,,,high,low,,,,,,,false,,,,,false,973556.1000003815,973555.9000015259,,973555.6000003815,,973440.6,5,600,,
sequence,flow.Sequence,10_15,2024-03-07T17:24:42.042Z,,,,,,,,,,,6921.100001525832,completion,,,,,,,high,low,,,,,,,false,,,,,false,973556.6000003815,973555.9000015259,966632.834,966740.5,966634.8,973440.6,5,600,,
trial,html.Screen,10_16_0,2024-03-07T17:24:44.759Z,,,,1,0.0361875505619981,-0.0291457404567876,,0.04,true,ll,2832.4000000000233,response,-0.8543323078107433,0.9296121759583093,-0.9470699173626311,-0.9163054072963652,0.9420339181374084,-0.9662201814887249,low,low,,ISIC_0027480.JPG,8,ISIC_0012070.JPG,28,50,false,0.1,ll,keypress(f),0,false,976273.3000011444,976273,973438.172,973556.8000011444,973440.6,976159.5,5,600,17,
break,html.Screen,10_16_1,2024-03-07T17:24:44.760Z,,,,,,,,,,,NaN,,,,,,,,low,low,,,,,,,false,,,,,false,976275,976274.5,,976273.8000011444,,976159.5,5,600,,
break_continue,html.Screen,10_16_2,2024-03-07T17:24:44.761Z,,,,,,,,,,,NaN,,,,,,,,low,low,,,,,,,false,,,,,false,976276,976275.6000003815,,976275.3000011444,,976159.5,5,600,,
sequence,flow.Sequence,10_16,2024-03-07T17:24:44.762Z,,,,,,,,,,,2835.000000381493,completion,,,,,,,low,low,,,,,,,false,,,,,false,976276.4000015259,976275.6000003815,973438.172,973556.7000007629,973440.6,976159.5,5,600,,
trial,html.Screen,10_17_0,2024-03-07T17:24:51.047Z,,,,1,-0.012810673904807,0.00400964452501,,0.04,false,hh,6401.200000762939,response,0.831295474746028,0.9296121759583093,-0.9470699173626311,0.9721089662087676,0.9420339181374084,-0.9662201814887249,high,high,,ISIC_0064656.JPG,10,ISIC_0760740.JPG,28,32,false,0.1,lh,keypress(e),0,false,982561.1000003815,982560.7000007629,976158.698,976276.5,976159.5,982447.9,5,600,18,
break,html.Screen,10_17_1,2024-03-07T17:24:51.048Z,,,,,,,,,,,NaN,,,,,,,,high,high,,,,,,,false,,,,,false,982562.7000007629,982562.3000011444,,982561.6000003815,,982447.9,5,600,,
break_continue,html.Screen,10_17_2,2024-03-07T17:24:51.049Z,,,,,,,,,,,NaN,,,,,,,,high,high,,,,,,,false,,,,,false,982563.7000007629,982563.3000011444,,982563,,982447.9,5,600,,
sequence,flow.Sequence,10_17,2024-03-07T17:24:51.049Z,,,,,,,,,,,6403.800001144409,completion,,,,,,,high,high,,,,,,,false,,,,,false,982564,982563.3000011444,976158.698,976276.5,976159.5,982447.9,5,600,,
trial,html.Screen,10_18_0,2024-03-07T17:24:59.143Z,,,,1,-0.0377791839943904,0.0227626648172468,,0.04,false,hh,8209.599999999977,response,0.9487751044258608,0.9296121759583093,-0.9470699173626311,0.9230722071334148,0.9420339181374084,-0.9662201814887249,high,high,,ISIC_7167479.JPG,10,ISIC_4568084.JPG,28,32,false,0.1,hl,keypress(j),0,false,990657.9000015259,990657.5,982443.956,982564.2000007629,982447.9,990554.9,5,600,19,
break,html.Screen,10_18_1,2024-03-07T17:24:59.145Z,,,,,,,,,,,NaN,,,,,,,,high,high,,,,,,,false,,,,,false,990659.4000015259,990659,,990658.3000011444,,990554.9,5,600,,
break_continue,html.Screen,10_18_2,2024-03-07T17:24:59.146Z,,,,,,,,,,,NaN,,,,,,,,high,high,,,,,,,false,,,,,false,990660.4000015259,990660.1000003815,,990659.7000007629,,990554.9,5,600,,
sequence,flow.Sequence,10_18,2024-03-07T17:24:59.146Z,,,,,,,,,,,8212.200000381446,completion,,,,,,,high,high,,,,,,,false,,,,,false,990660.7000007629,990660.1000003815,982443.956,982564.1000003815,982447.9,990554.9,5,600,,
trial,html.Screen,10_19_0,2024-03-07T17:25:01.557Z,,,,1,0.0086413421586899,0.0360184993500958,,0.04,true,ll,2516.0999999999767,response,-1.023702319483283,0.9296121759583093,-0.9470699173626311,-0.8767219558395388,0.9420339181374084,-0.9662201814887249,low,low,,ISIC_0010767.JPG,10,ISIC_0064986.JPG,28,50,false,0.1,ll,keypress(f),0,false,993071.1000003815,993071,990551.19,990660.9000015259,990554.9,992956.5,5,600,20,
break,html.Screen,10_19_1,2024-03-07T17:25:01.557Z,,,,,,,,,,,NaN,,,,,,,,low,low,,,,,,,false,,,,,false,993071.5,993071.4000015259,,993071.3000011444,,992956.5,5,600,,
break_continue,html.Screen,10_19_2,2024-03-07T17:25:01.557Z,,,,,,,,,,,NaN,,,,,,,,low,low,,,,,,,false,,,,,false,993071.8000011444,993071.7000007629,,993071.6000003815,,992956.5,5,600,,
sequence,flow.Sequence,10_19,2024-03-07T17:25:01.557Z,,,,,,,,,,,2516.800000762916,completion,,,,,,,low,low,,,,,,,false,,,,,false,993071.8000011444,993071.7000007629,990551.19,990660.9000015259,990554.9,992956.5,5,600,,
trial,html.Screen,10_20_0,2024-03-07T17:25:04.999Z,,,,1,-0.0071892445601978,0.0246015408628738,,0.04,false,hl,3556.800001144409,response,0.7555963738331037,0.9296121759583093,-0.9470699173626311,-0.8728259922218632,0.9420339181374084,-0.9662201814887249,high,low,,ISIC_0014133.JPG,8,ISIC_3060248.JPG,28,25,false,0.18000000000000005,hh,keypress(i),0,false,996513.8000011444,996513.3000011444,992955.346,993071.9000015259,992956.5,996409.4,5,600,21,
break,html.Screen,10_20_1,2024-03-07T17:25:05.001Z,,,,,,,,,,,NaN,,,,,,,,high,low,,,,,,,false,,,,,false,996515.6000003815,996515.1000003815,,996514.4000015259,,996409.4,5,600,,
break_continue,html.Screen,10_20_2,2024-03-07T17:25:05.002Z,,,,,,,,,,,NaN,,,,,,,,high,low,,,,,,,false,,,,,false,996516.6000003815,996516.3000011444,,996515.9000015259,,996409.4,5,600,,
sequence,flow.Sequence,10_20,2024-03-07T17:25:05.002Z,,,,,,,,,,,3559.800001144409,completion,,,,,,,high,low,,,,,,,false,,,,,false,996517.1000003815,996516.3000011444,992955.346,993071.9000015259,992956.5,996409.4,5,600,,
trial,html.Screen,10_21_0,2024-03-07T17:25:09.975Z,,,,1,-0.0050679133050021,-0.0174815595031679,,0.04,true,hh,5079.500001525856,response,0.8997449990565672,0.9296121759583093,-0.9470699173626311,0.9792890899144426,0.9420339181374084,-0.9662201814887249,high,high,,ISIC_9848743.JPG,9,ISIC_0469314.JPG,28,32,false,0.1,hh,keypress(i),0,false,1001489.3000011444,1001488.9000015259,996391.9,996517.3000011444,996409.4,1001380.3,5,600,22,
break,html.Screen,10_21_1,2024-03-07T17:25:09.976Z,,,,,,,,,,,NaN,,,,,,,,high,high,,,,,,,false,,,,,false,1001490.8000011444,1001490.3000011444,,1001489.7000007629,,1001380.3,5,600,,
break_continue,html.Screen,10_21_2,2024-03-07T17:25:09.977Z,,,,,,,,,,,NaN,,,,,,,,high,high,,,,,,,false,,,,,false,1001491.7000007629,1001491.5,,1001491,,1001380.3,5,600,,
sequence,flow.Sequence,10_21,2024-03-07T17:25:09.978Z,,,,,,,,,,,5082.099999999977,completion,,,,,,,high,high,,,,,,,false,,,,,false,1001492.1000003815,1001491.5,996391.9,996517.2000007629,996409.4,1001380.3,5,600,,
trial,html.Screen,10_22_0,2024-03-07T17:25:13.367Z,,,,1,-0.0350697500805515,-0.0166617848231997,,0.04,true,hh,3500.400000762893,response,0.8839757968937295,0.9296121759583093,-0.9470699173626311,0.9422051867002986,0.9420339181374084,-0.9662201814887249,high,high,,ISIC_0024423.JPG,9,ISIC_6739241.JPG,28,32,false,0.1,hh,keypress(i),0,false,1004881.3000011444,1004880.7000007629,1001364,1001492.3000011444,1001380.3,1004766.3,5,600,23,
break,html.Screen,10_22_1,2024-03-07T17:25:13.369Z,,,,,,,,,,,NaN,,,,,,,,high,high,,,,,,,false,,,,,false,1004883.1000003815,1004882.5,,1004881.8000011444,,1004766.3,5,600,,
break_continue,html.Screen,10_22_2,2024-03-07T17:25:13.370Z,,,,,,,,,,,NaN,,,,,,,,high,high,,,,,,,false,,,,,false,1004884.3000011444,1004883.9000015259,,1004883.5,,1004766.3,5,600,,
sequence,flow.Sequence,10_22,2024-03-07T17:25:13.370Z,,,,,,,,,,,3503.6000015258323,completion,,,,,,,high,high,,,,,,,false,,,,,false,1004884.7000007629,1004883.9000015259,1001364,1001492.2000007629,1001380.3,1004766.3,5,600,,
trial,html.Screen,10_23_0,2024-03-07T17:25:16.598Z,,,,1,-0.012810673904807,0.00400964452501,,0.04,false,hl,3346.1000015258323,response,0.8150886811691144,0.9296121759583093,-0.9470699173626311,-0.862416038462147,0.9420339181374084,-0.9662201814887249,high,low,,ISIC_0064656.JPG,9,ISIC_0058079.JPG,28,25,false,0.18000000000000005,hh,keypress(i),0,false,1008112.6000003815,1008112.4000015259,1004765.16,1004884.9000015259,1004766.3,1008002.3,5,600,24,
break,html.Screen,10_23_1,2024-03-07T17:25:16.599Z,,,,,,,,,,,NaN,,,,,,,,high,low,,,,,,,false,,,,,false,1008113.6000003815,1008113.4000015259,,1008113,,1008002.3,5,600,,
break_continue,html.Screen,10_23_2,2024-03-07T17:25:16.600Z,,,,,,,,,,,NaN,,,,,,,,high,low,,,,,,,false,,,,,false,1008114.1000003815,1008113.9000015259,,1008113.8000011444,,1008002.3,5,600,,
sequence,flow.Sequence,10_23,2024-03-07T17:25:16.600Z,,,,,,,,,,,3347.6000015258323,completion,,,,,,,high,low,,,,,,,false,,,,,false,1008114.3000011444,1008113.9000015259,1004765.16,1004884.8000011444,1004766.3,1008002.3,5,600,,
trial,html.Screen,10_24_0,2024-03-07T17:25:21.463Z,,,,1,-0.0050679133050021,-0.0174815595031679,,0.04,false,lh,4975.199999999953,response,-0.8181754542205604,0.9296121759583093,-0.9470699173626311,0.8285141543298179,0.9420339181374084,-0.9662201814887249,low,high,,ISIC_9848743.JPG,10,ISIC_3812485.JPG,28,28,false,0.18000000000000005,hh,keypress(i),0,false,1012977.9000015259,1012977.5,1008001.536,1008114.4000015259,1008002.3,1012873,5,600,25,
break,html.Screen,10_24_1,2024-03-07T17:25:21.465Z,,,,,,,,,,,NaN,,,,,,,,low,high,,,,,,,false,,,,,false,1012979.5,1012979,,1012978.4000015259,,1012873,5,600,,
break_continue,html.Screen,10_24_2,2024-03-07T17:25:21.466Z,,,,,,,,,,,NaN,,,,,,,,low,high,,,,,,,false,,,,,false,1012980.4000015259,1012980.2000007629,,1012979.8000011444,,1012873,5,600,,
sequence,flow.Sequence,10_24,2024-03-07T17:25:21.466Z,,,,,,,,,,,4977.900000762893,completion,,,,,,,low,high,,,,,,,false,,,,,false,1012980.8000011444,1012980.2000007629,1008001.536,1008114.4000015259,1008002.3,1012873,5,600,,
trial,html.Screen,10_25_0,2024-03-07T17:25:26.726Z,,,,1,-0.0077673378094614,-0.0021810768579373,,0.04,true,hl,5366.800001144409,response,0.8152354890677903,0.9296121759583093,-0.9470699173626311,-1.10470584815077,0.9420339181374084,-0.9662201814887249,high,low,,ISIC_0067621.JPG,9,ISIC_0010283.JPG,28,25,false,0.18000000000000005,hl,keypress(j),0,false,1018240,1018239.8000011444,1012871.906,1012981,1012873,1018127.694,5,600,26,
break,html.Screen,10_25_1,2024-03-07T17:25:26.726Z,,,,,,,,,,,NaN,,,,,,,,high,low,,,,,,,false,,,,,false,1018240.7000007629,1018240.4000015259,,1018240.1000003815,,1018127.694,5,600,,
break_continue,html.Screen,10_25_2,2024-03-07T17:25:26.727Z,,,,,,,,,,,NaN,,,,,,,,high,low,,,,,,,false,,,,,false,1018241.4000015259,1018241.2000007629,,1018240.9000015259,,1018127.694,5,600,,
sequence,flow.Sequence,10_25,2024-03-07T17:25:26.727Z,,,,,,,,,,,5368.200000762939,completion,,,,,,,high,low,,,,,,,false,,,,,false,1018241.7000007629,1018241.2000007629,1012871.906,1012980.9000015259,1012873,1018127.694,5,600,,
trial,html.Screen,10_26_0,2024-03-07T17:25:29.688Z,,,,1,0.0327772618698018,-0.0056908372048728,,0.04,true,ll,3074.0060007629218,response,-1.0228768574896494,0.9296121759583093,-0.9470699173626311,-0.9413691675751268,0.9420339181374084,-0.9662201814887249,low,low,,ISIC_7897925.JPG,9,ISIC_0063492.JPG,28,50,false,0.1,ll,keypress(f),0,false,1021202.1000003815,1021201.7000007629,1018127.694,1018241.9000015259,1018127.694,1021096.5,5,600,27,
break,html.Screen,10_26_1,2024-03-07T17:25:29.689Z,,,,,,,,,,,NaN,,,,,,,,low,low,,,,,,,false,,,,,false,1021203.8000011444,1021203.2000007629,,1021202.7000007629,,1021096.5,5,600,,
break_continue,html.Screen,10_26_2,2024-03-07T17:25:29.690Z,,,,,,,,,,,NaN,,,,,,,,low,low,,,,,,,false,,,,,false,1021204.8000011444,1021204.6000003815,,1021204.2000007629,,1021096.5,5,600,,
sequence,flow.Sequence,10_26,2024-03-07T17:25:29.691Z,,,,,,,,,,,3076.906000381452,completion,,,,,,,low,low,,,,,,,false,,,,,false,1021205.2000007629,1021204.6000003815,1018127.694,1018241.8000011444,1018127.694,1021096.5,5,600,,
trial,html.Screen,10_27_0,2024-03-07T17:25:36.151Z,,,,1,-0.0350697500805515,-0.0166617848231997,,0.04,true,lh,6568.900001525879,response,-0.7705174182595537,0.9296121759583093,-0.9470699173626311,1.085710894474977,0.9420339181374084,-0.9662201814887249,low,high,,ISIC_0024423.JPG,9,ISIC_0013644.JPG,28,28,false,0.18000000000000005,lh,keypress(e),0,false,1027665.8000011444,1027665.4000015259,1021095.188,1021205.4000015259,1021096.5,1027551.9,5,600,28,
break,html.Screen,10_27_1,2024-03-07T17:25:36.153Z,,,,,,,,,,,NaN,,,,,,,,low,high,,,,,,,false,,,,,false,1027667.4000015259,1027666.8000011444,,1027666.3000011444,,1027551.9,5,600,,
break_continue,html.Screen,10_27_2,2024-03-07T17:25:36.154Z,,,,,,,,,,,NaN,,,,,,,,low,high,,,,,,,false,,,,,false,1027668.4000015259,1027668.1000003815,,1027667.7000007629,,1027551.9,5,600,,
sequence,flow.Sequence,10_27,2024-03-07T17:25:36.154Z,,,,,,,,,,,6571.60000038147,completion,,,,,,,low,high,,,,,,,false,,,,,false,1027668.7000007629,1027668.1000003815,1021095.188,1021205.4000015259,1021096.5,1027551.9,5,600,,
trial,html.Screen,10_28_0,2024-03-07T17:25:40.855Z,,,,1,-0.0077673378094614,-0.0021810768579373,,0.04,true,ll,4817.200000381446,response,-1.0088070132449485,0.9296121759583093,-0.9470699173626311,-0.9026684221154396,0.9420339181374084,-0.9662201814887249,low,low,,ISIC_0067621.JPG,9,ISIC_0059314.JPG,28,50,false,0.1,ll,keypress(f),0,false,1032369.5,1032369.1000003815,1027547.846,1027669,1027551.9,1032255.8,5,600,29,
break,html.Screen,10_28_1,2024-03-07T17:25:40.856Z,,,,,,,,,,,NaN,,,,,,,,low,low,,,,,,,false,,,,,false,1032370.9000015259,1032370.4000015259,,1032370,,1032255.8,5,600,,
break_continue,html.Screen,10_28_2,2024-03-07T17:25:40.857Z,,,,,,,,,,,NaN,,,,,,,,low,low,,,,,,,false,,,,,false,1032371.6000003815,1032371.3000011444,,1032371,,1032255.8,5,600,,
sequence,flow.Sequence,10_28,2024-03-07T17:25:40.857Z,,,,,,,,,,,4819.400001144386,completion,,,,,,,low,low,,,,,,,false,,,,,false,1032371.8000011444,1032371.3000011444,1027547.846,1027669,1027551.9,1032255.8,5,600,,
trial,html.Screen,10_29_0,2024-03-07T17:25:45.188Z,,,,1,0.0199897690678184,0.0312486875504497,,0.04,false,ll,4446.900000762893,response,-0.8984767404401109,0.9296121759583093,-0.9470699173626311,-1.0289479104867394,0.9420339181374084,-0.9662201814887249,low,low,,ISIC_5482426.JPG,9,ISIC_0011458.JPG,28,50,false,0.1,hl,keypress(j),0,false,1036703,1036702.7000007629,1032254.82,1032371.9000015259,1032255.8,1036591.6,5,600,30,
break,html.Screen,10_29_1,2024-03-07T17:25:45.189Z,,,,,,,,,,,NaN,,,,,,,,low,low,,,,,,,false,,,,,false,1036703.6000003815,1036703.5,,1036703.2000007629,,1036591.6,5,600,,
break_continue,html.Screen,10_29_2,2024-03-07T17:25:45.189Z,,,,,,,,,,,NaN,,,,,,,,low,low,,,,,,,false,,,,,false,1036703.9000015259,1036703.8000011444,,1036703.7000007629,,1036591.6,5,600,,
sequence,flow.Sequence,10_29,2024-03-07T17:25:45.189Z,,,,,,,,,,,4448.000001144363,completion,,,,,,,low,low,,,,,,,false,,,,,false,1036703.9000015259,1036703.8000011444,1032254.82,1032371.9000015259,1032255.8,1036591.6,5,600,,
trial,html.Screen,10_30_0,2024-03-07T17:25:51.781Z,,,,1,-0.0050679133050021,-0.0174815595031679,,0.04,true,ll,6703.2000011444325,response,-0.8797187572470211,0.9296121759583093,-0.9470699173626311,-0.9573640085332544,0.9420339181374084,-0.9662201814887249,low,low,,ISIC_9848743.JPG,9,ISIC_0010235.JPG,28,50,false,0.1,ll,keypress(f),0,false,1043295,1043294.8000011444,1036576.3,1036703.9000015259,1036591.6,1043181.3,5,600,31,
break,html.Screen,10_30_1,2024-03-07T17:25:51.781Z,,,,,,,,,,,NaN,,,,,,,,low,low,,,,,,,false,,,,,false,1043295.4000015259,1043295.3000011444,,1043295.1000003815,,1043181.3,5,600,,
break_continue,html.Screen,10_30_2,2024-03-07T17:25:51.781Z,,,,,,,,,,,NaN,,,,,,,,low,low,,,,,,,false,,,,,false,1043295.6000003815,1043295.6000003815,,1043295.4000015259,,1043181.3,5,600,,
sequence,flow.Sequence,10_30,2024-03-07T17:25:51.781Z,,,,,,,,,,,6704.000000381493,completion,,,,,,,low,low,,,,,,,false,,,,,false,1043295.7000007629,1043295.6000003815,1036576.3,1036703.9000015259,1036591.6,1043181.3,5,600,,
trial,html.Screen,10_31_0,2024-03-07T17:25:56.887Z,,,,1,-0.0023664502831079,-0.0252784582169994,,0.04,true,hh,5219.800000381423,response,1.0236565951660872,0.9296121759583093,-0.9470699173626311,0.9220772824737548,0.9420339181374084,-0.9662201814887249,high,high,,ISIC_4156010.JPG,8,ISIC_3209501.JPG,28,32,false,0.1,hh,keypress(i),0,false,1048401.6000003815,1048401.1000003815,1043165.1,1043295.8000011444,1043181.3,1048285.6,5,600,32,
break,html.Screen,10_31_1,2024-03-07T17:25:56.889Z,,,,,,,,,,,NaN,,,,,,,,high,high,,,,,,,false,,,,,false,1048403.3000011444,1048402.8000011444,,1048401.9000015259,,1048285.6,5,600,,
break_continue,html.Screen,10_31_2,2024-03-07T17:25:56.890Z,,,,,,,,,,,NaN,,,,,,,,high,high,,,,,,,false,,,,,false,1048404.2000007629,1048403.9000015259,,1048403.5,,1048285.6,5,600,,
sequence,flow.Sequence,10_31,2024-03-07T17:25:56.890Z,,,,,,,,,,,5222.600001525832,completion,,,,,,,high,high,,,,,,,false,,,,,false,1048404.7000007629,1048403.9000015259,1043165.1,1043295.8000011444,1043181.3,1048285.6,5,600,,
trial,html.Screen,10_32_0,2024-03-07T17:26:00.197Z,,,,1,0.0063515208248796,0.0194177605767913,,0.04,true,ll,3425.500000381493,response,-0.9293599144917216,0.9296121759583093,-0.9470699173626311,-1.045616100036335,0.9420339181374084,-0.9662201814887249,low,low,,ISIC_5281908.JPG,9,ISIC_0011031.JPG,28,50,false,0.1,ll,keypress(f),0,false,1051711.200000763,1051711.1000003815,1048284.598,1048404.9000015259,1048285.6,1051603.9,5,600,33,
break,html.Screen,10_32_1,2024-03-07T17:26:00.197Z,,,,,,,,,,,NaN,,,,,,,,low,low,,,,,,,false,,,,,false,1051711.4000015259,1051711.3000011444,,1051711.200000763,,1051603.9,5,600,,
break_continue,html.Screen,10_32_2,2024-03-07T17:26:00.197Z,,,,,,,,,,,NaN,,,,,,,,low,low,,,,,,,false,,,,,false,1051711.5,1051711.5,,1051711.4000015259,,1051603.9,5,600,,
sequence,flow.Sequence,10_32,2024-03-07T17:26:00.197Z,,,,,,,,,,,3425.9000000000233,completion,,,,,,,low,low,,,,,,,false,,,,,false,1051711.5,1051711.5,1048284.598,1048404.8000011444,1048285.6,1051603.9,5,600,,
trial,html.Screen,10_33_0,2024-03-07T17:26:05.032Z,,,,1,-0.012020985739544,0.0126097407389903,,0.04,false,hl,4942.200000381563,response,0.7785184841253222,0.9296121759583093,-0.9470699173626311,-0.8564302235174217,0.9420339181374084,-0.9662201814887249,high,low,,ISIC_0069379.JPG,9,ISIC_6529073.JPG,28,25,false,0.18000000000000005,hh,keypress(i),0,false,1056546.5,1056546.1000003815,1051588.7,1051711.5,1051603.9,1056442.4,5,600,34,
break,html.Screen,10_33_1,2024-03-07T17:26:05.034Z,,,,,,,,,,,NaN,,,,,,,,high,low,,,,,,,false,,,,,false,1056548.200000763,1056547.8000011444,,1056547,,1056442.4,5,600,,
break_continue,html.Screen,10_33_2,2024-03-07T17:26:05.035Z,,,,,,,,,,,NaN,,,,,,,,high,low,,,,,,,false,,,,,false,1056549.200000763,1056548.9000015259,,1056548.5,,1056442.4,5,600,,
sequence,flow.Sequence,10_33,2024-03-07T17:26:05.035Z,,,,,,,,,,,4945.000001525972,completion,,,,,,,high,low,,,,,,,false,,,,,false,1056549.5,1056548.9000015259,1051588.7,1051711.5,1051603.9,1056442.4,5,600,,
trial,html.Screen,10_34_0,2024-03-07T17:26:15.783Z,,,,1,0.0086413421586899,0.0360184993500958,,0.04,true,lh,10855.000001525972,response,-0.9566823908868002,0.9296121759583093,-0.9470699173626311,0.9602125665128364,0.9420339181374084,-0.9662201814887249,low,high,,ISIC_0010767.JPG,9,ISIC_0056784.JPG,28,28,false,0.18000000000000005,lh,keypress(e),0,false,1067297.9000015259,1067297.4000015259,1056439.902,1056549.700000763,1056442.4,1067184.6,5,600,35,
break,html.Screen,10_34_1,2024-03-07T17:26:15.785Z,,,,,,,,,,,NaN,,,,,,,,low,high,,,,,,,false,,,,,false,1067299.6000003815,1067299,,1067298.4000015259,,1067184.6,5,600,,
break_continue,html.Screen,10_34_2,2024-03-07T17:26:15.786Z,,,,,,,,,,,NaN,,,,,,,,low,high,,,,,,,false,,,,,false,1067300.6000003815,1067300.3000011444,,1067299.9000015259,,1067184.6,5,600,,
sequence,flow.Sequence,10_34,2024-03-07T17:26:15.787Z,,,,,,,,,,,10857.900001144502,completion,,,,,,,low,high,,,,,,,false,,,,,false,1067301,1067300.3000011444,1056439.902,1056549.6000003815,1056442.4,1067184.6,5,600,,
trial,html.Screen,10_35_0,2024-03-07T17:26:19.081Z,,,,1,-0.0060918352854008,0.029032683404407,,0.04,true,hl,3410.0000003813766,response,0.8070820195894357,0.9296121759583093,-0.9470699173626311,-0.8958120092147633,0.9420339181374084,-0.9662201814887249,high,low,,ISIC_8436194.JPG,10,ISIC_0060585.JPG,28,25,false,0.18000000000000005,hl,keypress(j),0,false,1070595.1000003815,1070594.6000003815,1067184.27,1067301.3000011444,1067184.6,1070487.2,5,600,36,
break,html.Screen,10_35_1,2024-03-07T17:26:19.082Z,,,,,,,,,,,NaN,,,,,,,,high,low,,,,,,,false,,,,,false,1070596.8000011444,1070596.3000011444,,1070595.5,,1070487.2,5,600,,
break_continue,html.Screen,10_35_2,2024-03-07T17:26:19.083Z,,,,,,,,,,,NaN,,,,,,,,high,low,,,,,,,false,,,,,false,1070597.9000015259,1070597.5,,1070597.1000003815,,1070487.2,5,600,,
sequence,flow.Sequence,10_35,2024-03-07T17:26:19.084Z,,,,,,,,,,,3412.899999999907,completion,,,,,,,high,low,,,,,,,false,,,,,false,1070598.3000011444,1070597.5,1067184.27,1067301.200000763,1067184.6,1070487.2,5,600,,
trial,html.Screen,10_36_0,2024-03-07T17:26:23.349Z,,,,1,-0.00126575685933,-0.0325046559638838,,0.04,false,lh,4376.000000762986,response,-0.8561946552009824,0.9296121759583093,-0.9470699173626311,0.9282171889213044,0.9420339181374084,-0.9662201814887249,low,high,,ISIC_5682259.JPG,9,ISIC_3065032.JPG,28,28,false,0.18000000000000005,hh,keypress(i),0,false,1074863.4000015259,1074863.200000763,1070485.542,1070598.5,1070487.2,1074757.8,5,600,37,
break,html.Screen,10_36_1,2024-03-07T17:26:23.349Z,,,,,,,,,,,NaN,,,,,,,,low,high,,,,,,,false,,,,,false,1074863.8000011444,1074863.700000763,,1074863.5,,1074757.8,5,600,,
break_continue,html.Screen,10_36_2,2024-03-07T17:26:23.350Z,,,,,,,,,,,NaN,,,,,,,,low,high,,,,,,,false,,,,,false,1074864,1074864,,1074863.8000011444,,1074757.8,5,600,,
sequence,flow.Sequence,10_36,2024-03-07T17:26:23.350Z,,,,,,,,,,,4376.800000000047,completion,,,,,,,low,high,,,,,,,false,,,,,false,1074864.1000003815,1074864,1070485.542,1070598.5,1070487.2,1074757.8,5,600,,
trial,html.Screen,10_37_0,2024-03-07T17:26:29.671Z,,,,1,0.0063515208248796,0.0194177605767913,,0.04,false,hh,6427.400000762893,response,0.9658792885069516,0.9296121759583093,-0.9470699173626311,0.916173605730014,0.9420339181374084,-0.9662201814887249,high,high,,ISIC_5281908.JPG,9,ISIC_8979275.JPG,28,32,false,0.1,lh,keypress(e),0,false,1081185.6000003815,1081185.200000763,1074740.7,1074864.200000763,1074757.8,1081079.3,5,600,38,
break,html.Screen,10_37_1,2024-03-07T17:26:29.673Z,,,,,,,,,,,NaN,,,,,,,,high,high,,,,,,,false,,,,,false,1081187.200000763,1081186.700000763,,1081186.1000003815,,1081079.3,5,600,,
break_continue,html.Screen,10_37_2,2024-03-07T17:26:29.674Z,,,,,,,,,,,NaN,,,,,,,,high,high,,,,,,,false,,,,,false,1081188.1000003815,1081187.8000011444,,1081187.4000015259,,1081079.3,5,600,,
sequence,flow.Sequence,10_37,2024-03-07T17:26:29.674Z,,,,,,,,,,,6430.000001144363,completion,,,,,,,high,high,,,,,,,false,,,,,false,1081188.5,1081187.8000011444,1074740.7,1074864.1000003815,1074757.8,1081079.3,5,600,,
trial,html.Screen,10_38_0,2024-03-07T17:26:33.895Z,,,,1,-0.0057914759495055,0.018500200317654,,0.04,false,hl,4330.199999999953,response,0.9013888878932071,0.9296121759583093,-0.9470699173626311,-0.9328095253308732,0.9420339181374084,-0.9662201814887249,high,low,,ISIC_0058723.JPG,9,ISIC_0068259.JPG,28,25,false,0.18000000000000005,hh,keypress(i),0,false,1085409.9000015259,1085409.5,1081078.776,1081188.9000015259,1081079.3,1085299.5,5,600,39,
break,html.Screen,10_38_1,2024-03-07T17:26:33.897Z,,,,,,,,,,,NaN,,,,,,,,high,low,,,,,,,false,,,,,false,1085411.4000015259,1085410.9000015259,,1085410.3000011444,,1085299.5,5,600,,
break_continue,html.Screen,10_38_2,2024-03-07T17:26:33.898Z,,,,,,,,,,,NaN,,,,,,,,high,low,,,,,,,false,,,,,false,1085412.3000011444,1085412,,1085411.6000003815,,1085299.5,5,600,,
