sender,sender_type,sender_id,timestamp,meta,,age,blockNo,c1,c2,condition,control_tolerance,correct,correctResponse,duration,ended_on,f1,f1_high,f1_low,f2,f2_high,f2_low,feature_level1,feature_level2,gender,img_left,img_reveal,img_right,n_control_images,n_target_images,practice,range_tolerance,response,response_action,selection_duration,staircase,time_commit,time_end,time_render,time_run,time_show,time_switch,total_blocks,total_trials,trialNo,url
informed_consent,html.Screen,0,2023-11-20T20:34:52.466Z,"{""labjs_version"":""20.2.4"",""labjs_build"":{""flavor"":""development"",""commit"":""f5b4a49f956347addd546a832a3327688c2c0fef""},""location"":""https://labjs.felixhenninger.com/api/labjs_preview/index.html"",""userAgent"":""Mozilla/5.0 (Windows NT 10.0; Win64; x64) AppleWebKit/537.36 (KHTML, like Gecko) Chrome/119.0.0.0 Safari/537.36"",""platform"":""Win32"",""language"":""en-US"",""locale"":""en-US"",""timeZone"":""America/Chicago"",""timezoneOffset"":360,""screen_width"":1920,""screen_height"":1080,""scroll_width"":945,""scroll_height"":918,""window_innerWidth"":945,""window_innerHeight"":966,""devicePixelRatio"":1}",,,,,,,,,,53204.277999928476,response,,,,,,,,,,,,,,,,,consent,click button,,,53705,53699.199999928474,478.238,598.8999999761581,494.922,53594.954,,,,{}
Demography form,html.Form,1,2023-11-20T20:34:58.603Z,,,19,,,,,,,,6246.146000023844,form submission,,,,,,,,,female,,,,,,,,,,,,59841.299999952316,59841.10000002384,53578.436,53705.299999952316,53594.954,59745.047,,,,
Welcome,html.Screen,2,2023-11-20T20:35:10.606Z,,,,,,,"[""asym"",""bor""]",,,,12098.35299997616,response,,,,,,,,,,,,,,,,,continue,click button,,,71844,71843.39999997616,59728.254,59841.39999997616,59745.047,71745.998,,,,
demo_instructions,html.Screen,3,2023-11-20T20:35:23.422Z,,,,,,,,,,,12913.501999999993,response,,,,,,,,,,,,,,,,,continue,click button,,,84660.19999992847,84659.5,71711.584,71844.19999992847,71745.998,84561.756,,,,
trial,html.Screen,4_0_0,2023-11-20T20:35:36.092Z,,,,0,-1.156827121261563,-1.2544342720917778,,,true,hh,12767.744000000006,response,1.1388430156686884,1.2,-1.2,1.2700552354887775,1.2,-1.2,high,high,,ISIC_0060397.JPG,,ISIC_9939653.JPG,,26,true,0.15000000000000002,hh,keypress(i),100,false,97329.69999992847,97329.5,84544.893,84660.29999995232,84561.756,97244.918,1,16,1,
sequence,flow.Sequence,4_0,2023-11-20T20:35:36.098Z,,,,,,,,,,,12767.744000000006,completion,,,,,,,high,high,,,,,,,true,,,,,false,97336.19999992847,97329.5,84544.893,84660.19999992847,84561.756,97244.918,1,16,,
trial,html.Screen,4_1_0,2023-11-20T20:35:38.327Z,,,,0,-1.2750452296609045,-1.1682369131232675,,,true,hh,2320.1820000238367,response,1.201100953917304,1.2,-1.2,1.1751492358160105,1.2,-1.2,high,high,,ISIC_0066399.JPG,,ISIC_0647224.JPG,,26,true,0.15000000000000002,hh,keypress(i),100,false,99565.69999992847,99565.10000002384,97228.669,97336.19999992847,97244.918,99478.429,1,16,2,
sequence,flow.Sequence,4_1,2023-11-20T20:35:38.328Z,,,,,,,,,,,2320.1820000238367,completion,,,,,,,high,high,,,,,,,true,,,,,false,99565.79999995232,99565.10000002384,97228.669,97336.19999992847,97244.918,99478.429,1,16,,
trial,html.Screen,4_2_0,2023-11-20T20:35:41.548Z,,,,0,-1.247270138097585,-1.1704704713504994,,,true,hh,3307.0709999999963,response,1.3189473926989124,1.2,-1.2,1.0770264364718942,1.2,-1.2,high,high,,ISIC_0065774.JPG,,ISIC_6093728.JPG,,26,true,0.15000000000000002,hh,keypress(i),100,false,102785.69999992847,102785.5,99461.558,99565.79999995232,99478.429,102695.022,1,16,3,
sequence,flow.Sequence,4_2,2023-11-20T20:35:41.548Z,,,,,,,,,,,3307.0709999999963,completion,,,,,,,high,high,,,,,,,true,,,,,false,102785.79999995232,102785.5,99461.558,99565.79999995232,99478.429,102695.022,1,16,,
trial,html.Screen,4_3_0,2023-11-20T20:35:44.175Z,,,,0,-1.2254187569955004,-1.174555235109734,,,true,hh,2717.777999952319,response,1.3411179702686655,1.2,-1.2,1.255103311449152,1.2,-1.2,high,high,,ISIC_0027187.JPG,,ISIC_5611010.JPG,,26,true,0.15000000000000002,hh,keypress(i),100,false,105413.19999992847,105412.79999995232,102678.656,102786,102695.022,105328.428,1,16,4,
sequence,flow.Sequence,4_3,2023-11-20T20:35:44.175Z,,,,,,,,,,,2717.777999952319,completion,,,,,,,high,high,,,,,,,true,,,,,false,105413.5,105412.79999995232,102678.656,102785.89999997616,102695.022,105328.428,1,16,,
trial,html.Screen,4_4_0,2023-11-20T20:35:48.035Z,,,,0,1.3189473926989124,1.0770264364718942,,,true,ll,3944.8719999523164,response,-1.2923059965680113,1.2,-1.2,-1.222688159093534,1.2,-1.2,low,low,,ISIC_6093728.JPG,,ISIC_0072175.JPG,,30,true,0.1,ll,keypress(f),100,false,109273.5,109273.29999995232,105311.991,105413.60000002384,105328.428,109178.231,1,16,5,
sequence,flow.Sequence,4_4,2023-11-20T20:35:48.035Z,,,,,,,,,,,3944.8719999523164,completion,,,,,,,low,low,,,,,,,true,,,,,false,109273.60000002384,109273.29999995232,105311.991,105413.5,105328.428,109178.231,1,16,,
trial,html.Screen,4_5_0,2023-11-20T20:35:51.399Z,,,,0,1.1653123206802332,1.2976858999596654,,,true,ll,3458.2690000000002,response,-1.2631894117279046,1.2,-1.2,-1.0916958871221865,1.2,-1.2,low,low,,ISIC_0071508.JPG,,ISIC_0065748.JPG,,53,true,0.15000000000000002,ll,keypress(f),100,false,112636.79999995232,112636.5,109161.986,109273.69999992847,109178.231,112544.959,1,16,6,
sequence,flow.Sequence,4_5,2023-11-20T20:35:51.399Z,,,,,,,,,,,3458.2690000000002,completion,,,,,,,low,low,,,,,,,true,,,,,false,112636.89999997616,112636.5,109161.986,109273.60000002384,109178.231,112544.959,1,16,,
trial,html.Screen,4_6_0,2023-11-20T20:35:54.138Z,,,,0,1.057008495826831,1.1278122585028287,,,true,ll,2831.0409999999974,response,-1.2322060291690602,1.2,-1.2,-1.2686491386389651,1.2,-1.2,low,low,,ISIC_2819798.JPG,,ISIC_0011697.JPG,,53,true,0.15000000000000002,ll,keypress(f),100,false,115376.19999992847,115376,112528.655,112636.89999997616,112544.959,115278.662,1,16,7,
sequence,flow.Sequence,4_6,2023-11-20T20:35:54.139Z,,,,,,,,,,,2831.0409999999974,completion,,,,,,,low,low,,,,,,,true,,,,,false,115376.29999995232,115376,112528.655,112636.89999997616,112544.959,115278.662,1,16,,
trial,html.Screen,4_7_0,2023-11-20T20:35:56.862Z,,,,0,1.2024083555600384,1.149077673153018,,,true,ll,2820.7379999761615,response,-1.188743606919222,1.2,-1.2,-1.0980226451001782,1.2,-1.2,low,low,,ISIC_3566243.JPG,,ISIC_0060481.JPG,,53,true,0.15000000000000002,ll,keypress(f),100,false,118099.60000002384,118099.39999997616,115261.528,115376.29999995232,115278.662,118011.634,1,16,8,
sequence,flow.Sequence,4_7,2023-11-20T20:35:56.862Z,,,,,,,,,,,2820.7379999761615,completion,,,,,,,low,low,,,,,,,true,,,,,false,118099.69999992847,118099.39999997616,115261.528,115376.29999995232,115278.662,118011.634,1,16,,
trial,html.Screen,4_8_0,2023-11-20T20:36:03.788Z,,,,0,0.858338058340649,-0.9540612223480284,,,true,lh,7014.065999928469,response,-0.8092423703106274,1.2,-1.2,1.1870093485714288,1.2,-1.2,low,high,,ISIC_8922893.JPG,,ISIC_8592235.JPG,,27,true,0.42000000000000026,lh,keypress(e),100,false,125025.79999995232,125025.69999992847,117994.857,118099.69999992847,118011.634,124928.659,1,16,9,
sequence,flow.Sequence,4_8,2023-11-20T20:36:03.788Z,,,,,,,,,,,7014.065999928469,completion,,,,,,,low,high,,,,,,,true,,,,,false,125026,125025.69999992847,117994.857,118099.69999992847,118011.634,124928.659,1,16,,
trial,html.Screen,4_9_0,2023-11-20T20:36:08.118Z,,,,0,0.9454713230140772,-0.9245167441969216,,,true,lh,4426.841,response,-1.0213365328004047,1.2,-1.2,1.088524359911891,1.2,-1.2,low,high,,ISIC_9101055.JPG,,ISIC_5434229.JPG,,27,true,0.42000000000000026,lh,keypress(e),100,false,129355.69999992847,129355.5,124911.495,125026,124928.659,129261.981,1,16,10,
sequence,flow.Sequence,4_9,2023-11-20T20:36:08.118Z,,,,,,,,,,,4426.841,completion,,,,,,,low,high,,,,,,,true,,,,,false,129355.89999997616,129355.5,124911.495,125026,124928.659,129261.981,1,16,,
trial,html.Screen,4_10_0,2023-11-20T20:36:11.807Z,,,,0,1.011737552725394,-0.8500530224490773,,,true,lh,3783.0190000000002,response,-0.7911024675435955,1.2,-1.2,0.7975977016137676,1.2,-1.2,low,high,,ISIC_2998367.JPG,,ISIC_5813642.JPG,,27,true,0.42000000000000026,lh,keypress(e),100,false,133045.10000002384,133045,129244.839,129355.89999997616,129261.981,132945.031,1,16,11,
sequence,flow.Sequence,4_10,2023-11-20T20:36:11.808Z,,,,,,,,,,,3783.0190000000002,completion,,,,,,,low,high,,,,,,,true,,,,,false,133045.29999995232,133045,129244.839,129355.89999997616,129261.981,132945.031,1,16,,
trial,html.Screen,4_11_0,2023-11-20T20:36:15.833Z,,,,0,0.8487429103619056,-0.9778257804233036,,,true,lh,4125.569000023854,response,-0.8092423703106274,1.2,-1.2,1.1870093485714288,1.2,-1.2,low,high,,ISIC_4554863.JPG,,ISIC_8592235.JPG,,27,true,0.42000000000000026,lh,keypress(e),100,false,137070.79999995232,137070.60000002384,132928.356,133045.29999995232,132945.031,136978.373,1,16,12,
sequence,flow.Sequence,4_11,2023-11-20T20:36:15.833Z,,,,,,,,,,,4125.569000023854,completion,,,,,,,low,high,,,,,,,true,,,,,false,137070.89999997616,137070.60000002384,132928.356,133045.29999995232,132945.031,136978.373,1,16,,
trial,html.Screen,4_12_0,2023-11-20T20:36:21.635Z,,,,0,-0.8623414234919863,0.782830143980698,,,true,hl,5894.627000000008,response,0.8534691366511764,1.2,-1.2,-1.03975580494588,1.2,-1.2,high,low,,ISIC_2727016.JPG,,ISIC_0056788.JPG,,26,true,0.3600000000000002,hl,keypress(j),100,false,142873.10000002384,142873,136961.514,137070.89999997616,136978.373,142778.639,1,16,13,
sequence,flow.Sequence,4_12,2023-11-20T20:36:21.636Z,,,,,,,,,,,5894.627000000008,completion,,,,,,,high,low,,,,,,,true,,,,,false,142873.19999992847,142873,136961.514,137070.89999997616,136978.373,142778.639,1,16,,
trial,html.Screen,4_13_0,2023-11-20T20:36:23.550Z,,,,0,-0.8623414234919863,0.782830143980698,,,true,hl,2008.7609999761626,response,0.8809306963311293,1.2,-1.2,-0.8614910030038974,1.2,-1.2,high,low,,ISIC_2727016.JPG,,ISIC_0013731.JPG,,33,true,0.42000000000000026,hl,keypress(j),100,false,144787.60000002384,144787.39999997616,142761.508,142873.29999995232,142778.639,144694.877,1,16,14,
sequence,flow.Sequence,4_13,2023-11-20T20:36:23.550Z,,,,,,,,,,,2008.7609999761626,completion,,,,,,,high,low,,,,,,,true,,,,,false,144787.79999995232,144787.39999997616,142761.508,142873.29999995232,142778.639,144694.877,1,16,,
trial,html.Screen,4_14_0,2023-11-20T20:36:26.152Z,,,,0,-0.9235571765207048,1.0008081653938232,,,true,hl,2695.1229999999923,response,0.8860551570327019,1.2,-1.2,-0.8067116931297591,1.2,-1.2,high,low,,ISIC_8796632.JPG,,ISIC_1457687.JPG,,33,true,0.42000000000000026,hl,keypress(j),100,false,147390.19999992847,147390,144678.205,144787.89999997616,144694.877,147295.296,1,16,15,
sequence,flow.Sequence,4_14,2023-11-20T20:36:26.153Z,,,,,,,,,,,2695.1229999999923,completion,,,,,,,high,low,,,,,,,true,,,,,false,147390.29999995232,147390,144678.205,144787.79999995232,144694.877,147295.296,1,16,,
trial,html.Screen,4_15_0,2023-11-20T20:36:27.954Z,,,,0,-0.8655167308525522,0.9298580423306444,,,true,hl,1896.603999976156,response,1.0026266089287914,1.2,-1.2,-1.0913275913920335,1.2,-1.2,high,low,,ISIC_4603706.JPG,,ISIC_0033520.JPG,,33,true,0.42000000000000026,hl,keypress(j),100,false,149192,149191.89999997616,147278.177,147390.39999997616,147295.296,149094.876,1,16,16,
sequence,flow.Sequence,4_15,2023-11-20T20:36:27.955Z,,,,,,,,,,,1896.603999976156,completion,,,,,,,high,low,,,,,,,true,,,,,false,149192.19999992847,149191.89999997616,147278.177,147390.39999997616,147295.296,149094.876,1,16,,
demonstration_loop,flow.Loop,4,2023-11-20T20:36:27.955Z,,,,,,,,,,,64630.143999976164,completion,,,,,,,,,,,,,,,true,,,,,false,149192.29999995232,149191.89999997616,84544.893,84660.19999992847,84561.756,149094.876,1,16,,
practice_instructions,html.Screen,5,2023-11-20T20:36:30.847Z,,,,,,,,,,,2988.823999928485,response,,,,,,,,,,,,,,,,,continue,click button,,,152084.39999997616,152083.69999992847,149078.163,149192.29999995232,149094.876,151994.935,,,,
trial,html.Screen,6_0_0,2023-11-20T20:36:34.047Z,,,,1,-1.101214461533281,-1.1849883512428183,,,true,hh,3284.7649999284768,response,1.2724584600905462,1.2,-1.2,1.1411016103695344,1.2,-1.2,high,high,,ISIC_0064943.JPG,,ISIC_0059625.JPG,,26,true,0.15000000000000002,hh,keypress(i),0,false,155284.60000002384,155279.69999992847,151978.392,152084.39999997616,151994.935,155195.009,1,40,1,
sequence,flow.Sequence,6_0,2023-11-20T20:36:34.047Z,,,,,,,,,,,3284.7649999284768,completion,,,,,,,high,high,,,,,,,true,,,,,false,155284.79999995232,155279.69999992847,151978.392,152084.39999997616,151994.935,155195.009,1,40,,
trial,html.Screen,6_1_0,2023-11-20T20:36:39.272Z,,,,1,1.2724584600905462,1.1411016103695344,,,true,ll,5314.591000023851,response,-1.2071341803968807,1.2,-1.2,-1.235960269089932,1.2,-1.2,low,low,,ISIC_0059625.JPG,,ISIC_0058174.JPG,,30,true,0.1,ll,keypress(f),0,false,160509.69999992847,160509.60000002384,155178.606,155284.79999995232,155195.009,160411.937,1,40,2,
sequence,flow.Sequence,6_1,2023-11-20T20:36:39.272Z,,,,,,,,,,,5314.591000023851,completion,,,,,,,low,low,,,,,,,true,,,,,false,160509.69999992847,160509.60000002384,155178.606,155284.79999995232,155195.009,160411.937,1,40,,
trial,html.Screen,6_2_0,2023-11-20T20:36:46.839Z,,,,1,1.1598623261077452,1.203269031614007,,,true,ll,7664.862999952311,response,-1.1721505400949757,1.2,-1.2,-1.3324676785261087,1.2,-1.2,low,low,,ISIC_0002639.JPG,,ISIC_0000167.JPG,,53,true,0.15000000000000002,ll,keypress(f),0,false,168076.89999997616,168076.79999995232,160378.062,160509.79999995232,160411.937,167978.575,1,40,3,
sequence,flow.Sequence,6_2,2023-11-20T20:36:46.839Z,,,,,,,,,,,7664.862999952311,completion,,,,,,,low,low,,,,,,,true,,,,,false,168076.89999997616,168076.79999995232,160378.062,160509.79999995232,160411.937,167978.575,1,40,,
trial,html.Screen,6_3_0,2023-11-20T20:36:50.344Z,,,,1,1.086647361897092,1.1528935990320313,,,true,ll,3603.02500002383,response,-1.2493792664822851,1.2,-1.2,-1.1336008561684745,1.2,-1.2,low,low,,ISIC_3505339.JPG,,ISIC_0061475.JPG,,53,true,0.15000000000000002,ll,keypress(f),0,false,171581.60000002384,171581.60000002384,167944.963,168077,167978.575,171478.133,1,40,4,
sequence,flow.Sequence,6_3,2023-11-20T20:36:50.344Z,,,,,,,,,,,3603.02500002383,completion,,,,,,,low,low,,,,,,,true,,,,,false,171581.79999995232,171581.60000002384,167944.963,168077,167978.575,171478.133,1,40,,
trial,html.Screen,6_4_0,2023-11-20T20:36:56.535Z,,,,1,1.4747161152848791,-0.847048591307387,,,true,lh,6294.566999928473,response,-0.8092423703106274,1.2,-1.2,1.1870093485714288,1.2,-1.2,low,high,,ISIC_0016092.JPG,,ISIC_8592235.JPG,,27,true,0.42000000000000026,lh,keypress(e),0,false,177772.79999995232,177772.69999992847,171461.532,171581.79999995232,171478.133,177661.465,1,40,5,
sequence,flow.Sequence,6_4,2023-11-20T20:36:56.535Z,,,,,,,,,,,6294.566999928473,completion,,,,,,,low,high,,,,,,,true,,,,,false,177773,177772.69999992847,171461.532,171581.79999995232,171478.133,177661.465,1,40,,
trial,html.Screen,6_5_0,2023-11-20T20:37:01.655Z,,,,1,1.331700944308701,-0.9395196143259436,,,false,lh,5231.434999976162,response,-0.7998855902596425,1.2,-1.2,1.1518579145663017,1.2,-1.2,low,high,,ISIC_1668831.JPG,,ISIC_0025061.JPG,,27,true,0.42000000000000026,ll,keypress(f),0,false,182893.10000002384,182892.89999997616,177644.644,177773,177661.465,182795.778,1,40,6,
sequence,flow.Sequence,6_5,2023-11-20T20:37:01.656Z,,,,,,,,,,,5231.434999976162,completion,,,,,,,low,high,,,,,,,true,,,,,false,182893.19999992847,182892.89999997616,177644.644,177773,177661.465,182795.778,1,40,,
trial,html.Screen,6_6_0,2023-11-20T20:37:09.112Z,,,,1,1.020990671779317,-1.0116513850520903,,,true,lh,7553.822000023851,response,-0.8623414234919863,1.2,-1.2,0.782830143980698,1.2,-1.2,low,high,,ISIC_0011995.JPG,,ISIC_2727016.JPG,,27,true,0.42000000000000026,lh,keypress(e),0,false,190349.69999992847,190349.60000002384,182761.333,182893.19999992847,182795.778,190245.27,1,40,7,
sequence,flow.Sequence,6_6,2023-11-20T20:37:09.112Z,,,,,,,,,,,7553.822000023851,completion,,,,,,,low,high,,,,,,,true,,,,,false,190349.69999992847,190349.60000002384,182761.333,182893.19999992847,182795.778,190245.27,1,40,,
trial,html.Screen,6_7_0,2023-11-20T20:37:12.728Z,,,,1,-1.2923059965680113,-1.222688159093534,,,true,hh,3720.1299999761686,response,0.9684792294535484,1.2,-1.2,0.9741930282015964,1.2,-1.2,high,high,,ISIC_0072175.JPG,,ISIC_3372750.JPG,,179,true,0.3600000000000002,hh,keypress(i),0,false,193965.60000002384,193965.39999997616,190228.146,190349.79999995232,190245.27,193861.459,1,40,8,
sequence,flow.Sequence,6_7,2023-11-20T20:37:12.728Z,,,,,,,,,,,3720.1299999761686,completion,,,,,,,high,high,,,,,,,true,,,,,false,193965.69999992847,193965.39999997616,190228.146,190349.79999995232,190245.27,193861.459,1,40,,
trial,html.Screen,6_8_0,2023-11-20T20:37:15.768Z,,,,1,-0.9873794329144926,0.7991077882008257,,,true,hl,3144.0409999999974,response,0.8809306963311293,1.2,-1.2,-0.8614910030038974,1.2,-1.2,high,low,,ISIC_0013498.JPG,,ISIC_0013731.JPG,,26,true,0.3600000000000002,hl,keypress(j),0,false,197005.69999992847,197005.5,193845.013,193965.79999995232,193861.459,196894.794,1,40,9,
sequence,flow.Sequence,6_8,2023-11-20T20:37:15.768Z,,,,,,,,,,,3144.0409999999974,completion,,,,,,,high,low,,,,,,,true,,,,,false,197005.79999995232,197005.5,193845.013,193965.79999995232,193861.459,196894.794,1,40,,
trial,html.Screen,6_9_0,2023-11-20T20:37:18.952Z,,,,1,1.331700944308701,-0.9395196143259436,,,true,lh,3294.8060000238474,response,-0.9873794329144926,1.2,-1.2,0.7991077882008257,1.2,-1.2,low,high,,ISIC_1668831.JPG,,ISIC_0013498.JPG,,27,true,0.42000000000000026,lh,keypress(e),0,false,200189.69999992847,200189.60000002384,196878.067,197005.79999995232,196894.794,200078.113,1,40,10,
sequence,flow.Sequence,6_9,2023-11-20T20:37:18.952Z,,,,,,,,,,,3294.8060000238474,completion,,,,,,,low,high,,,,,,,true,,,,,false,200189.79999995232,200189.60000002384,196878.067,197005.79999995232,196894.794,200078.113,1,40,,
trial,html.Screen,6_10_0,2023-11-20T20:37:23.352Z,,,,1,-1.276222161935671,0.9657780821973284,,,true,hl,4511.48700002383,response,0.869932994914832,1.2,-1.2,-0.8880533324432531,1.2,-1.2,high,low,,ISIC_6710411.JPG,,ISIC_8617084.JPG,,26,true,0.3600000000000002,hl,keypress(j),0,false,204589.69999992847,204589.60000002384,200061.858,200189.89999997616,200078.113,204478.11,1,40,11,
sequence,flow.Sequence,6_10,2023-11-20T20:37:23.352Z,,,,,,,,,,,4511.48700002383,completion,,,,,,,high,low,,,,,,,true,,,,,false,204589.79999995232,204589.60000002384,200061.858,200189.79999995232,200078.113,204478.11,1,40,,
trial,html.Screen,6_11_0,2023-11-20T20:37:31.464Z,,,,1,1.3189473926989124,1.0770264364718942,,,true,ll,8223.289999976172,response,-0.8826164980777871,1.2,-1.2,-1.0773466327271526,1.2,-1.2,low,low,,ISIC_6093728.JPG,,ISIC_0055169.JPG,,339,true,0.42000000000000026,ll,keypress(f),0,false,212701.39999997616,212701.39999997616,204461.331,204589.89999997616,204478.11,212594.903,1,40,12,
sequence,flow.Sequence,6_11,2023-11-20T20:37:31.464Z,,,,,,,,,,,8223.289999976172,completion,,,,,,,low,low,,,,,,,true,,,,,false,212701.60000002384,212701.39999997616,204461.331,204589.79999995232,204478.11,212594.903,1,40,,
trial,html.Screen,6_12_0,2023-11-20T20:37:36.264Z,,,,1,1.057008495826831,1.1278122585028287,,,true,ll,4906.597000000009,response,-1.1346217981791904,1.2,-1.2,-1.1555132168806113,1.2,-1.2,low,low,,ISIC_2819798.JPG,,ISIC_0032771.JPG,,53,true,0.15000000000000002,ll,keypress(f),0,false,217501.60000002384,217501.5,212578.334,212701.60000002384,212594.903,217394.784,1,40,13,
sequence,flow.Sequence,6_12,2023-11-20T20:37:36.264Z,,,,,,,,,,,4906.597000000009,completion,,,,,,,low,low,,,,,,,true,,,,,false,217501.69999992847,217501.5,212578.334,212701.60000002384,212594.903,217394.784,1,40,,
trial,html.Screen,6_13_0,2023-11-20T20:37:41.272Z,,,,1,-1.126264390089724,-1.271896565050952,,,true,hh,5114.615999976144,response,1.0789197754694622,1.2,-1.2,1.1654690806750023,1.2,-1.2,high,high,,ISIC_1520897.JPG,,ISIC_1576437.JPG,,26,true,0.15000000000000002,hh,keypress(i),0,false,222509.5,222509.39999997616,217378.015,217501.79999995232,217394.784,222412.205,1,40,14,
sequence,flow.Sequence,6_13,2023-11-20T20:37:41.272Z,,,,,,,,,,,5114.615999976144,completion,,,,,,,high,high,,,,,,,true,,,,,false,222509.69999992847,222509.39999997616,217378.015,217501.79999995232,217394.784,222412.205,1,40,,
trial,html.Screen,6_14_0,2023-11-20T20:37:44.647Z,,,,1,-1.247270138097585,-1.1704704713504994,,,true,hh,3472.694999976171,response,1.057008495826831,1.2,-1.2,1.1278122585028287,1.2,-1.2,high,high,,ISIC_0065774.JPG,,ISIC_2819798.JPG,,26,true,0.15000000000000002,hh,keypress(i),0,false,225885,225884.89999997616,222378.115,222509.69999992847,222412.205,225778.117,1,40,15,
sequence,flow.Sequence,6_14,2023-11-20T20:37:44.648Z,,,,,,,,,,,3472.694999976171,completion,,,,,,,high,high,,,,,,,true,,,,,false,225885.19999992847,225884.89999997616,222378.115,222509.69999992847,222412.205,225778.117,1,40,,
trial,html.Screen,6_15_0,2023-11-20T20:37:50.552Z,,,,1,-0.8623414234919863,0.782830143980698,,,true,hl,6011.383000000002,response,1.0143509683988825,1.2,-1.2,-1.3163955902021656,1.2,-1.2,high,low,,ISIC_2727016.JPG,,ISIC_0062031.JPG,,26,true,0.3600000000000002,hl,keypress(j),0,false,231789.60000002384,231789.5,225761.79,225885.19999992847,225778.117,231678.07,1,40,16,
sequence,flow.Sequence,6_15,2023-11-20T20:37:50.552Z,,,,,,,,,,,6011.383000000002,completion,,,,,,,high,low,,,,,,,true,,,,,false,231789.69999992847,231789.5,225761.79,225885.19999992847,225778.117,231678.07,1,40,,
trial,html.Screen,6_16_0,2023-11-20T20:38:00.136Z,,,,1,1.0865333402803938,-1.0542635307358266,,,true,lh,9694.72999995231,response,-0.9873794329144926,1.2,-1.2,0.7991077882008257,1.2,-1.2,low,high,,ISIC_0034006.JPG,,ISIC_0013498.JPG,,27,true,0.42000000000000026,lh,keypress(e),0,false,241372.79999995232,241372.79999995232,231661.263,231789.69999992847,231678.07,241261.464,1,40,17,
sequence,flow.Sequence,6_16,2023-11-20T20:38:00.136Z,,,,,,,,,,,9694.72999995231,completion,,,,,,,low,high,,,,,,,true,,,,,false,241372.89999997616,241372.79999995232,231661.263,231789.69999992847,231678.07,241261.464,1,40,,
trial,html.Screen,6_17_0,2023-11-20T20:38:06.232Z,,,,1,-1.185875658992962,-1.2635548590325487,,,true,hh,6208.035999999993,response,1.267958234005108,1.2,-1.2,0.8717905813957879,1.2,-1.2,high,high,,ISIC_0011703.JPG,,ISIC_9187876.JPG,,179,true,0.3600000000000002,hh,keypress(i),0,false,247469.60000002384,247469.5,241244.905,241373,241261.464,247361.458,1,40,18,
sequence,flow.Sequence,6_17,2023-11-20T20:38:06.232Z,,,,,,,,,,,6208.035999999993,completion,,,,,,,high,high,,,,,,,true,,,,,false,247469.69999992847,247469.5,241244.905,241373,241261.464,247361.458,1,40,,
trial,html.Screen,6_18_0,2023-11-20T20:38:13.560Z,,,,1,1.057008495826831,1.1278122585028287,,,true,ll,7435.841999952303,response,-1.152619213055059,1.2,-1.2,-1.1117876838408909,1.2,-1.2,low,low,,ISIC_2819798.JPG,,ISIC_0061915.JPG,,30,true,0.1,ll,keypress(f),0,false,254797.5,254797.29999995232,247345.062,247469.69999992847,247361.458,254694.951,1,40,19,
sequence,flow.Sequence,6_18,2023-11-20T20:38:13.560Z,,,,,,,,,,,7435.841999952303,completion,,,,,,,low,low,,,,,,,true,,,,,false,254797.60000002384,254797.29999995232,247345.062,247469.69999992847,247361.458,254694.951,1,40,,
trial,html.Screen,6_19_0,2023-11-20T20:38:19.176Z,,,,1,-1.156827121261563,-1.2544342720917778,,,true,hh,5717.848999952315,response,1.131522954199764,1.2,-1.2,1.1047184491749509,1.2,-1.2,high,high,,ISIC_0060397.JPG,,ISIC_1868816.JPG,,26,true,0.15000000000000002,hh,keypress(i),0,false,260412.89999997616,260412.79999995232,254677.871,254797.60000002384,254694.951,260311.459,1,40,20,
sequence,flow.Sequence,6_19,2023-11-20T20:38:19.176Z,,,,,,,,,,,5717.848999952315,completion,,,,,,,high,high,,,,,,,true,,,,,false,260412.89999997616,260412.79999995232,254677.871,254797.60000002384,254694.951,260311.459,1,40,,
trial,html.Screen,6_20_0,2023-11-20T20:38:23.736Z,,,,1,-0.9873794329144926,0.7991077882008257,,,true,hl,4661.540999999997,response,1.2364994561934892,1.2,-1.2,-0.9174173651516624,1.2,-1.2,high,low,,ISIC_0013498.JPG,,ISIC_3481133.JPG,,26,true,0.3600000000000002,hl,keypress(j),0,false,264973.1999999285,264973,260295.045,260413,260311.459,264861.433,1,40,21,
sequence,flow.Sequence,6_20,2023-11-20T20:38:23.736Z,,,,,,,,,,,4661.540999999997,completion,,,,,,,high,low,,,,,,,true,,,,,false,264973.2999999523,264973,260295.045,260413,260311.459,264861.433,1,40,,
trial,html.Screen,6_21_0,2023-11-20T20:38:27.736Z,,,,1,-0.9235571765207048,1.0008081653938232,,,true,hl,4111.966999976139,response,0.8179805381029407,1.2,-1.2,-0.8578467162767749,1.2,-1.2,high,low,,ISIC_8796632.JPG,,ISIC_0067253.JPG,,33,true,0.42000000000000026,hl,keypress(j),0,false,268973.39999997616,268973.39999997616,264844.864,264973.2999999523,264861.433,268861.433,1,40,22,
sequence,flow.Sequence,6_21,2023-11-20T20:38:27.736Z,,,,,,,,,,,4111.966999976139,completion,,,,,,,high,low,,,,,,,true,,,,,false,268973.60000002384,268973.39999997616,264844.864,264973.2999999523,264861.433,268861.433,1,40,,
trial,html.Screen,6_22_0,2023-11-20T20:38:33.224Z,,,,1,0.869932994914832,-0.8880533324432531,,,true,lh,5599.966999976139,response,-0.8947611078712571,1.2,-1.2,0.8960964505004638,1.2,-1.2,low,high,,ISIC_8617084.JPG,,ISIC_6441128.JPG,,27,true,0.42000000000000026,lh,keypress(e),0,false,274461.5,274461.39999997616,268845.104,268973.6999999285,268861.433,274361.528,1,40,23,
sequence,flow.Sequence,6_22,2023-11-20T20:38:33.224Z,,,,,,,,,,,5599.966999976139,completion,,,,,,,low,high,,,,,,,true,,,,,false,274461.6999999285,274461.39999997616,268845.104,268973.6999999285,268861.433,274361.528,1,40,,
trial,html.Screen,6_23_0,2023-11-20T20:38:40.680Z,,,,1,1.011737552725394,-0.8500530224490773,,,true,lh,7555.771999952325,response,-0.7998855902596425,1.2,-1.2,1.1518579145663017,1.2,-1.2,low,high,,ISIC_2998367.JPG,,ISIC_0025061.JPG,,27,true,0.42000000000000026,lh,keypress(e),0,false,281917.5,281917.2999999523,274345.034,274461.6999999285,274361.528,281811.873,1,40,24,
sequence,flow.Sequence,6_23,2023-11-20T20:38:40.680Z,,,,,,,,,,,7555.771999952325,completion,,,,,,,low,high,,,,,,,true,,,,,false,281917.60000002384,281917.2999999523,274345.034,274461.6999999285,274361.528,281811.873,1,40,,
trial,html.Screen,6_24_0,2023-11-20T20:38:47.096Z,,,,1,-1.152619213055059,-1.1117876838408909,,,true,hh,6521.426999952295,response,0.8814695482989191,1.2,-1.2,0.8440767077088777,1.2,-1.2,high,high,,ISIC_0061915.JPG,,ISIC_6392461.JPG,,179,true,0.3600000000000002,hh,keypress(i),0,false,288333.39999997616,288333.2999999523,281794.529,281917.60000002384,281811.873,288228.064,1,40,25,
sequence,flow.Sequence,6_24,2023-11-20T20:38:47.096Z,,,,,,,,,,,6521.426999952295,completion,,,,,,,high,high,,,,,,,true,,,,,false,288333.5,288333.2999999523,281794.529,281917.60000002384,281811.873,288228.064,1,40,,
trial,html.Screen,6_25_0,2023-11-20T20:38:54.328Z,,,,1,-0.7870237732709365,0.9172955251119376,,,true,hl,7337.235999952303,response,1.011737552725394,1.2,-1.2,-0.8500530224490773,1.2,-1.2,high,low,,ISIC_0057716.JPG,,ISIC_2998367.JPG,,26,true,0.3600000000000002,hl,keypress(j),0,false,295565.5,295565.2999999523,288211.404,288333.60000002384,288228.064,295461.879,1,40,26,
sequence,flow.Sequence,6_25,2023-11-20T20:38:54.328Z,,,,,,,,,,,7337.235999952303,completion,,,,,,,high,low,,,,,,,true,,,,,false,295565.5,295565.2999999523,288211.404,288333.60000002384,288228.064,295461.879,1,40,,
trial,html.Screen,6_26_0,2023-11-20T20:38:58.104Z,,,,1,1.201100953917304,1.1751492358160105,,,true,ll,3879.420999952301,response,-0.934130994804294,1.2,-1.2,-1.0454436589399478,1.2,-1.2,low,low,,ISIC_0647224.JPG,,ISIC_0053916.JPG,,339,true,0.42000000000000026,ll,keypress(f),0,false,299341.5,299341.2999999523,295444.946,295565.5,295461.879,299228.039,1,40,27,
sequence,flow.Sequence,6_26,2023-11-20T20:38:58.104Z,,,,,,,,,,,3879.420999952301,completion,,,,,,,low,low,,,,,,,true,,,,,false,299341.60000002384,299341.2999999523,295444.946,295565.5,295461.879,299228.039,1,40,,
trial,html.Screen,6_27_0,2023-11-20T20:39:05.000Z,,,,1,1.0870240111136478,1.332340670965917,,,true,ll,7009.360999976168,response,-1.2181031651370575,1.2,-1.2,-1.2158573487067317,1.2,-1.2,low,low,,ISIC_0000660.JPG,,ISIC_7242312.JPG,,53,true,0.15000000000000002,ll,keypress(f),0,false,306237.5,306237.39999997616,299211.342,299341.60000002384,299228.039,306128.076,1,40,28,
sequence,flow.Sequence,6_27,2023-11-20T20:39:05.000Z,,,,,,,,,,,7009.360999976168,completion,,,,,,,low,low,,,,,,,true,,,,,false,306237.60000002384,306237.39999997616,299211.342,299341.60000002384,299228.039,306128.076,1,40,,
trial,html.Screen,6_28_0,2023-11-20T20:39:06.744Z,,,,1,-1.2254187569955004,-1.174555235109734,,,true,hh,1853.2239999523154,response,1.1642596483638106,1.2,-1.2,1.109799097093339,1.2,-1.2,high,high,,ISIC_0027187.JPG,,ISIC_0765584.JPG,,26,true,0.15000000000000002,hh,keypress(i),0,false,307981.2999999523,307981.2999999523,306111.645,306237.60000002384,306128.076,307878.051,1,40,29,
sequence,flow.Sequence,6_28,2023-11-20T20:39:06.744Z,,,,,,,,,,,1853.2239999523154,completion,,,,,,,high,high,,,,,,,true,,,,,false,307981.39999997616,307981.2999999523,306111.645,306237.60000002384,306128.076,307878.051,1,40,,
trial,html.Screen,6_29_0,2023-11-20T20:39:13.127Z,,,,1,-0.8092423703106274,1.1870093485714288,,,true,hl,6486.049000023864,response,1.2695509547992938,1.2,-1.2,-0.9641099676945492,1.2,-1.2,high,low,,ISIC_8592235.JPG,,ISIC_0025841.JPG,,26,true,0.3600000000000002,hl,keypress(j),0,false,314364.1999999285,314364.10000002384,307861.809,307981.39999997616,307878.051,314261.614,1,40,30,
sequence,flow.Sequence,6_29,2023-11-20T20:39:13.127Z,,,,,,,,,,,6486.049000023864,completion,,,,,,,high,low,,,,,,,true,,,,,false,314364.2999999523,314364.10000002384,307861.809,307981.39999997616,307878.051,314261.614,1,40,,
trial,html.Screen,6_30_0,2023-11-20T20:39:19.400Z,,,,1,-1.126264390089724,-1.271896565050952,,,true,hh,6375.685999952315,response,0.8349834005033574,1.2,-1.2,1.1614693609347344,1.2,-1.2,high,high,,ISIC_1520897.JPG,,ISIC_0005239.JPG,,253,true,0.42000000000000026,hh,keypress(i),0,false,320637.39999997616,320637.2999999523,314244.977,314364.2999999523,314261.614,320528.047,1,40,31,
sequence,flow.Sequence,6_30,2023-11-20T20:39:19.400Z,,,,,,,,,,,6375.685999952315,completion,,,,,,,high,high,,,,,,,true,,,,,false,320637.5,320637.2999999523,314244.977,314364.2999999523,314261.614,320528.047,1,40,,
trial,html.Screen,6_31_0,2023-11-20T20:39:26.200Z,,,,1,-0.948927472020595,1.0660437155921598,,,true,hl,6908.852999976138,response,1.0026266089287914,1.2,-1.2,-1.0913275913920335,1.2,-1.2,high,low,,ISIC_5808758.JPG,,ISIC_0033520.JPG,,26,true,0.3600000000000002,hl,keypress(j),0,false,327436.89999997616,327436.89999997616,320511.39,320637.5,320528.047,327328.049,1,40,32,
sequence,flow.Sequence,6_31,2023-11-20T20:39:26.200Z,,,,,,,,,,,6908.852999976138,completion,,,,,,,high,low,,,,,,,true,,,,,false,327437,327436.89999997616,320511.39,320637.5,320528.047,327328.049,1,40,,
trial,html.Screen,6_32_0,2023-11-20T20:39:28.328Z,,,,1,-1.4092385398614515,1.3046237992197836,,,true,hl,2237.1509999284754,response,1.2331439637486756,1.2,-1.2,-0.9691143900156988,1.2,-1.2,high,low,,ISIC_7254359.JPG,,ISIC_7877488.JPG,,33,true,0.42000000000000026,hl,keypress(j),0,false,329565.2999999523,329565.1999999285,327311.638,327437.10000002384,327328.049,329461.63,1,40,33,
sequence,flow.Sequence,6_32,2023-11-20T20:39:28.328Z,,,,,,,,,,,2237.1509999284754,completion,,,,,,,high,low,,,,,,,true,,,,,false,329565.39999997616,329565.1999999285,327311.638,327437,327328.049,329461.63,1,40,,
trial,html.Screen,6_33_0,2023-11-20T20:39:31.016Z,,,,1,0.8579451262594331,-0.9633172970727744,,,true,lh,2791.0699999284698,response,-1.0115965332688306,1.2,-1.2,0.8282633603842442,1.2,-1.2,low,high,,ISIC_0067172.JPG,,ISIC_1069587.JPG,,27,true,0.42000000000000026,lh,keypress(e),0,false,332252.89999997616,332252.6999999285,329445.132,329565.5,329461.63,332144.705,1,40,34,
sequence,flow.Sequence,6_33,2023-11-20T20:39:31.016Z,,,,,,,,,,,2791.0699999284698,completion,,,,,,,low,high,,,,,,,true,,,,,false,332252.89999997616,332252.6999999285,329445.132,329565.5,329461.63,332144.705,1,40,,
trial,html.Screen,6_34_0,2023-11-20T20:39:33.784Z,,,,1,1.0143509683988825,-1.3163955902021656,,,true,lh,2876.194999976142,response,-0.809764442462202,1.2,-1.2,1.005337148078696,1.2,-1.2,low,high,,ISIC_0062031.JPG,,ISIC_2379379.JPG,,27,true,0.42000000000000026,lh,keypress(e),0,false,335021,335020.89999997616,332128.044,332253,332144.705,334911.381,1,40,35,
sequence,flow.Sequence,6_34,2023-11-20T20:39:33.784Z,,,,,,,,,,,2876.194999976142,completion,,,,,,,low,high,,,,,,,true,,,,,false,335021.10000002384,335020.89999997616,332128.044,332252.89999997616,332144.705,334911.381,1,40,,
trial,html.Screen,6_35_0,2023-11-20T20:39:36.647Z,,,,1,-0.948927472020595,1.0660437155921598,,,true,hl,2973.119000000006,response,0.8534691366511764,1.2,-1.2,-1.03975580494588,1.2,-1.2,high,low,,ISIC_5808758.JPG,,ISIC_0056788.JPG,,26,true,0.3600000000000002,hl,keypress(j),0,false,337884.60000002384,337884.5,334894.665,335021.1999999285,334911.381,337778.504,1,40,36,
sequence,flow.Sequence,6_35,2023-11-20T20:39:36.648Z,,,,,,,,,,,2973.119000000006,completion,,,,,,,high,low,,,,,,,true,,,,,false,337884.60000002384,337884.5,334894.665,335021.10000002384,334911.381,337778.504,1,40,,
trial,html.Screen,6_36_0,2023-11-20T20:39:39.512Z,,,,1,1.0789197754694622,1.1654690806750023,,,true,ll,2970.895999976143,response,-1.58374884494526,1.2,-1.2,-0.7870680543001342,1.2,-1.2,low,low,,ISIC_1576437.JPG,,ISIC_0010426.JPG,,339,true,0.42000000000000026,ll,keypress(f),0,false,340749.5,340749.39999997616,337761.527,337884.6999999285,337778.504,340644.712,1,40,37,
sequence,flow.Sequence,6_36,2023-11-20T20:39:39.513Z,,,,,,,,,,,2970.895999976143,completion,,,,,,,low,low,,,,,,,true,,,,,false,340749.60000002384,340749.39999997616,337761.527,337884.6999999285,337778.504,340644.712,1,40,,
trial,html.Screen,6_37_0,2023-11-20T20:39:44.168Z,,,,1,1.331700944308701,-0.9395196143259436,,,true,lh,4759.7880000000005,response,-0.7871162143493278,1.2,-1.2,0.8429329800778957,1.2,-1.2,low,high,,ISIC_1668831.JPG,,ISIC_3439215.JPG,,27,true,0.42000000000000026,lh,keypress(e),0,false,345404.60000002384,345404.5,340627.965,340749.60000002384,340644.712,345294.877,1,40,38,
sequence,flow.Sequence,6_37,2023-11-20T20:39:44.168Z,,,,,,,,,,,4759.7880000000005,completion,,,,,,,low,high,,,,,,,true,,,,,false,345404.7999999523,345404.5,340627.965,340749.60000002384,340644.712,345294.877,1,40,,
trial,html.Screen,6_38_0,2023-11-20T20:39:48.312Z,,,,1,-1.2952503640839694,-1.107234527385344,,,true,hh,4254.422999952338,response,0.9786457729523576,1.2,-1.2,1.1189056385517386,1.2,-1.2,high,high,,ISIC_0034134.JPG,,ISIC_3926019.JPG,,179,true,0.3600000000000002,hh,keypress(i),0,false,349549.39999997616,349549.2999999523,345277.983,345404.7999999523,345294.877,349445.168,1,40,39,
sequence,flow.Sequence,6_38,2023-11-20T20:39:48.312Z,,,,,,,,,,,4254.422999952338,completion,,,,,,,high,high,,,,,,,true,,,,,false,349549.5,349549.2999999523,345277.983,345404.7999999523,345294.877,349445.168,1,40,,
trial,html.Screen,6_39_0,2023-11-20T20:39:52.264Z,,,,1,1.1653123206802332,1.2976858999596654,,,true,ll,4056.0319999284693,response,-1.2750452296609045,1.2,-1.2,-1.1682369131232675,1.2,-1.2,low,low,,ISIC_0071508.JPG,,ISIC_0066399.JPG,,30,true,0.1,ll,keypress(f),0,false,353501.2999999523,353501.1999999285,349428.386,349549.5,349445.168,353394.78,1,40,40,
sequence,flow.Sequence,6_39,2023-11-20T20:39:52.264Z,,,,,,,,,,,4056.0319999284693,completion,,,,,,,low,low,,,,,,,true,,,,,false,353501.2999999523,353501.1999999285,349428.386,349549.5,349445.168,353394.78,1,40,,
practice_loop,flow.Loop,6,2023-11-20T20:39:52.264Z,,,,,,,,,,,201506.26499992848,completion,,,,,,,,,,,,,,,true,,,,,false,353501.5,353501.1999999285,151978.392,152084.39999997616,151994.935,353394.78,1,40,,
stair_instructions,html.Screen,7,2023-11-20T20:39:55.279Z,,,,,,,,,,,3120.9199999284465,response,,,,,,,,,,,,,,,,,continue,click button,,,356516.39999997616,356515.6999999285,353378.093,353501.5,353394.78,356411.83,,,,
trial,html.Screen,8_0_0,2023-11-20T20:39:58.955Z,,,,2,0.000047919190197942736,0.0462652940855003,,0.05,true,ll,3779.9699999523,response,-1.2181031651370575,1.2,-1.2,-1.2158573487067317,1.2,-1.2,low,low,,ISIC_0011507.JPG,,ISIC_7242312.JPG,33,53,false,0.15000000000000002,ll,keypress(f),0,true,360191.89999997616,360191.7999999523,356394.713,356516.5,356411.83,360094.839,1,40,1,
sequence,flow.Sequence,8_0,2023-11-20T20:39:58.955Z,,,,,,,,,,,3779.9699999523,completion,,,,,,,low,low,,,,,,,false,,,,,true,360192,360191.7999999523,356394.713,356516.5,356411.83,360094.839,1,40,,
trial,html.Screen,8_1_0,2023-11-20T20:40:05.737Z,,,,2,-0.0069555338059566,0.0310100918136373,,0.05,false,hl,6879.661000000022,response,0.9454713230140772,1.15,-1.15,-0.9245167441969216,1.15,-1.15,high,low,,ISIC_0011177.JPG,,ISIC_9101055.JPG,33,25,false,0.31000000000000016,ll,keypress(f),0,true,366974.5,366974.5,360078.046,360192,360094.839,366861.346,1,40,2,
sequence,flow.Sequence,8_1,2023-11-20T20:40:05.738Z,,,,,,,,,,,6879.661000000022,completion,,,,,,,high,low,,,,,,,false,,,,,true,366974.60000002384,366974.5,360078.046,360192,360094.839,366861.346,1,40,,
trial,html.Screen,8_2_0,2023-11-20T20:40:09.896Z,,,,2,0.0188047466661863,-0.0288346930436979,,0.05,false,hl,4271.254000023822,response,0.9644643328174062,1.15,-1.15,-0.745333984830218,1.15,-1.0201870464518266,high,low,,ISIC_0014157.JPG,,ISIC_0058046.JPG,33,26,false,0.29000000000000015,hh,keypress(i),0,true,371132.7999999523,371132.60000002384,366844.965,366974.6999999285,366861.346,371028.492,1,40,3,
sequence,flow.Sequence,8_2,2023-11-20T20:40:09.896Z,,,,,,,,,,,4271.254000023822,completion,,,,,,,high,low,,,,,,,false,,,,,true,371132.7999999523,371132.60000002384,366844.965,366974.6999999285,366861.346,371028.492,1,40,,
trial,html.Screen,8_3_0,2023-11-20T20:40:17.544Z,,,,2,-0.0324770283903853,-0.0249968632204382,,0.05,false,ll,7752.5079999999725,response,-1.1762578943048685,1.15,-1.15,-1.0434857167145009,1.15,-1.0701870464518266,low,low,,ISIC_7266462.JPG,,ISIC_0032544.JPG,33,31,false,0.1,lh,keypress(e),0,true,378781.10000002384,378781,371011.731,371132.89999997616,371028.492,378678.483,1,40,4,
sequence,flow.Sequence,8_3,2023-11-20T20:40:17.544Z,,,,,,,,,,,7752.5079999999725,completion,,,,,,,low,low,,,,,,,false,,,,,true,378781.1999999285,378781,371011.731,371132.89999997616,371028.492,378678.483,1,40,,
trial,html.Screen,8_4_0,2023-11-20T20:40:24.440Z,,,,2,-0.0329095507339554,0.0382899749693245,,0.05,true,hh,6998.816999952309,response,1.057008495826831,1.15,-1.0999999999999999,1.1278122585028287,1.15,-1.1201870464518267,high,high,,ISIC_8812781.JPG,,ISIC_2819798.JPG,33,30,false,0.13,hh,keypress(i),0,true,385677.39999997616,385677.2999999523,378661.568,378781.2999999523,378678.483,385578.125,1,40,5,
sequence,flow.Sequence,8_4,2023-11-20T20:40:24.440Z,,,,,,,,,,,6998.816999952309,completion,,,,,,,high,high,,,,,,,false,,,,,true,385677.5,385677.2999999523,378661.568,378781.1999999285,378678.483,385578.125,1,40,,
trial,html.Screen,8_5_0,2023-11-20T20:40:29.272Z,,,,2,-0.0069555338059566,0.0310100918136373,,0.05,false,lh,4930.774999976158,response,-1.0115965332688306,1.0424103771648299,-1.0999999999999999,0.8282633603842442,1.15,-1.1201870464518267,low,high,,ISIC_0011177.JPG,,ISIC_1069587.JPG,33,28,false,0.3600000000000002,ll,keypress(f),0,true,390509,390508.89999997616,385561.318,385677.60000002384,385578.125,390394.675,1,40,6,
sequence,flow.Sequence,8_5,2023-11-20T20:40:29.272Z,,,,,,,,,,,4930.774999976158,completion,,,,,,,low,high,,,,,,,false,,,,,true,390509.10000002384,390508.89999997616,385561.318,385677.60000002384,385578.125,390394.675,1,40,,
trial,html.Screen,8_6_0,2023-11-20T20:40:35.576Z,,,,2,-0.0324770283903853,-0.0249968632204382,,0.05,false,lh,6418.22499997617,response,-0.7871162143493278,1.0424103771648299,-1.0999999999999999,0.8429329800778957,1.15,-1.1201870464518267,low,high,,ISIC_7266462.JPG,,ISIC_3439215.JPG,33,28,false,0.3600000000000002,hl,keypress(j),0,true,396813,396812.89999997616,390378.148,390509.10000002384,390394.675,396711.562,1,40,7,
sequence,flow.Sequence,8_6,2023-11-20T20:40:35.576Z,,,,,,,,,,,6418.22499997617,completion,,,,,,,low,high,,,,,,,false,,,,,true,396813.10000002384,396812.89999997616,390378.148,390509.10000002384,390394.675,396711.562,1,40,,
trial,html.Screen,8_7_0,2023-11-20T20:40:38.375Z,,,,2,-0.007397293189458,-0.0174716772037504,,0.05,false,hl,2900.9380000000237,response,0.8579451262594331,1.0424103771648299,-1.15,-0.9633172970727744,1.15,-1.1201870464518267,high,low,,ISIC_0056226.JPG,,ISIC_0067172.JPG,33,27,false,0.27000000000000013,hh,keypress(i),0,true,399612.60000002384,399612.5,396694.937,396813.1999999285,396711.562,399511.795,1,40,8,
sequence,flow.Sequence,8_7,2023-11-20T20:40:38.376Z,,,,,,,,,,,2900.9380000000237,completion,,,,,,,high,low,,,,,,,false,,,,,true,399612.6999999285,399612.5,396694.937,396813.1999999285,396711.562,399511.795,1,40,,
trial,html.Screen,8_8_0,2023-11-20T20:40:40.776Z,,,,2,-0.039728379742806,0.0228701131373768,,0.05,true,hh,2501.1049999761744,response,0.9517665083259332,1.0424103771648299,-1.15,1.2717175116510189,1.15,-1.1701870464518267,high,high,,ISIC_0054073.JPG,,ISIC_2421696.JPG,33,30,false,0.13,hh,keypress(i),0,true,402013,402012.89999997616,399495.073,399612.6999999285,399511.795,401911.478,1,40,9,
sequence,flow.Sequence,8_8,2023-11-20T20:40:40.776Z,,,,,,,,,,,2501.1049999761744,completion,,,,,,,high,high,,,,,,,false,,,,,true,402013.10000002384,402012.89999997616,399495.073,399612.6999999285,399511.795,401911.478,1,40,,
trial,html.Screen,8_9_0,2023-11-20T20:40:43.752Z,,,,2,0,0.0264544974620926,,0.05,false,hl,3077.521999999997,response,1.0751036484083878,1.061742009988476,-1.15,-1.143906455483852,1.15,-1.1701870464518267,high,low,,ISIC_0056991.JPG,,ISIC_0064406.JPG,33,26,false,0.29000000000000015,hh,keypress(i),0,true,404989.1999999285,404989,401894.846,402013.10000002384,401911.478,404878.046,1,40,10,
sequence,flow.Sequence,8_9,2023-11-20T20:40:43.752Z,,,,,,,,,,,3077.521999999997,completion,,,,,,,high,low,,,,,,,false,,,,,true,404989.2999999523,404989,401894.846,402013.10000002384,401911.478,404878.046,1,40,,
trial,html.Screen,8_10_0,2023-11-20T20:40:46.824Z,,,,2,-0.0456515796420274,0.0273567130070961,,0.05,true,ll,3183.2539999523433,response,-1.156827121261563,1.061742009988476,-1.15,-1.2544342720917778,1.15,-1.1701870464518267,low,low,,ISIC_0068610.JPG,,ISIC_0060397.JPG,33,32,false,0.1,ll,keypress(f),0,true,408061.39999997616,408061.2999999523,404861.725,404989.2999999523,404878.046,407961.772,1,40,11,
sequence,flow.Sequence,8_10,2023-11-20T20:40:46.824Z,,,,,,,,,,,3183.2539999523433,completion,,,,,,,low,low,,,,,,,false,,,,,true,408061.5,408061.2999999523,404861.725,404989.2999999523,404878.046,407961.772,1,40,,
trial,html.Screen,8_11_0,2023-11-20T20:40:48.792Z,,,,2,0.0134764727102299,0.0033499036460912,,0.05,false,lh,2067.427999928477,response,-1.0213365328004047,1.061742009988476,-1.15,1.088524359911891,1.15,-1.1701870464518267,low,high,,ISIC_0009998.JPG,,ISIC_5434229.JPG,33,27,false,0.3700000000000002,ll,keypress(f),0,true,410029.2999999523,410029.1999999285,407944.866,408061.5,407961.772,409928.035,1,40,12,
sequence,flow.Sequence,8_11,2023-11-20T20:40:48.792Z,,,,,,,,,,,2067.427999928477,completion,,,,,,,low,high,,,,,,,false,,,,,true,410029.39999997616,410029.1999999285,407944.866,408061.5,407961.772,409928.035,1,40,,
trial,html.Screen,8_12_0,2023-11-20T20:40:52.632Z,,,,2,-0.0324770283903853,-0.0249968632204382,,0.05,true,hh,3941.3649999761838,response,1.0959058628476686,1.061742009988476,-1.0878854024460913,1.1684835186766898,1.15,-1.1701870464518267,high,high,,ISIC_7266462.JPG,,ISIC_5920470.JPG,33,29,false,0.13,hh,keypress(i),0,true,413869.5,413869.39999997616,409911.397,410029.39999997616,409928.035,413761.501,1,40,13,
sequence,flow.Sequence,8_12,2023-11-20T20:40:52.632Z,,,,,,,,,,,3941.3649999761838,completion,,,,,,,high,high,,,,,,,false,,,,,true,413869.60000002384,413869.39999997616,409911.397,410029.39999997616,409928.035,413761.501,1,40,,
trial,html.Screen,8_13_0,2023-11-20T20:40:55.001Z,,,,2,0.0051189696037511,-0.0396625911332438,,0.05,true,hh,2475.798999952327,response,1.09666761087476,1.0821946907621791,-1.0878854024460913,1.1072126870290426,1.15,-1.1701870464518267,high,high,,ISIC_9742891.JPG,,ISIC_0071754.JPG,33,31,false,0.13,hh,keypress(i),0,true,416237.39999997616,416237.2999999523,413744.58,413869.6999999285,413761.501,416127.997,1,40,14,
sequence,flow.Sequence,8_13,2023-11-20T20:40:55.001Z,,,,,,,,,,,2475.798999952327,completion,,,,,,,high,high,,,,,,,false,,,,,true,416237.5,416237.2999999523,413744.58,413869.6999999285,413761.501,416127.997,1,40,,
trial,html.Screen,8_14_0,2023-11-20T20:41:01.449Z,,,,2,-0.0389988030702649,-0.0143212271490256,,0.05,true,lh,6557.402999976184,response,-0.809764442462202,1.0821946907621791,-1.0878854024460913,1.005337148078696,1.0519401489519014,-1.1701870464518267,low,high,,ISIC_0064669.JPG,,ISIC_2379379.JPG,33,28,false,0.31000000000000016,lh,keypress(e),0,true,422685.60000002384,422685.39999997616,416111.293,416237.5,416127.997,422578.005,1,40,15,
sequence,flow.Sequence,8_14,2023-11-20T20:41:01.449Z,,,,,,,,,,,6557.402999976184,completion,,,,,,,low,high,,,,,,,false,,,,,true,422685.6999999285,422685.39999997616,416111.293,416237.5,416127.997,422578.005,1,40,,
trial,html.Screen,8_15_0,2023-11-20T20:41:07.736Z,,,,2,-0.039728379742806,0.0228701131373768,,0.05,false,hl,6394.8949999761535,response,0.8809306963311293,1.0821946907621791,-1.0878854024460913,-0.8614910030038974,1.0519401489519014,-1.1701870464518267,high,low,,ISIC_0054073.JPG,,ISIC_0013731.JPG,33,28,false,0.31000000000000016,ll,keypress(f),0,true,428973,428972.89999997616,422561.57,422685.6999999285,422578.005,428861.342,1,40,16,
sequence,flow.Sequence,8_15,2023-11-20T20:41:07.736Z,,,,,,,,,,,6394.8949999761535,completion,,,,,,,high,low,,,,,,,false,,,,,true,428973.1999999285,428972.89999997616,422561.57,422685.6999999285,422578.005,428861.342,1,40,,
trial,html.Screen,8_16_0,2023-11-20T20:41:10.168Z,,,,2,0.0112310719058792,-0.0469047359904117,,0.05,true,hh,2543.657999999996,response,1.0316392011945703,1.1321946907621792,-1.0878854024460913,1.1580619988377847,1.0519401489519014,-1.1201870464518267,high,high,,ISIC_0068184.JPG,,ISIC_0054206.JPG,33,30,false,0.11,hh,keypress(i),0,true,431405.1999999285,431405,428844.619,428973.1999999285,428861.342,431294.783,1,40,17,
sequence,flow.Sequence,8_16,2023-11-20T20:41:10.169Z,,,,,,,,,,,2543.657999999996,completion,,,,,,,high,high,,,,,,,false,,,,,true,431405.2999999523,431405,428844.619,428973.1999999285,428861.342,431294.783,1,40,,
trial,html.Screen,8_17_0,2023-11-20T20:41:19.609Z,,,,2,0,0.0264544974620926,,0.05,false,ll,9550.51699995232,response,-1.1762578943048685,1.1321946907621792,-1.0878854024460913,-1.0434857167145009,1.0448506000161775,-1.1201870464518267,low,low,,ISIC_0056991.JPG,,ISIC_0032544.JPG,33,27,false,0.1,lh,keypress(e),0,true,440845.5,440845.2999999523,431278.43,431405.2999999523,431294.783,440745.11,1,40,18,
sequence,flow.Sequence,8_17,2023-11-20T20:41:19.609Z,,,,,,,,,,,9550.51699995232,completion,,,,,,,low,low,,,,,,,false,,,,,true,440845.60000002384,440845.2999999523,431278.43,431405.2999999523,431294.783,440745.11,1,40,,
trial,html.Screen,8_18_0,2023-11-20T20:41:25.048Z,,,,2,-0.0363437082783146,-0.0333332186217051,,0.05,false,ll,5539.789999976172,response,-1.0377676235641546,1.1321946907621792,-1.0378854024460913,-1.0836906473836847,1.0448506000161775,-1.1701870464518267,low,low,,ISIC_3314555.JPG,,ISIC_0010540.JPG,33,25,false,0.1,hl,keypress(j),0,true,446285,446284.89999997616,440728.117,440845.60000002384,440745.11,446178.151,1,40,19,
sequence,flow.Sequence,8_18,2023-11-20T20:41:25.048Z,,,,,,,,,,,5539.789999976172,completion,,,,,,,low,low,,,,,,,false,,,,,true,446285.1999999285,446284.89999997616,440728.117,440845.60000002384,440745.11,446178.151,1,40,,
trial,html.Screen,8_19_0,2023-11-20T20:41:27.160Z,,,,2,0.0097091270150747,-0.0417921315885292,,0.05,true,hh,2218.7489999761456,response,1.0650525146668357,1.1321946907621792,-1.0878854024460913,0.9852293825146712,1.0448506000161775,-1.1701870464518267,high,high,,ISIC_3967213.JPG,,ISIC_6642608.JPG,33,30,false,0.11,hh,keypress(i),0,true,448397.10000002384,448396.89999997616,446161.154,446285.1999999285,446178.151,448294.692,1,40,20,
sequence,flow.Sequence,8_19,2023-11-20T20:41:27.160Z,,,,,,,,,,,2218.7489999761456,completion,,,,,,,high,high,,,,,,,false,,,,,true,448397.1999999285,448396.89999997616,446161.154,446285.1999999285,446178.151,448294.692,1,40,,
trial,html.Screen,8_20_0,2023-11-20T20:41:32.008Z,,,,2,0.0245376145053177,-0.0436993426328401,,0.05,true,hl,4950.107999952335,response,0.9579209317488,0.9751409485907534,-1.0878854024460913,-1.0147487101263497,1.0448506000161775,-1.1701870464518267,high,low,,ISIC_0056444.JPG,,ISIC_8124482.JPG,33,26,false,0.2600000000000001,hl,keypress(j),0,true,453244.89999997616,453244.7999999523,448278.367,448397.1999999285,448294.692,453144.653,1,40,21,
sequence,flow.Sequence,8_20,2023-11-20T20:41:32.008Z,,,,,,,,,,,4950.107999952335,completion,,,,,,,high,low,,,,,,,false,,,,,true,453245.10000002384,453244.7999999523,448278.367,448397.1999999285,448294.692,453144.653,1,40,,
trial,html.Screen,8_21_0,2023-11-20T20:41:35.465Z,,,,2,-0.0050679133050021,0.0009714874637896,,0.05,true,ll,3556.847000000009,response,-1.0130095662293503,0.9751409485907534,-1.0878854024460913,-1.098939882801048,1.0448506000161775,-1.1201870464518267,low,low,,ISIC_9848743.JPG,,ISIC_0059897.JPG,33,27,false,0.1,ll,keypress(f),0,true,456701.60000002384,456701.5,453127.857,453245.10000002384,453144.653,456594.668,1,40,22,
sequence,flow.Sequence,8_21,2023-11-20T20:41:35.465Z,,,,,,,,,,,3556.847000000009,completion,,,,,,,low,low,,,,,,,false,,,,,true,456701.6999999285,456701.5,453127.857,453245.10000002384,453144.653,456594.668,1,40,,
trial,html.Screen,8_22_0,2023-11-20T20:41:37.561Z,,,,2,-0.039728379742806,0.0228701131373768,,0.05,true,hh,2202.5319999284693,response,0.9071602543711612,0.9751409485907534,-1.0878854024460913,1.073798502866343,1.0448506000161775,-1.1201870464518267,high,high,,ISIC_0054073.JPG,,ISIC_6676776.JPG,33,33,false,0.1,hh,keypress(i),0,true,458797.2999999523,458797.1999999285,456577.926,456701.6999999285,456594.668,458694.871,1,40,23,
sequence,flow.Sequence,8_22,2023-11-20T20:41:37.561Z,,,,,,,,,,,2202.5319999284693,completion,,,,,,,high,high,,,,,,,false,,,,,true,458797.39999997616,458797.1999999285,456577.926,456701.6999999285,456594.668,458694.871,1,40,,
trial,html.Screen,8_23_0,2023-11-20T20:41:45.129Z,,,,2,-0.0217698886732706,0.0410870915161425,,0.05,false,lh,7670.5289999761735,response,-0.8092423703106274,0.9251409485907534,-1.0878854024460913,1.1870093485714288,0.9948506000161774,-1.1201870464518267,low,high,,ISIC_0072173.JPG,,ISIC_8592235.JPG,33,26,false,0.29000000000000015,hl,keypress(j),0,true,466365.39999997616,466365.39999997616,458678.291,458797.39999997616,458694.871,466261.265,1,40,24,
sequence,flow.Sequence,8_23,2023-11-20T20:41:45.129Z,,,,,,,,,,,7670.5289999761735,completion,,,,,,,low,high,,,,,,,false,,,,,true,466365.5,466365.39999997616,458678.291,458797.39999997616,458694.871,466261.265,1,40,,
trial,html.Screen,8_24_0,2023-11-20T20:41:48.280Z,,,,2,-0.0057914759495055,-0.0074667911845194,,0.05,false,lh,3255.335000023828,response,-1.0645919307156395,0.9251409485907534,-1.1378854024460914,0.7087706688259032,1.0448506000161775,-1.1201870464518267,low,high,,ISIC_0058723.JPG,,ISIC_0031575.JPG,33,27,false,0.3400000000000002,ll,keypress(f),0,true,469516.7999999523,469516.60000002384,466244.851,466365.60000002384,466261.265,469411.324,1,40,25,
sequence,flow.Sequence,8_24,2023-11-20T20:41:48.280Z,,,,,,,,,,,3255.335000023828,completion,,,,,,,low,high,,,,,,,false,,,,,true,469516.89999997616,469516.60000002384,466244.851,466365.5,466261.265,469411.324,1,40,,
trial,html.Screen,8_25_0,2023-11-20T20:41:51.241Z,,,,2,-0.0363437082783146,-0.0333332186217051,,0.05,false,lh,3065.975999952294,response,-0.991146183030456,0.9251409485907534,-1.1378854024460914,0.9949639823722534,1.0948506000161775,-1.1201870464518267,low,high,,ISIC_3314555.JPG,,ISIC_6342224.JPG,33,25,false,0.3500000000000002,ll,keypress(f),0,true,472477.39999997616,472477.2999999523,469394.582,469516.89999997616,469411.324,472378.435,1,40,26,
sequence,flow.Sequence,8_25,2023-11-20T20:41:51.241Z,,,,,,,,,,,3065.975999952294,completion,,,,,,,low,high,,,,,,,false,,,,,true,472477.5,472477.2999999523,469394.582,469516.89999997616,469411.324,472378.435,1,40,,
trial,html.Screen,8_26_0,2023-11-20T20:41:54.488Z,,,,2,-0.0085520978188085,0.0464691161264081,,0.05,false,hl,3346.665000023844,response,0.858338058340649,0.9251409485907534,-0.9778690568730477,-0.9540612223480284,1.1448506000161776,-1.1201870464518267,high,low,,ISIC_0758797.JPG,,ISIC_8922893.JPG,33,27,false,0.22000000000000008,hh,keypress(i),0,true,475725.1999999285,475725.10000002384,472361.196,472477.60000002384,472378.435,475611.275,1,40,27,
sequence,flow.Sequence,8_26,2023-11-20T20:41:54.489Z,,,,,,,,,,,3346.665000023844,completion,,,,,,,high,low,,,,,,,false,,,,,true,475725.2999999523,475725.10000002384,472361.196,472477.5,472378.435,475611.275,1,40,,
trial,html.Screen,8_27_0,2023-11-20T20:41:57.641Z,,,,2,-0.039728379742806,0.0228701131373768,,0.05,false,ll,3266.2249999999767,response,-0.9612373733144064,0.9251409485907534,-0.9778690568730477,-1.2155105349277993,1.1448506000161776,-1.1701870464518267,low,low,,ISIC_0054073.JPG,,ISIC_0014883.JPG,33,33,false,0.11,hl,keypress(j),0,true,478877.5,478877.5,475594.732,475725.2999999523,475611.275,478778.422,1,40,28,
sequence,flow.Sequence,8_27,2023-11-20T20:41:57.641Z,,,,,,,,,,,3266.2249999999767,completion,,,,,,,low,low,,,,,,,false,,,,,true,478877.6999999285,478877.5,475594.732,475725.2999999523,475611.275,478778.422,1,40,,
trial,html.Screen,8_28_0,2023-11-20T20:42:04.744Z,,,,2,-0.0116094682222121,0.0258434522530318,,0.05,false,hl,7202.0779999999795,response,0.706802912822355,0.9251409485907534,-1.0278690568730477,-1.168911077628813,1.1448506000161776,-1.1701870464518267,high,low,,ISIC_9239632.JPG,,ISIC_7358691.JPG,33,26,false,0.2300000000000001,lh,keypress(e),0,true,485980.7999999523,485980.5,478761.322,478877.6999999285,478778.422,485878.065,1,40,29,
sequence,flow.Sequence,8_28,2023-11-20T20:42:04.744Z,,,,,,,,,,,7202.0779999999795,completion,,,,,,,high,low,,,,,,,false,,,,,true,485980.7999999523,485980.5,478761.322,478877.6999999285,478778.422,485878.065,1,40,,
trial,html.Screen,8_29_0,2023-11-20T20:42:07.225Z,,,,2,0.0245376145053177,-0.0436993426328401,,0.05,false,hl,2583.0350000238395,response,0.8579451262594331,0.9751409485907534,-1.0278690568730477,-0.9633172970727744,1.1448506000161776,-1.1701870464518267,high,low,,ISIC_0056444.JPG,,ISIC_0067172.JPG,33,26,false,0.2600000000000001,hh,keypress(i),0,true,488461.2999999523,488461.10000002384,485861.549,485980.7999999523,485878.065,488361.747,1,40,30,
sequence,flow.Sequence,8_29,2023-11-20T20:42:07.225Z,,,,,,,,,,,2583.0350000238395,completion,,,,,,,high,low,,,,,,,false,,,,,true,488461.39999997616,488461.10000002384,485861.549,485980.7999999523,485878.065,488361.747,1,40,,
trial,html.Screen,8_30_0,2023-11-20T20:42:09.353Z,,,,2,-0.0027483411352856,-0.0100996915276271,,0.05,true,hh,2227.353000023868,response,0.9008266293518152,0.9751409485907534,-1.0278690568730477,1.180104759344151,1.1448506000161776,-1.1701870464518267,high,high,,ISIC_7364041.JPG,,ISIC_0025702.JPG,33,26,false,0.11,hh,keypress(i),0,true,490589.1999999285,490589.10000002384,488345.011,488461.5,488361.747,490477.914,1,40,31,
sequence,flow.Sequence,8_30,2023-11-20T20:42:09.353Z,,,,,,,,,,,2227.353000023868,completion,,,,,,,high,high,,,,,,,false,,,,,true,490589.2999999523,490589.10000002384,488345.011,488461.5,488361.747,490477.914,1,40,,
trial,html.Screen,8_31_0,2023-11-20T20:42:17.784Z,,,,2,-0.0450282431170921,0,,0.05,true,lh,8542.885999952327,response,-0.6971413872676647,0.990465694347983,-1.0278690568730477,0.9786113496628154,1.1448506000161776,-1.1701870464518267,low,high,,ISIC_1805163.JPG,,ISIC_8195528.JPG,33,27,false,0.3400000000000002,lh,keypress(e),0,true,499020.89999997616,499020.7999999523,490461.688,490589.2999999523,490477.914,498911.304,1,40,32,
sequence,flow.Sequence,8_31,2023-11-20T20:42:17.784Z,,,,,,,,,,,8542.885999952327,completion,,,,,,,low,high,,,,,,,false,,,,,true,499020.89999997616,499020.7999999523,490461.688,490589.2999999523,490477.914,498911.304,1,40,,
trial,html.Screen,8_32_0,2023-11-20T20:42:23.961Z,,,,2,-0.0085520978188085,0.0464691161264081,,0.05,false,ll,6285.796000023838,response,-1.0215600067367807,0.990465694347983,-1.0278690568730477,-1.1866489745604327,1.0948506000161775,-1.1701870464518267,low,low,,ISIC_0758797.JPG,,ISIC_0000173.JPG,33,33,false,0.11,lh,keypress(e),0,true,505197.1999999285,505197.10000002384,498894.788,499021,498911.304,505094.596,1,40,33,
sequence,flow.Sequence,8_32,2023-11-20T20:42:23.961Z,,,,,,,,,,,6285.796000023838,completion,,,,,,,low,low,,,,,,,false,,,,,true,505197.2999999523,505197.10000002384,498894.788,499020.89999997616,498911.304,505094.596,1,40,,
trial,html.Screen,8_33_0,2023-11-20T20:42:28.024Z,,,,2,-0.0324770283903853,-0.0249968632204382,,0.05,false,ll,4166.004000023822,response,-0.8360440386579719,0.990465694347983,-0.8093506970022226,-1.1017564906891342,1.0948506000161775,-1.1701870464518267,low,low,,ISIC_7266462.JPG,,ISIC_0029026.JPG,33,31,false,0.1,lh,keypress(e),0,true,509260.6999999285,509260.60000002384,505077.962,505197.2999999523,505094.596,509161.517,1,40,34,
sequence,flow.Sequence,8_33,2023-11-20T20:42:28.024Z,,,,,,,,,,,4166.004000023822,completion,,,,,,,low,low,,,,,,,false,,,,,true,509260.89999997616,509260.60000002384,505077.962,505197.2999999523,505094.596,509161.517,1,40,,
trial,html.Screen,8_34_0,2023-11-20T20:42:32.856Z,,,,2,0.0051189696037511,-0.0396625911332438,,0.05,false,lh,4930.882999976166,response,-0.6132586392346531,0.990465694347983,-0.8093506970022226,0.9190152836889912,1.0948506000161775,-1.1701870464518267,low,high,,ISIC_9742891.JPG,,ISIC_5833422.JPG,33,25,false,0.20000000000000007,hh,keypress(i),0,true,514092.39999997616,514092.39999997616,509144.953,509261,509161.517,513977.921,1,40,35,
sequence,flow.Sequence,8_34,2023-11-20T20:42:32.856Z,,,,,,,,,,,4930.882999976166,completion,,,,,,,low,high,,,,,,,false,,,,,true,514092.5,514092.39999997616,509144.953,509261,509161.517,513977.921,1,40,,
trial,html.Screen,8_35_0,2023-11-20T20:42:35.192Z,,,,2,-0.0057914759495055,-0.0074667911845194,,0.05,true,hh,2451.079000000027,response,0.9102336581208296,0.990465694347983,-0.8593506970022227,1.0305113346799688,1.0948506000161775,-1.1701870464518267,high,high,,ISIC_0058723.JPG,,ISIC_0068530.JPG,33,32,false,0.1,hh,keypress(i),0,true,516429.10000002384,516429,513961.327,514092.60000002384,513977.921,516328.166,1,40,36,
sequence,flow.Sequence,8_35,2023-11-20T20:42:35.193Z,,,,,,,,,,,2451.079000000027,completion,,,,,,,high,high,,,,,,,false,,,,,true,516429.1999999285,516429,513961.327,514092.60000002384,513977.921,516328.166,1,40,,
trial,html.Screen,8_36_0,2023-11-20T20:42:41.673Z,,,,2,-0.0116094682222121,0.0258434522530318,,0.05,false,lh,6581.233999976132,response,-1.0164576835546473,0.990465694347983,-0.8593506970022227,0.8120626538423016,0.9203724964003992,-1.1701870464518267,low,high,,ISIC_9239632.JPG,,ISIC_6002694.JPG,33,29,false,0.16000000000000003,hl,keypress(j),0,true,522909.5,522909.39999997616,516311.474,516429.1999999285,516328.166,522811.685,1,40,37,
sequence,flow.Sequence,8_36,2023-11-20T20:42:41.673Z,,,,,,,,,,,6581.233999976132,completion,,,,,,,low,high,,,,,,,false,,,,,true,522909.60000002384,522909.39999997616,516311.474,516429.1999999285,516328.166,522811.685,1,40,,
trial,html.Screen,8_37_0,2023-11-20T20:42:46.777Z,,,,2,-0.0324770283903853,-0.0249968632204382,,0.05,false,ll,5201.315000000002,response,-0.9612373733144064,0.990465694347983,-0.9093506970022227,-1.2155105349277993,0.9703724964003992,-1.1701870464518267,low,low,,ISIC_7266462.JPG,,ISIC_0014883.JPG,33,27,false,0.1,lh,keypress(e),0,true,528013.1999999285,528013,522777.863,522909.7999999523,522811.685,527911.718,1,40,38,
sequence,flow.Sequence,8_37,2023-11-20T20:42:46.777Z,,,,,,,,,,,5201.315000000002,completion,,,,,,,low,low,,,,,,,false,,,,,true,528013.2999999523,528013,522777.863,522909.7999999523,522811.685,527911.718,1,40,,
trial,html.Screen,8_38_0,2023-11-20T20:42:54.089Z,,,,2,-0.0069555338059566,0.0310100918136373,,0.05,false,hh,7413.2820000000065,response,1.079549480496248,0.990465694347983,-0.9093506970022227,0.9336079040538864,0.9703724964003992,-1.1701870464518267,high,high,,ISIC_0011177.JPG,,ISIC_6913045.JPG,33,37,false,0.1,hl,keypress(j),0,true,535325.1000000238,535325,527894.904,528013.3999999762,527911.718,535211.24,1,40,39,
sequence,flow.Sequence,8_38,2023-11-20T20:42:54.089Z,,,,,,,,,,,7413.2820000000065,completion,,,,,,,high,high,,,,,,,false,,,,,true,535325.2999999523,535325,527894.904,528013.2999999523,527911.718,535211.24,1,40,,
trial,html.Screen,8_39_0,2023-11-20T20:42:59.449Z,,,,2,-0.0324770283903853,-0.0249968632204382,,0.05,false,hl,5473.860000023851,response,1.0026266089287914,0.940465694347983,-0.9093506970022227,-1.0913275913920335,1.0203724964003993,-1.1701870464518267,high,low,,ISIC_7266462.JPG,,ISIC_0033520.JPG,33,25,false,0.2400000000000001,lh,keypress(e),0,true,540685.1000000238,540685.1000000238,535194.57,535325.2999999523,535211.24,540578.1,1,40,40,
sequence,flow.Sequence,8_39,2023-11-20T20:42:59.449Z,,,,,,,,,,,5473.860000023851,completion,,,,,,,high,low,,,,,,,false,,,,,true,540685.2999999523,540685.1000000238,535194.57,535325.2999999523,535211.24,540578.1,1,40,,
stair_loop,flow.Loop,8,2023-11-20T20:42:59.449Z,,,,,,,,,,,184273.27000002383,completion,,,,,,,,,,,,,,,false,,,,,true,540685.2999999523,540685.1000000238,356394.713,356516.5,356411.83,540578.1,1,40,,
exp_instructions,html.Screen,9,2023-11-20T20:43:02.040Z,,,,,,,,,,,2698.000000023865,response,,,,,,,,,,,,,,,,,continue,keypress(Space),,,543276.6000000238,543276.1000000238,540561.136,540685.2999999523,540578.1,543178.432,,,,
trial,html.Screen,10_0_0,2023-11-20T20:43:10.458Z,,,,1,-0.0027483411352856,-0.0100996915276271,,0.05,true,ll,8516.168000023812,response,-1.0387488172228707,0.9645370841815064,-0.989392534590172,-1.186629690487006,1.0699549792930216,-1.1551870464518263,low,low,,ISIC_7364041.JPG,9,ISIC_0015390.JPG,33,27,false,0.1,ll,keypress(f),0,false,551694.6999999285,551694.6000000238,543144.942,543276.6000000238,543178.432,551594.681,5,600,1,
break,html.Screen,10_0_1,2023-11-20T20:43:10.459Z,,,,,,,,,,,NaN,,,,,,,,low,low,,,,,,,false,,,,,false,551695.1000000238,551695,,551694.7999999523,,551594.681,5,600,,
break_continue,html.Screen,10_0_2,2023-11-20T20:43:10.459Z,,,,,,,,,,,NaN,,,,,,,,low,low,,,,,,,false,,,,,false,551695.3999999762,551695.2999999523,,551695.1999999285,,551594.681,5,600,,
sequence,flow.Sequence,10_0,2023-11-20T20:43:10.459Z,,,,,,,,,,,8516.867999952286,completion,,,,,,,low,low,,,,,,,false,,,,,false,551695.5,551695.2999999523,543144.942,543276.6000000238,543178.432,551594.681,5,600,,
trial,html.Screen,10_1_0,2023-11-20T20:43:14.569Z,,,,1,0.013431314305098,-0.0140597582944232,,0.05,true,hh,4210.718999976176,response,0.9962130178668478,0.9645370841815064,-0.989392534590172,1.0198919808587756,1.0699549792930216,-1.1551870464518263,high,high,,ISIC_0069617.JPG,8,ISIC_0595080.JPG,33,34,false,0.1,hh,keypress(i),0,false,555805.5,555805.3999999762,551577.661,551695.5,551594.681,555694.589,5,600,2,
break,html.Screen,10_1_1,2023-11-20T20:43:14.569Z,,,,,,,,,,,NaN,,,,,,,,high,high,,,,,,,false,,,,,false,555805.6999999285,555805.6999999285,,555805.5,,555694.589,5,600,,
break_continue,html.Screen,10_1_2,2023-11-20T20:43:14.570Z,,,,,,,,,,,NaN,,,,,,,,high,high,,,,,,,false,,,,,false,555806,555806,,555805.8999999762,,555694.589,5,600,,
sequence,flow.Sequence,10_1,2023-11-20T20:43:14.570Z,,,,,,,,,,,4211.319000000018,completion,,,,,,,high,high,,,,,,,false,,,,,false,555806.1000000238,555806,551577.661,551695.5,551594.681,555694.589,5,600,,
trial,html.Screen,10_2_0,2023-11-20T20:43:16.505Z,,,,1,0.0348234368746005,-0.0236866303880924,,0.05,true,hh,2046.610999928438,response,0.9071602543711612,0.9645370841815064,-0.989392534590172,1.073798502866343,1.0699549792930216,-1.1551870464518263,high,high,,ISIC_0011099.JPG,8,ISIC_6676776.JPG,33,34,false,0.1,hh,keypress(i),0,false,557741.2999999523,557741.1999999285,555678.265,555806.1000000238,555694.589,557627.895,5,600,3,
break,html.Screen,10_2_1,2023-11-20T20:43:16.505Z,,,,,,,,,,,NaN,,,,,,,,high,high,,,,,,,false,,,,,false,557741.6000000238,557741.5,,557741.3999999762,,557627.895,5,600,,
break_continue,html.Screen,10_2_2,2023-11-20T20:43:16.505Z,,,,,,,,,,,NaN,,,,,,,,high,high,,,,,,,false,,,,,false,557741.7999999523,557741.7999999523,,557741.6999999285,,557627.895,5,600,,
sequence,flow.Sequence,10_2,2023-11-20T20:43:16.505Z,,,,,,,,,,,2047.21099995228,completion,,,,,,,high,high,,,,,,,false,,,,,false,557741.7999999523,557741.7999999523,555678.265,555806.1000000238,555694.589,557627.895,5,600,,
trial,html.Screen,10_3_0,2023-11-20T20:43:22.792Z,,,,1,-0.0070725527271049,-0.0049995141077508,,0.05,false,hh,6400.604999999981,response,1.057008495826831,0.9645370841815064,-0.989392534590172,1.1278122585028287,1.0699549792930216,-1.1551870464518263,high,high,,ISIC_6124481.JPG,9,ISIC_2819798.JPG,33,34,false,0.1,hl,keypress(j),0,false,564028.6000000238,564028.5,557611.695,557741.7999999523,557627.895,563928.014,5,600,4,
break,html.Screen,10_3_1,2023-11-20T20:43:22.792Z,,,,,,,,,,,NaN,,,,,,,,high,high,,,,,,,false,,,,,false,564028.7999999523,564028.7999999523,,564028.6999999285,,563928.014,5,600,,
break_continue,html.Screen,10_3_2,2023-11-20T20:43:22.793Z,,,,,,,,,,,NaN,,,,,,,,high,high,,,,,,,false,,,,,false,564029.1000000238,564028.8999999762,,564028.8999999762,,563928.014,5,600,,
sequence,flow.Sequence,10_3,2023-11-20T20:43:22.793Z,,,,,,,,,,,6401.0049999761395,completion,,,,,,,high,high,,,,,,,false,,,,,false,564029.1000000238,564028.8999999762,557611.695,557741.7999999523,557627.895,563928.014,5,600,,
trial,html.Screen,10_4_0,2023-11-20T20:43:31.465Z,,,,1,0.0102460616775615,-0.0309670599545429,,0.05,false,hl,8773.086000023875,response,1.0865333402803938,0.9645370841815064,-0.989392534590172,-1.0542635307358266,1.0699549792930216,-1.1551870464518263,high,low,,ISIC_0072041.JPG,8,ISIC_0034006.JPG,33,25,false,0.2500000000000001,hh,keypress(i),0,false,572701.1000000238,572701.1000000238,563911.586,564029.1999999285,563928.014,572594.65,5,600,5,
break,html.Screen,10_4_1,2023-11-20T20:43:31.465Z,,,,,,,,,,,NaN,,,,,,,,high,low,,,,,,,false,,,,,false,572701.5,572701.3999999762,,572701.2999999523,,572594.65,5,600,,
break_continue,html.Screen,10_4_2,2023-11-20T20:43:31.465Z,,,,,,,,,,,NaN,,,,,,,,high,low,,,,,,,false,,,,,false,572701.6999999285,572701.6999999285,,572701.6000000238,,572594.65,5,600,,
sequence,flow.Sequence,10_4,2023-11-20T20:43:31.465Z,,,,,,,,,,,8773.685999928508,completion,,,,,,,high,low,,,,,,,false,,,,,false,572701.7999999523,572701.6999999285,563911.586,564029.1999999285,563928.014,572594.65,5,600,,
trial,html.Screen,10_5_0,2023-11-20T20:43:37.641Z,,,,1,0.0409338693593207,-0.0072462710499874,,0.05,false,hl,6282.149999952293,response,1.0751036484083878,0.9645370841815064,-0.989392534590172,-1.143906455483852,1.0699549792930216,-1.1551870464518263,high,low,,ISIC_3608788.JPG,8,ISIC_0064406.JPG,33,25,false,0.2500000000000001,ll,keypress(f),0,false,578876.8999999762,578876.7999999523,572577.733,572701.7999999523,572594.65,578794.592,5,600,6,
break,html.Screen,10_5_1,2023-11-20T20:43:37.641Z,,,,,,,,,,,NaN,,,,,,,,high,low,,,,,,,false,,,,,false,578877.1999999285,578877.1999999285,,578877.1000000238,,578794.592,5,600,,
break_continue,html.Screen,10_5_2,2023-11-20T20:43:37.641Z,,,,,,,,,,,NaN,,,,,,,,high,low,,,,,,,false,,,,,false,578877.3999999762,578877.3999999762,,578877.2999999523,,578794.592,5,600,,
sequence,flow.Sequence,10_5,2023-11-20T20:43:37.641Z,,,,,,,,,,,6282.749999976135,completion,,,,,,,high,low,,,,,,,false,,,,,false,578877.5,578877.3999999762,572577.733,572701.7999999523,572594.65,578794.592,5,600,,
trial,html.Screen,10_6_0,2023-11-20T20:43:41.929Z,,,,1,-0.0107854985447517,-0.0478010417136109,,0.05,true,hl,4370.70799995237,response,0.7836356408583546,0.9645370841815064,-0.989392534590172,-1.1197925594706428,1.0699549792930216,-1.1551870464518263,high,low,,ISIC_0010500.JPG,9,ISIC_0024961.JPG,33,25,false,0.2500000000000001,hl,keypress(j),0,false,583165.3999999762,583165.2999999523,578778.386,578877.5,578794.592,583061.686,5,600,7,
break,html.Screen,10_6_1,2023-11-20T20:43:41.929Z,,,,,,,,,,,NaN,,,,,,,,high,low,,,,,,,false,,,,,false,583165.6000000238,583165.5,,583165.3999999762,,583061.686,5,600,,
break_continue,html.Screen,10_6_2,2023-11-20T20:43:41.929Z,,,,,,,,,,,NaN,,,,,,,,high,low,,,,,,,false,,,,,false,583165.6999999285,583165.6999999285,,583165.6000000238,,583061.686,5,600,,
sequence,flow.Sequence,10_6,2023-11-20T20:43:41.929Z,,,,,,,,,,,4371.107999928528,completion,,,,,,,high,low,,,,,,,false,,,,,false,583165.8999999762,583165.6999999285,578778.386,578877.5,578794.592,583061.686,5,600,,
trial,html.Screen,10_7_0,2023-11-20T20:43:44.841Z,,,,1,-0.0069555338059566,0.0310100918136373,,0.05,true,hh,3015.5139999284875,response,0.913084438298574,0.9645370841815064,-0.989392534590172,1.135180301076722,1.0699549792930216,-1.1551870464518263,high,high,,ISIC_0011177.JPG,9,ISIC_8637134.JPG,33,34,false,0.1,hh,keypress(i),0,false,586077.3999999762,586077.1999999285,583044.973,583165.8999999762,583061.686,585978.35,5,600,8,
break,html.Screen,10_7_1,2023-11-20T20:43:44.841Z,,,,,,,,,,,NaN,,,,,,,,high,high,,,,,,,false,,,,,false,586077.6000000238,586077.6000000238,,586077.3999999762,,585978.35,5,600,,
break_continue,html.Screen,10_7_2,2023-11-20T20:43:44.841Z,,,,,,,,,,,NaN,,,,,,,,high,high,,,,,,,false,,,,,false,586077.8999999762,586077.7999999523,,586077.6999999285,,585978.35,5,600,,
sequence,flow.Sequence,10_7,2023-11-20T20:43:44.841Z,,,,,,,,,,,3016.1139999523293,completion,,,,,,,high,high,,,,,,,false,,,,,false,586077.8999999762,586077.7999999523,583044.973,583165.8999999762,583061.686,585978.35,5,600,,
trial,html.Screen,10_8_0,2023-11-20T20:43:49.785Z,,,,1,-0.0050679133050021,0.0009714874637896,,0.05,false,ll,5042.94999995234,response,-1.0351900568634125,0.9645370841815064,-0.989392534590172,-1.060448537312289,1.0699549792930216,-1.1551870464518263,low,low,,ISIC_9848743.JPG,9,ISIC_4377208.JPG,33,27,false,0.1,hl,keypress(j),0,false,591021.3999999762,591021.2999999523,585961.16,586077.8999999762,585978.35,590911.301,5,600,9,
break,html.Screen,10_8_1,2023-11-20T20:43:49.785Z,,,,,,,,,,,NaN,,,,,,,,low,low,,,,,,,false,,,,,false,591021.6999999285,591021.6000000238,,591021.5,,590911.301,5,600,,
break_continue,html.Screen,10_8_2,2023-11-20T20:43:49.786Z,,,,,,,,,,,NaN,,,,,,,,low,low,,,,,,,false,,,,,false,591021.8999999762,591021.8999999762,,591021.7999999523,,590911.301,5,600,,
sequence,flow.Sequence,10_8,2023-11-20T20:43:49.786Z,,,,,,,,,,,5043.549999976181,completion,,,,,,,low,low,,,,,,,false,,,,,false,591022,591021.8999999762,585961.16,586077.8999999762,585978.35,590911.301,5,600,,
trial,html.Screen,10_9_0,2023-11-20T20:43:57.673Z,,,,1,-0.0324770283903853,-0.0249968632204382,,0.05,false,ll,7997.799000023864,response,-1.0525532302758762,0.9645370841815064,-0.989392534590172,-1.1628982512509805,1.0699549792930216,-1.1551870464518263,low,low,,ISIC_7266462.JPG,9,ISIC_0033428.JPG,33,27,false,0.1,lh,keypress(e),0,false,598909.1999999285,598909.1000000238,590894.923,591022,590911.301,598811.601,5,600,10,
break,html.Screen,10_9_1,2023-11-20T20:43:57.673Z,,,,,,,,,,,NaN,,,,,,,,low,low,,,,,,,false,,,,,false,598909.5,598909.3999999762,,598909.2999999523,,598811.601,5,600,,
break_continue,html.Screen,10_9_2,2023-11-20T20:43:57.673Z,,,,,,,,,,,NaN,,,,,,,,low,low,,,,,,,false,,,,,false,598909.6999999285,598909.6000000238,,598909.5,,598811.601,5,600,,
sequence,flow.Sequence,10_9,2023-11-20T20:43:57.674Z,,,,,,,,,,,7998.299000023864,completion,,,,,,,low,low,,,,,,,false,,,,,false,598909.7999999523,598909.6000000238,590894.923,591022,590911.301,598811.601,5,600,,
trial,html.Screen,10_10_0,2023-11-20T20:44:09.241Z,,,,1,0.013431314305098,-0.0140597582944232,,0.05,false,ll,11665.698999952292,response,-1.0700930503975157,0.9645370841815064,-0.989392534590172,-1.2020012168275056,1.0699549792930216,-1.1551870464518263,low,low,,ISIC_0069617.JPG,9,ISIC_0000022.JPG,33,27,false,0.1,hl,keypress(j),0,false,610477.3999999762,610477.2999999523,598778.031,598909.7999999523,598811.601,610378.335,5,600,11,
break,html.Screen,10_10_1,2023-11-20T20:44:09.241Z,,,,,,,,,,,NaN,,,,,,,,low,low,,,,,,,false,,,,,false,610477.7999999523,610477.6000000238,,610477.5,,610378.335,5,600,,
break_continue,html.Screen,10_10_2,2023-11-20T20:44:09.242Z,,,,,,,,,,,NaN,,,,,,,,low,low,,,,,,,false,,,,,false,610477.8999999762,610477.8999999762,,610477.7999999523,,610378.335,5,600,,
sequence,flow.Sequence,10_10,2023-11-20T20:44:09.242Z,,,,,,,,,,,11666.298999976134,completion,,,,,,,low,low,,,,,,,false,,,,,false,610478.1000000238,610477.8999999762,598778.031,598909.7999999523,598811.601,610378.335,5,600,,
trial,html.Screen,10_11_0,2023-11-20T20:44:17.751Z,,,,1,0.0159061451859594,0.0296598845560212,,0.05,false,lh,8609.165000000037,response,-1.0115965332688306,0.9645370841815064,-0.989392534590172,0.8282633603842442,1.0699549792930216,-1.1551870464518263,low,high,,ISIC_0072564.JPG,9,ISIC_1069587.JPG,33,28,false,0.28000000000000014,ll,keypress(f),0,false,618987.6999999285,618987.5,610361.217,610478.1000000238,610378.335,618877.846,5,600,12,
break,html.Screen,10_11_1,2023-11-20T20:44:17.752Z,,,,,,,,,,,NaN,,,,,,,,low,high,,,,,,,false,,,,,false,618988,618987.8999999762,,618987.7999999523,,618877.846,5,600,,
break_continue,html.Screen,10_11_2,2023-11-20T20:44:17.752Z,,,,,,,,,,,NaN,,,,,,,,low,high,,,,,,,false,,,,,false,618988.1999999285,618988.1000000238,,618988.1000000238,,618877.846,5,600,,
sequence,flow.Sequence,10_11,2023-11-20T20:44:17.752Z,,,,,,,,,,,8609.76500002388,completion,,,,,,,low,high,,,,,,,false,,,,,false,618988.1999999285,618988.1000000238,610361.217,610478.1000000238,610378.335,618877.846,5,600,,
trial,html.Screen,10_12_0,2023-11-20T20:44:24.665Z,,,,1,0.0097091270150747,-0.0417921315885292,,0.05,false,lh,7023.254000023822,response,-0.9873794329144926,0.9645370841815064,-0.989392534590172,0.7991077882008257,1.0699549792930216,-1.1551870464518263,low,high,,ISIC_3967213.JPG,9,ISIC_0013498.JPG,33,28,false,0.28000000000000014,hl,keypress(j),0,false,625901.1999999285,625901.1000000238,618861.378,618988.2999999523,618877.846,625794.567,5,600,13,
break,html.Screen,10_12_1,2023-11-20T20:44:24.665Z,,,,,,,,,,,NaN,,,,,,,,low,high,,,,,,,false,,,,,false,625901.3999999762,625901.3999999762,,625901.2999999523,,625794.567,5,600,,
break_continue,html.Screen,10_12_2,2023-11-20T20:44:24.665Z,,,,,,,,,,,NaN,,,,,,,,low,high,,,,,,,false,,,,,false,625901.6999999285,625901.5,,625901.5,,625794.567,5,600,,
sequence,flow.Sequence,10_12,2023-11-20T20:44:24.665Z,,,,,,,,,,,7023.65399999998,completion,,,,,,,low,high,,,,,,,false,,,,,false,625901.6999999285,625901.5,618861.378,618988.1999999285,618877.846,625794.567,5,600,,
trial,html.Screen,10_13_0,2023-11-20T20:44:29.385Z,,,,1,0.0245376145053177,-0.0436993426328401,,0.05,true,lh,4826.232999952277,response,-0.9388660854518424,0.9645370841815064,-0.989392534590172,0.79533948698576,1.0699549792930216,-1.1551870464518263,low,high,,ISIC_0056444.JPG,8,ISIC_9291926.JPG,33,28,false,0.28000000000000014,lh,keypress(e),0,false,630620.8999999762,630620.7999999523,625777.672,625901.7999999523,625794.567,630511.276,5,600,14,
break,html.Screen,10_13_1,2023-11-20T20:44:29.385Z,,,,,,,,,,,NaN,,,,,,,,low,high,,,,,,,false,,,,,false,630621.1999999285,630621.1999999285,,630621,,630511.276,5,600,,
break_continue,html.Screen,10_13_2,2023-11-20T20:44:29.385Z,,,,,,,,,,,NaN,,,,,,,,low,high,,,,,,,false,,,,,false,630621.3999999762,630621.3999999762,,630621.1999999285,,630511.276,5,600,,
sequence,flow.Sequence,10_13,2023-11-20T20:44:29.385Z,,,,,,,,,,,4826.832999976119,completion,,,,,,,low,high,,,,,,,false,,,,,false,630621.5,630621.3999999762,625777.672,625901.7999999523,625794.567,630511.276,5,600,,
trial,html.Screen,10_14_0,2023-11-20T20:44:35.096Z,,,,1,-0.0050679133050021,0.0009714874637896,,0.05,true,ll,5821.3240000238875,response,-0.9063993235413598,0.9645370841815064,-0.989392534590172,-1.2433032962617423,1.0699549792930216,-1.1551870464518263,low,low,,ISIC_9848743.JPG,8,ISIC_0010050.JPG,33,27,false,0.1,ll,keypress(f),0,false,636332.6000000238,636332.6000000238,630494.627,630621.5,630511.276,636228.049,5,600,15,
break,html.Screen,10_14_1,2023-11-20T20:44:35.097Z,,,,,,,,,,,NaN,,,,,,,,low,low,,,,,,,false,,,,,false,636333.1000000238,636333,,636332.6999999285,,636228.049,5,600,,
break_continue,html.Screen,10_14_2,2023-11-20T20:44:35.097Z,,,,,,,,,,,NaN,,,,,,,,low,low,,,,,,,false,,,,,false,636333.1999999285,636333.1999999285,,636333.1000000238,,636228.049,5,600,,
sequence,flow.Sequence,10_14,2023-11-20T20:44:35.097Z,,,,,,,,,,,5821.92399992852,completion,,,,,,,low,low,,,,,,,false,,,,,false,636333.2999999523,636333.1999999285,630494.627,630621.5,630511.276,636228.049,5,600,,
trial,html.Screen,10_15_0,2023-11-20T20:44:36.920Z,,,,1,0.0113873532168551,0.0054999201556291,,0.05,true,hh,1928.451000000001,response,0.8854665385930431,0.9645370841815064,-0.989392534590172,1.0235331176078744,1.0699549792930216,-1.1551870464518263,high,high,,ISIC_8812621.JPG,9,ISIC_0026889.JPG,33,34,false,0.1,hh,keypress(i),0,false,638156.6999999285,638156.5,636211.646,636333.3999999762,636228.049,638044.579,5,600,16,
break,html.Screen,10_15_1,2023-11-20T20:44:36.921Z,,,,,,,,,,,NaN,,,,,,,,high,high,,,,,,,false,,,,,false,638157.1999999285,638157.1000000238,,638156.7999999523,,638044.579,5,600,,
break_continue,html.Screen,10_15_2,2023-11-20T20:44:36.921Z,,,,,,,,,,,NaN,,,,,,,,high,high,,,,,,,false,,,,,false,638157.3999999762,638157.2999999523,,638157.1999999285,,638044.579,5,600,,
sequence,flow.Sequence,10_15,2023-11-20T20:44:36.921Z,,,,,,,,,,,1929.2509999523172,completion,,,,,,,high,high,,,,,,,false,,,,,false,638157.3999999762,638157.2999999523,636211.646,636333.2999999523,636228.049,638044.579,5,600,,
trial,html.Screen,10_16_0,2023-11-20T20:44:39.384Z,,,,1,-0.0217698886732706,0.0410870915161425,,0.05,false,lh,2576.021000023815,response,-0.809764442462202,0.9645370841815064,-0.989392534590172,1.005337148078696,1.0699549792930216,-1.1551870464518263,low,high,,ISIC_0072173.JPG,9,ISIC_2379379.JPG,33,28,false,0.28000000000000014,hh,keypress(i),0,false,640620.6999999285,640620.6000000238,638028.296,638157.5,638044.579,640528.251,5,600,17,
break,html.Screen,10_16_1,2023-11-20T20:44:39.385Z,,,,,,,,,,,NaN,,,,,,,,low,high,,,,,,,false,,,,,false,640621,640620.8999999762,,640620.7999999523,,640528.251,5,600,,
break_continue,html.Screen,10_16_2,2023-11-20T20:44:39.385Z,,,,,,,,,,,NaN,,,,,,,,low,high,,,,,,,false,,,,,false,640621.1000000238,640621.1000000238,,640621,,640528.251,5,600,,
sequence,flow.Sequence,10_16,2023-11-20T20:44:39.385Z,,,,,,,,,,,2576.521000023815,completion,,,,,,,low,high,,,,,,,false,,,,,false,640621.1000000238,640621.1000000238,638028.296,638157.5,638044.579,640528.251,5,600,,
trial,html.Screen,10_17_0,2023-11-20T20:44:43.001Z,,,,1,-0.0085520978188085,0.0464691161264081,,0.05,false,lh,3708.7489999999525,response,-1.0213365328004047,0.9645370841815064,-0.989392534590172,1.088524359911891,1.0699549792930216,-1.1551870464518263,low,high,,ISIC_0758797.JPG,9,ISIC_5434229.JPG,33,28,false,0.28000000000000014,ll,keypress(f),0,false,644237.1000000238,644237,640511.203,640621.1000000238,640528.251,644128.017,5,600,18,
break,html.Screen,10_17_1,2023-11-20T20:44:43.001Z,,,,,,,,,,,NaN,,,,,,,,low,high,,,,,,,false,,,,,false,644237.3999999762,644237.1999999285,,644237.1000000238,,644128.017,5,600,,
break_continue,html.Screen,10_17_2,2023-11-20T20:44:43.001Z,,,,,,,,,,,NaN,,,,,,,,low,high,,,,,,,false,,,,,false,644237.6000000238,644237.5,,644237.3999999762,,644128.017,5,600,,
sequence,flow.Sequence,10_17,2023-11-20T20:44:43.001Z,,,,,,,,,,,3709.2489999999525,completion,,,,,,,low,high,,,,,,,false,,,,,false,644237.6000000238,644237.5,640511.203,640621.1000000238,640528.251,644128.017,5,600,,
trial,html.Screen,10_18_0,2023-11-20T20:44:51.753Z,,,,1,-0.0069555338059566,0.0310100918136373,,0.05,false,ll,8860.983000000007,response,-1.0762260610050776,0.9645370841815064,-0.989392534590172,-1.082709423673037,1.0699549792930216,-1.1551870464518263,low,low,,ISIC_0011177.JPG,9,ISIC_0058666.JPG,33,27,false,0.1,lh,keypress(e),0,false,652989.1000000238,652989,644111.111,644237.6999999285,644128.017,652877.835,5,600,19,
break,html.Screen,10_18_1,2023-11-20T20:44:51.753Z,,,,,,,,,,,NaN,,,,,,,,low,low,,,,,,,false,,,,,false,652989.3999999762,652989.2999999523,,652989.2999999523,,652877.835,5,600,,
break_continue,html.Screen,10_18_2,2023-11-20T20:44:51.753Z,,,,,,,,,,,NaN,,,,,,,,low,low,,,,,,,false,,,,,false,652989.6999999285,652989.6000000238,,652989.5,,652877.835,5,600,,
sequence,flow.Sequence,10_18,2023-11-20T20:44:51.753Z,,,,,,,,,,,8861.58300002385,completion,,,,,,,low,low,,,,,,,false,,,,,false,652989.6999999285,652989.6000000238,644111.111,644237.6999999285,644128.017,652877.835,5,600,,
trial,html.Screen,10_19_0,2023-11-20T20:44:54.697Z,,,,1,-0.0069555338059566,0.0310100918136373,,0.05,false,hl,3054.765000023879,response,0.9454713230140772,0.9645370841815064,-0.989392534590172,-0.9245167441969216,1.0699549792930216,-1.1551870464518263,high,low,,ISIC_0011177.JPG,8,ISIC_9101055.JPG,33,25,false,0.2500000000000001,hh,keypress(i),0,false,655932.6999999285,655932.6000000238,652861.268,652989.7999999523,652877.835,655828.307,5,600,20,
break,html.Screen,10_19_1,2023-11-20T20:44:54.697Z,,,,,,,,,,,NaN,,,,,,,,high,low,,,,,,,false,,,,,false,655933,655932.8999999762,,655932.7999999523,,655828.307,5,600,,
break_continue,html.Screen,10_19_2,2023-11-20T20:44:54.697Z,,,,,,,,,,,NaN,,,,,,,,high,low,,,,,,,false,,,,,false,655933.1999999285,655933.1000000238,,655933.1000000238,,655828.307,5,600,,
sequence,flow.Sequence,10_19,2023-11-20T20:44:54.697Z,,,,,,,,,,,3055.265000023879,completion,,,,,,,high,low,,,,,,,false,,,,,false,655933.1999999285,655933.1000000238,652861.268,652989.6999999285,652877.835,655828.307,5,600,,
trial,html.Screen,10_20_0,2023-11-20T20:44:57.369Z,,,,1,0.0113873532168551,0.0054999201556291,,0.05,true,ll,2776.5929999761283,response,-1.0130095662293503,0.9645370841815064,-0.989392534590172,-1.098939882801048,1.0699549792930216,-1.1551870464518263,low,low,,ISIC_8812621.JPG,9,ISIC_0059897.JPG,33,27,false,0.1,ll,keypress(f),0,false,658605,658604.8999999762,655811.119,655933.2999999523,655828.307,658494.604,5,600,21,
break,html.Screen,10_20_1,2023-11-20T20:44:57.369Z,,,,,,,,,,,NaN,,,,,,,,low,low,,,,,,,false,,,,,false,658605.2999999523,658605.2999999523,,658605.1000000238,,658494.604,5,600,,
break_continue,html.Screen,10_20_2,2023-11-20T20:44:57.369Z,,,,,,,,,,,NaN,,,,,,,,low,low,,,,,,,false,,,,,false,658605.5,658605.3999999762,,658605.3999999762,,658494.604,5,600,,
sequence,flow.Sequence,10_20,2023-11-20T20:44:57.369Z,,,,,,,,,,,2777.0929999761283,completion,,,,,,,low,low,,,,,,,false,,,,,false,658605.5,658605.3999999762,655811.119,655933.1999999285,655828.307,658494.604,5,600,,
trial,html.Screen,10_21_0,2023-11-20T20:44:59.256Z,,,,1,-0.0050679133050021,0.0009714874637896,,0.05,true,hh,1997.695999952266,response,0.8854665385930431,0.9645370841815064,-0.989392534590172,1.0235331176078744,1.0699549792930216,-1.1551870464518263,high,high,,ISIC_9848743.JPG,8,ISIC_0026889.JPG,33,34,false,0.1,hh,keypress(i),0,false,660492.3999999762,660492.2999999523,658477.908,658605.6000000238,658494.604,660377.809,5,600,22,
break,html.Screen,10_21_1,2023-11-20T20:44:59.257Z,,,,,,,,,,,NaN,,,,,,,,high,high,,,,,,,false,,,,,false,660492.6999999285,660492.6000000238,,660492.5,,660377.809,5,600,,
break_continue,html.Screen,10_21_2,2023-11-20T20:44:59.257Z,,,,,,,,,,,NaN,,,,,,,,high,high,,,,,,,false,,,,,false,660492.7999999523,660492.7999999523,,660492.6999999285,,660377.809,5,600,,
sequence,flow.Sequence,10_21,2023-11-20T20:44:59.257Z,,,,,,,,,,,1998.195999952266,completion,,,,,,,high,high,,,,,,,false,,,,,false,660493,660492.7999999523,658477.908,658605.5,658494.604,660377.809,5,600,,
trial,html.Screen,10_22_0,2023-11-20T20:45:02.537Z,,,,1,-0.0057914759495055,-0.0074667911845194,,0.05,true,ll,3394.990999952308,response,-0.9612373733144064,0.9645370841815064,-0.989392534590172,-1.2155105349277993,1.0699549792930216,-1.1551870464518263,low,low,,ISIC_0058723.JPG,10,ISIC_0014883.JPG,33,27,false,0.1,ll,keypress(f),0,false,663772.8999999762,663772.7999999523,660361.364,660493,660377.809,663661.161,5,600,23,
break,html.Screen,10_22_1,2023-11-20T20:45:02.537Z,,,,,,,,,,,NaN,,,,,,,,low,low,,,,,,,false,,,,,false,663773.1999999285,663773.1000000238,,663772.8999999762,,663661.161,5,600,,
break_continue,html.Screen,10_22_2,2023-11-20T20:45:02.537Z,,,,,,,,,,,NaN,,,,,,,,low,low,,,,,,,false,,,,,false,663773.2999999523,663773.1999999285,,663773.1999999285,,663661.161,5,600,,
sequence,flow.Sequence,10_22,2023-11-20T20:45:02.537Z,,,,,,,,,,,3395.390999928466,completion,,,,,,,low,low,,,,,,,false,,,,,false,663773.3999999762,663773.1999999285,660361.364,660493,660377.809,663661.161,5,600,,
trial,html.Screen,10_23_0,2023-11-20T20:45:09.961Z,,,,1,-0.0450282431170921,0,,0.05,false,ll,7536.138999952353,response,-1.042261683252976,0.9645370841815064,-0.989392534590172,-1.2304407834713986,1.0699549792930216,-1.1551870464518263,low,low,,ISIC_1805163.JPG,9,ISIC_0011870.JPG,33,27,false,0.1,lh,keypress(e),0,false,671197.2999999523,671197.2999999523,663644.505,663773.3999999762,663661.161,671094.712,5,600,24,
break,html.Screen,10_23_1,2023-11-20T20:45:09.962Z,,,,,,,,,,,NaN,,,,,,,,low,low,,,,,,,false,,,,,false,671197.6000000238,671197.6000000238,,671197.3999999762,,671094.712,5,600,,
break_continue,html.Screen,10_23_2,2023-11-20T20:45:09.962Z,,,,,,,,,,,NaN,,,,,,,,low,low,,,,,,,false,,,,,false,671197.7999999523,671197.6999999285,,671197.6000000238,,671094.712,5,600,,
sequence,flow.Sequence,10_23,2023-11-20T20:45:09.962Z,,,,,,,,,,,7536.538999928511,completion,,,,,,,low,low,,,,,,,false,,,,,false,671197.7999999523,671197.6999999285,663644.505,663773.3999999762,663661.161,671094.712,5,600,,
trial,html.Screen,10_24_0,2023-11-20T20:45:13.801Z,,,,1,-0.0456515796420274,0.0273567130070961,,0.05,false,lh,3942.4879999284167,response,-0.8092423703106274,0.9645370841815064,-0.989392534590172,1.1870093485714288,1.0699549792930216,-1.1551870464518263,low,high,,ISIC_0068610.JPG,9,ISIC_8592235.JPG,33,28,false,0.28000000000000014,hl,keypress(j),0,false,675037.2999999523,675037.1999999285,671077.981,671197.8999999762,671094.712,674927.855,5,600,25,
break,html.Screen,10_24_1,2023-11-20T20:45:13.802Z,,,,,,,,,,,NaN,,,,,,,,low,high,,,,,,,false,,,,,false,675037.6000000238,675037.5,,675037.3999999762,,674927.855,5,600,,
break_continue,html.Screen,10_24_2,2023-11-20T20:45:13.802Z,,,,,,,,,,,NaN,,,,,,,,low,high,,,,,,,false,,,,,false,675037.6999999285,675037.6999999285,,675037.6000000238,,674927.855,5,600,,
sequence,flow.Sequence,10_24,2023-11-20T20:45:13.802Z,,,,,,,,,,,3942.9879999284167,completion,,,,,,,low,high,,,,,,,false,,,,,false,675037.7999999523,675037.6999999285,671077.981,671197.8999999762,671094.712,674927.855,5,600,,
trial,html.Screen,10_25_0,2023-11-20T20:45:17.960Z,,,,1,0.0102460616775615,-0.0309670599545429,,0.05,true,hl,4267.544999976177,response,1.020990671779317,0.9645370841815064,-0.989392534590172,-1.0116513850520903,1.0699549792930216,-1.1551870464518263,high,low,,ISIC_0072041.JPG,9,ISIC_0011995.JPG,33,25,false,0.2500000000000001,hl,keypress(j),0,false,679195.6000000238,679195.3999999762,674911.57,675037.8999999762,674927.855,679094.644,5,600,26,
break,html.Screen,10_25_1,2023-11-20T20:45:17.960Z,,,,,,,,,,,NaN,,,,,,,,high,low,,,,,,,false,,,,,false,679196,679195.8999999762,,679195.7999999523,,679094.644,5,600,,
break_continue,html.Screen,10_25_2,2023-11-20T20:45:17.960Z,,,,,,,,,,,NaN,,,,,,,,high,low,,,,,,,false,,,,,false,679196.1999999285,679196.1999999285,,679196,,679094.644,5,600,,
sequence,flow.Sequence,10_25,2023-11-20T20:45:17.960Z,,,,,,,,,,,4268.344999928493,completion,,,,,,,high,low,,,,,,,false,,,,,false,679196.2999999523,679196.1999999285,674911.57,675037.8999999762,674927.855,679094.644,5,600,,
trial,html.Screen,10_26_0,2023-11-20T20:45:21.753Z,,,,1,0.013431314305098,-0.0140597582944232,,0.05,false,lh,3894.155999952345,response,-0.8035152873995188,0.9645370841815064,-0.989392534590172,0.82868450251632,1.0699549792930216,-1.1551870464518263,low,high,,ISIC_0069617.JPG,9,ISIC_0010671.JPG,33,28,false,0.28000000000000014,ll,keypress(f),0,false,682989,682988.7999999523,679078.159,679196.2999999523,679094.644,682877.814,5,600,27,
break,html.Screen,10_26_1,2023-11-20T20:45:21.753Z,,,,,,,,,,,NaN,,,,,,,,low,high,,,,,,,false,,,,,false,682989.2999999523,682989.1999999285,,682989.1000000238,,682877.814,5,600,,
break_continue,html.Screen,10_26_2,2023-11-20T20:45:21.753Z,,,,,,,,,,,NaN,,,,,,,,low,high,,,,,,,false,,,,,false,682989.3999999762,682989.3999999762,,682989.2999999523,,682877.814,5,600,,
sequence,flow.Sequence,10_26,2023-11-20T20:45:21.753Z,,,,,,,,,,,3894.755999976187,completion,,,,,,,low,high,,,,,,,false,,,,,false,682989.5,682989.3999999762,679078.159,679196.2999999523,679094.644,682877.814,5,600,,
trial,html.Screen,10_27_0,2023-11-20T20:45:25.609Z,,,,1,-0.0456515796420274,0.0273567130070961,,0.05,false,lh,3967.3859999284614,response,-0.948927472020595,0.9645370841815064,-0.989392534590172,1.0660437155921598,1.0699549792930216,-1.1551870464518263,low,high,,ISIC_0068610.JPG,8,ISIC_5808758.JPG,33,28,false,0.28000000000000014,ll,keypress(f),0,false,686845.2999999523,686845.1999999285,682861.246,682989.5,682877.814,686744.503,5,600,28,
break,html.Screen,10_27_1,2023-11-20T20:45:25.610Z,,,,,,,,,,,NaN,,,,,,,,low,high,,,,,,,false,,,,,false,686845.6000000238,686845.5,,686845.3999999762,,686744.503,5,600,,
break_continue,html.Screen,10_27_2,2023-11-20T20:45:25.610Z,,,,,,,,,,,NaN,,,,,,,,low,high,,,,,,,false,,,,,false,686845.6999999285,686845.6999999285,,686845.6000000238,,686744.503,5,600,,
sequence,flow.Sequence,10_27,2023-11-20T20:45:25.610Z,,,,,,,,,,,3967.8859999284614,completion,,,,,,,low,high,,,,,,,false,,,,,false,686845.8999999762,686845.6999999285,682861.246,682989.5,682877.814,686744.503,5,600,,
trial,html.Screen,10_28_0,2023-11-20T20:45:39.753Z,,,,1,-0.0450282431170921,0,,0.05,false,hh,14244.597000023816,response,1.0565911491759823,0.9645370841815064,-0.989392534590172,1.0221582682700174,1.0699549792930216,-1.1551870464518263,high,high,,ISIC_1805163.JPG,9,ISIC_6604862.JPG,33,34,false,0.1,hl,keypress(j),0,false,700989.2999999523,700989.1000000238,686728.232,686845.8999999762,686744.503,700877.803,5,600,29,
break,html.Screen,10_28_1,2023-11-20T20:45:39.753Z,,,,,,,,,,,NaN,,,,,,,,high,high,,,,,,,false,,,,,false,700989.5,700989.5,,700989.3999999762,,700877.803,5,600,,
break_continue,html.Screen,10_28_2,2023-11-20T20:45:39.754Z,,,,,,,,,,,NaN,,,,,,,,high,high,,,,,,,false,,,,,false,700989.6999999285,700989.6000000238,,700989.6000000238,,700877.803,5,600,,
sequence,flow.Sequence,10_28,2023-11-20T20:45:39.754Z,,,,,,,,,,,14245.097000023816,completion,,,,,,,high,high,,,,,,,false,,,,,false,700989.7999999523,700989.6000000238,686728.232,686845.8999999762,686744.503,700877.803,5,600,,
trial,html.Screen,10_29_0,2023-11-20T20:45:51.161Z,,,,1,0.0348234368746005,-0.0236866303880924,,0.05,false,lh,11519.49699995236,response,-0.7468996036626098,0.9645370841815064,-0.989392534590172,0.8073835700282378,1.0699549792930216,-1.1551870464518263,low,high,,ISIC_0011099.JPG,8,ISIC_5335139.JPG,33,28,false,0.28000000000000014,hl,keypress(j),0,false,712397.3999999762,712397.2999999523,700861.452,700989.7999999523,700877.803,712294.55,5,600,30,
break,html.Screen,10_29_1,2023-11-20T20:45:51.162Z,,,,,,,,,,,NaN,,,,,,,,low,high,,,,,,,false,,,,,false,712397.6999999285,712397.6000000238,,712397.5,,712294.55,5,600,,
break_continue,html.Screen,10_29_2,2023-11-20T20:45:51.162Z,,,,,,,,,,,NaN,,,,,,,,low,high,,,,,,,false,,,,,false,712397.8999999762,712397.7999999523,,712397.6999999285,,712294.55,5,600,,
sequence,flow.Sequence,10_29,2023-11-20T20:45:51.162Z,,,,,,,,,,,11519.99699995236,completion,,,,,,,low,high,,,,,,,false,,,,,false,712398,712397.7999999523,700861.452,700989.7999999523,700877.803,712294.55,5,600,,
trial,html.Screen,10_30_0,2023-11-20T20:45:54.057Z,,,,1,-0.0085520978188085,0.0464691161264081,,0.05,false,hl,2998.0500000237953,response,0.9433720631499012,0.9645370841815064,-0.989392534590172,-1.0582071940347648,1.0699549792930216,-1.1551870464518263,high,low,,ISIC_0758797.JPG,9,ISIC_4890201.JPG,33,25,false,0.2500000000000001,hh,keypress(i),0,false,715292.6999999285,715292.6000000238,712277.893,712398,712294.55,715194.885,5,600,31,
break,html.Screen,10_30_1,2023-11-20T20:45:54.057Z,,,,,,,,,,,NaN,,,,,,,,high,low,,,,,,,false,,,,,false,715293,715293,,715292.7999999523,,715194.885,5,600,,
break_continue,html.Screen,10_30_2,2023-11-20T20:45:54.057Z,,,,,,,,,,,NaN,,,,,,,,high,low,,,,,,,false,,,,,false,715293.1999999285,715293.1000000238,,715293.1000000238,,715194.885,5,600,,
sequence,flow.Sequence,10_30,2023-11-20T20:45:54.057Z,,,,,,,,,,,2998.5500000237953,completion,,,,,,,high,low,,,,,,,false,,,,,false,715293.1999999285,715293.1000000238,712277.893,712398,712294.55,715194.885,5,600,,
trial,html.Screen,10_31_0,2023-11-20T20:45:55.977Z,,,,1,0.0097091270150747,-0.0417921315885292,,0.05,true,hh,2017.814999928465,response,0.9358725198038064,0.9645370841815064,-0.989392534590172,0.9938776615596308,1.0699549792930216,-1.1551870464518263,high,high,,ISIC_3967213.JPG,10,ISIC_3365692.JPG,33,34,false,0.1,hh,keypress(i),0,false,717212.6999999285,717212.6999999285,715161.54,715293.2999999523,715194.885,717111.603,5,600,32,
break,html.Screen,10_31_1,2023-11-20T20:45:55.977Z,,,,,,,,,,,NaN,,,,,,,,high,high,,,,,,,false,,,,,false,717213.1000000238,717213,,717212.7999999523,,717111.603,5,600,,
break_continue,html.Screen,10_31_2,2023-11-20T20:45:55.977Z,,,,,,,,,,,NaN,,,,,,,,high,high,,,,,,,false,,,,,false,717213.1999999285,717213.1999999285,,717213.1000000238,,717111.603,5,600,,
sequence,flow.Sequence,10_31,2023-11-20T20:45:55.977Z,,,,,,,,,,,2018.314999928465,completion,,,,,,,high,high,,,,,,,false,,,,,false,717213.2999999523,717213.1999999285,715161.54,715293.2999999523,715194.885,717111.603,5,600,,
trial,html.Screen,10_32_0,2023-11-20T20:45:59.273Z,,,,1,-0.0027483411352856,-0.0100996915276271,,0.05,true,ll,3397.5969999284716,response,-0.9357713502691224,0.9645370841815064,-0.989392534590172,-1.0696934992096478,1.0699549792930216,-1.1551870464518263,low,low,,ISIC_7364041.JPG,9,ISIC_0009886.JPG,33,27,false,0.1,ll,keypress(f),0,false,720509.2999999523,720509.1999999285,717094.924,717213.2999999523,717111.603,720411.551,5,600,33,
break,html.Screen,10_32_1,2023-11-20T20:45:59.274Z,,,,,,,,,,,NaN,,,,,,,,low,low,,,,,,,false,,,,,false,720509.5,720509.3999999762,,720509.2999999523,,720411.551,5,600,,
break_continue,html.Screen,10_32_2,2023-11-20T20:45:59.274Z,,,,,,,,,,,NaN,,,,,,,,low,low,,,,,,,false,,,,,false,720509.6999999285,720509.6999999285,,720509.6000000238,,720411.551,5,600,,
sequence,flow.Sequence,10_32,2023-11-20T20:45:59.274Z,,,,,,,,,,,3398.0969999284716,completion,,,,,,,low,low,,,,,,,false,,,,,false,720509.7999999523,720509.6999999285,717094.924,717213.2999999523,717111.603,720411.551,5,600,,
trial,html.Screen,10_33_0,2023-11-20T20:46:03.145Z,,,,1,0.0409338693593207,-0.0072462710499874,,0.05,false,ll,3969.148999928497,response,-0.8942749799405368,0.9645370841815064,-0.989392534590172,-1.2228671360399193,1.0699549792930216,-1.1551870464518263,low,low,,ISIC_3608788.JPG,9,ISIC_0033194.JPG,33,27,false,0.1,hh,keypress(i),0,false,724380.7999999523,724380.6999999285,720377.764,720509.7999999523,720411.551,724278.089,5,600,34,
break,html.Screen,10_33_1,2023-11-20T20:46:03.145Z,,,,,,,,,,,NaN,,,,,,,,low,low,,,,,,,false,,,,,false,724381.1000000238,724381,,724380.8999999762,,724278.089,5,600,,
break_continue,html.Screen,10_33_2,2023-11-20T20:46:03.145Z,,,,,,,,,,,NaN,,,,,,,,low,low,,,,,,,false,,,,,false,724381.2999999523,724381.2999999523,,724381.1999999285,,724278.089,5,600,,
sequence,flow.Sequence,10_33,2023-11-20T20:46:03.146Z,,,,,,,,,,,3969.7489999523386,completion,,,,,,,low,low,,,,,,,false,,,,,false,724381.3999999762,724381.2999999523,720377.764,720509.7999999523,720411.551,724278.089,5,600,,
trial,html.Screen,10_34_0,2023-11-20T20:46:07.946Z,,,,1,0.0277178575053843,-0.0395587463147856,,0.05,false,hh,4903.21099995228,response,0.9029354290897352,0.9645370841815064,-0.989392534590172,1.1346860677105404,1.0699549792930216,-1.1551870464518263,high,high,,ISIC_0010807.JPG,9,ISIC_4153687.JPG,33,34,false,0.1,hl,keypress(j),0,false,729181.3999999762,729181.2999999523,724261.509,724381.3999999762,724278.089,729077.913,5,600,35,
break,html.Screen,10_34_1,2023-11-20T20:46:07.946Z,,,,,,,,,,,NaN,,,,,,,,high,high,,,,,,,false,,,,,false,729181.6999999285,729181.6999999285,,729181.5,,729077.913,5,600,,
break_continue,html.Screen,10_34_2,2023-11-20T20:46:07.946Z,,,,,,,,,,,NaN,,,,,,,,high,high,,,,,,,false,,,,,false,729181.7999999523,729181.7999999523,,729181.7999999523,,729077.913,5,600,,
sequence,flow.Sequence,10_34,2023-11-20T20:46:07.946Z,,,,,,,,,,,4903.71099995228,completion,,,,,,,high,high,,,,,,,false,,,,,false,729181.8999999762,729181.7999999523,724261.509,724381.3999999762,724278.089,729077.913,5,600,,
trial,html.Screen,10_35_0,2023-11-20T20:46:10.233Z,,,,1,-0.0324770283903853,-0.0249968632204382,,0.05,true,hh,2391.1870000238996,response,0.9102336581208296,0.9645370841815064,-0.989392534590172,1.0305113346799688,1.0699549792930216,-1.1551870464518263,high,high,,ISIC_7266462.JPG,9,ISIC_0068530.JPG,33,34,false,0.1,hh,keypress(i),0,false,731469.1999999285,731469.1000000238,729061.242,729182,729077.913,731361.401,5,600,36,
break,html.Screen,10_35_1,2023-11-20T20:46:10.234Z,,,,,,,,,,,NaN,,,,,,,,high,high,,,,,,,false,,,,,false,731469.5,731469.5,,731469.2999999523,,731361.401,5,600,,
break_continue,html.Screen,10_35_2,2023-11-20T20:46:10.234Z,,,,,,,,,,,NaN,,,,,,,,high,high,,,,,,,false,,,,,false,731469.6999999285,731469.6000000238,,731469.5,,731361.401,5,600,,
sequence,flow.Sequence,10_35,2023-11-20T20:46:10.234Z,,,,,,,,,,,2391.6870000238996,completion,,,,,,,high,high,,,,,,,false,,,,,false,731469.6999999285,731469.6000000238,729061.242,729182,729077.913,731361.401,5,600,,
trial,html.Screen,10_36_0,2023-11-20T20:46:12.921Z,,,,1,0.0362376068089956,0.047825070846155,,0.05,true,ll,2795.6990000238875,response,-0.9777849718157332,0.9645370841815064,-0.989392534590172,-1.117811430082889,1.0699549792930216,-1.1551870464518263,low,low,,ISIC_6985114.JPG,9,ISIC_3256887.JPG,33,27,false,0.1,ll,keypress(f),0,false,734157.1000000238,734157.1000000238,731344.534,731469.7999999523,731361.401,734044.484,5,600,37,
break,html.Screen,10_36_1,2023-11-20T20:46:12.922Z,,,,,,,,,,,NaN,,,,,,,,low,low,,,,,,,false,,,,,false,734157.5,734157.3999999762,,734157.1999999285,,734044.484,5,600,,
break_continue,html.Screen,10_36_2,2023-11-20T20:46:12.922Z,,,,,,,,,,,NaN,,,,,,,,low,low,,,,,,,false,,,,,false,734157.6000000238,734157.6000000238,,734157.5,,734044.484,5,600,,
sequence,flow.Sequence,10_36,2023-11-20T20:46:12.922Z,,,,,,,,,,,2796.1990000238875,completion,,,,,,,low,low,,,,,,,false,,,,,false,734157.6000000238,734157.6000000238,731344.534,731469.6999999285,731361.401,734044.484,5,600,,
trial,html.Screen,10_37_0,2023-11-20T20:46:20.553Z,,,,1,0.0409338693593207,-0.0072462710499874,,0.05,true,hl,7744.415999976103,response,0.8534691366511764,0.9645370841815064,-0.989392534590172,-1.03975580494588,1.0699549792930216,-1.1551870464518263,high,low,,ISIC_3608788.JPG,8,ISIC_0056788.JPG,33,25,false,0.2500000000000001,hl,keypress(j),0,false,741789,741788.8999999762,734028.058,734157.6000000238,734044.484,741677.822,5,600,38,
break,html.Screen,10_37_1,2023-11-20T20:46:20.553Z,,,,,,,,,,,NaN,,,,,,,,high,low,,,,,,,false,,,,,false,741789.2999999523,741789.1999999285,,741789.1000000238,,741677.822,5,600,,
break_continue,html.Screen,10_37_2,2023-11-20T20:46:20.554Z,,,,,,,,,,,NaN,,,,,,,,high,low,,,,,,,false,,,,,false,741789.5,741789.3999999762,,741789.2999999523,,741677.822,5,600,,
