sender,sender_type,sender_id,timestamp,meta,,age,blockNo,c1,c2,condition,control_tolerance,correct,correctResponse,duration,ended_on,f1,f1_high,f1_low,f2,f2_high,f2_low,feature_level1,feature_level2,gender,img_left,img_reveal,img_right,n_control_images,n_target_images,practice,range_tolerance,response,response_action,selection_duration,staircase,time_commit,time_end,time_render,time_run,time_show,time_switch,total_blocks,total_trials,trialNo,url
informed_consent,html.Screen,0,2023-11-30T15:36:38.536Z,"{""labjs_version"":""20.2.4"",""labjs_build"":{""flavor"":""development"",""commit"":""f5b4a49f956347addd546a832a3327688c2c0fef""},""location"":""https://labjs.felixhenninger.com/api/labjs_preview/index.html"",""userAgent"":""Mozilla/5.0 (Windows NT 10.0; Win64; x64) AppleWebKit/537.36 (KHTML, like Gecko) Chrome/119.0.0.0 Safari/537.36"",""platform"":""Win32"",""language"":""en-US"",""locale"":""en-US"",""timeZone"":""America/Chicago"",""timezoneOffset"":360,""screen_width"":1920,""screen_height"":1080,""scroll_width"":945,""scroll_height"":918,""window_innerWidth"":945,""window_innerHeight"":966,""devicePixelRatio"":1}",,,,,,,,,,12454.560999952317,response,,,,,,,,,,,,,,,,,consent,click button,,,13172.199999809265,13164.299999952316,693.045,873.6999998092651,709.739,12976.349,,,,{}
Demography form,html.Form,1,2023-11-30T15:36:44.450Z,,,18,,,,,,,,6109.450999952316,form submission,,,,,,,,,male,,,,,,,,,,,,19086,19085.799999952316,12959.732,13172.5,12976.349,18909.875,,,,
Welcome,html.Screen,2,2023-11-30T15:37:17.970Z,,,,,,,"[""asym"",""bor""]",,,,33694.72499990463,response,,,,,,,,,,,,,,,,,continue,click button,,,52605.199999809265,52604.59999990463,18893.05,19086.099999904633,18909.875,52426.509,,,,
demo_instructions,html.Screen,3,2023-11-30T15:37:45.570Z,,,,,,,,,,,27777.991,response,,,,,,,,,,,,,,,,,continue,click button,,,80205.09999990463,80204.5,52409.863,52605.299999952316,52426.509,80026.189,,,,
trial,html.Screen,4_0_0,2023-11-30T15:37:52.021Z,,,,0,-1.2071341803968807,-1.235960269089932,,,true,hh,6629.410999904634,response,1.2724584600905462,1.2,-1.2,1.1411016103695344,1.2,-1.2,high,high,,ISIC_0058174.JPG,,ISIC_0059625.JPG,,26,true,0.15000000000000002,hh,keypress(i),100,false,86655.79999995232,86655.59999990463,80009.768,80205.29999995232,80026.189,86492.854,1,16,1,
sequence,flow.Sequence,4_0,2023-11-30T15:37:52.028Z,,,,,,,,,,,6629.410999904634,completion,,,,,,,high,high,,,,,,,true,,,,,false,86662.5,86655.59999990463,80009.768,80205.29999995232,80026.189,86492.854,1,16,,
trial,html.Screen,4_1_0,2023-11-30T15:37:57.905Z,,,,0,-1.2915523362516486,-1.1264977790562936,,,true,hh,6047.045999856942,response,1.1210325063849345,1.2,-1.2,1.1498648320956202,1.2,-1.2,high,high,,ISIC_0502582.JPG,,ISIC_0032162.JPG,,26,true,0.15000000000000002,hh,keypress(i),100,false,92540.39999985695,92539.89999985695,86476.424,86662.69999980927,86492.854,92376.3,1,16,2,
sequence,flow.Sequence,4_1,2023-11-30T15:37:57.906Z,,,,,,,,,,,6047.045999856942,completion,,,,,,,high,high,,,,,,,true,,,,,false,92541.09999990463,92539.89999985695,86476.424,86662.69999980927,86492.854,92376.3,1,16,,
trial,html.Screen,4_2_0,2023-11-30T15:38:01.602Z,,,,0,-1.255256820488545,-1.1206426433062562,,,true,hh,3859.7999999046297,response,1.057008495826831,1.2,-1.2,1.1278122585028287,1.2,-1.2,high,high,,ISIC_0024652.JPG,,ISIC_2819798.JPG,,26,true,0.15000000000000002,hh,keypress(i),100,false,96236.69999980927,96236.09999990463,92359.525,92541.5,92376.3,96059.471,1,16,3,
sequence,flow.Sequence,4_2,2023-11-30T15:38:01.602Z,,,,,,,,,,,3859.7999999046297,completion,,,,,,,high,high,,,,,,,true,,,,,false,96237.39999985695,96236.09999990463,92359.525,92541.29999995232,92376.3,96059.471,1,16,,
trial,html.Screen,4_3_0,2023-11-30T15:38:05.345Z,,,,0,-1.2952503640839694,-1.107234527385344,,,true,hh,3920.428999856944,response,1.0858641668099058,1.2,-1.2,1.1638942560200525,1.2,-1.2,high,high,,ISIC_0034134.JPG,,ISIC_5439597.JPG,,26,true,0.15000000000000002,hh,keypress(i),100,false,99980,99979.89999985695,96042.851,96237.69999980927,96059.471,99809.486,1,16,4,
sequence,flow.Sequence,4_3,2023-11-30T15:38:05.345Z,,,,,,,,,,,3920.428999856944,completion,,,,,,,high,high,,,,,,,true,,,,,false,99980.19999980927,99979.89999985695,96042.851,96237.59999990463,96059.471,99809.486,1,16,,
trial,html.Screen,4_4_0,2023-11-30T15:38:11.366Z,,,,0,1.2024083555600384,1.149077673153018,,,true,ll,6191.513999999996,response,-1.185875658992962,1.2,-1.2,-1.2635548590325487,1.2,-1.2,low,low,,ISIC_3566243.JPG,,ISIC_0011703.JPG,,30,true,0.1,ll,keypress(f),100,false,106001.39999985695,106001,99792.823,99980.39999985695,99809.486,105826.134,1,16,5,
sequence,flow.Sequence,4_4,2023-11-30T15:38:11.367Z,,,,,,,,,,,6191.513999999996,completion,,,,,,,low,low,,,,,,,true,,,,,false,106002.09999990463,106001,99792.823,99980.29999995232,99809.486,105826.134,1,16,,
trial,html.Screen,4_5_0,2023-11-30T15:38:14.567Z,,,,0,1.1388430156686884,1.2700552354887775,,,true,ll,3375.7659998569434,response,-1.2015106101917423,1.2,-1.2,-1.071085024260525,1.2,-1.2,low,low,,ISIC_9939653.JPG,,ISIC_0072496.JPG,,53,true,0.15000000000000002,ll,keypress(f),100,false,109202.29999995232,109201.89999985695,105809.538,106002.29999995232,105826.134,109026.145,1,16,6,
sequence,flow.Sequence,4_5,2023-11-30T15:38:14.568Z,,,,,,,,,,,3375.7659998569434,completion,,,,,,,low,low,,,,,,,true,,,,,false,109202.79999995232,109201.89999985695,105809.538,106002.29999995232,105826.134,109026.145,1,16,,
trial,html.Screen,4_6_0,2023-11-30T15:38:16.966Z,,,,0,1.1598623261077452,1.203269031614007,,,true,ll,2574.854999999996,response,-1.2254187569955004,1.2,-1.2,-1.174555235109734,1.2,-1.2,low,low,,ISIC_0002639.JPG,,ISIC_0027187.JPG,,53,true,0.15000000000000002,ll,keypress(f),100,false,111601.19999980927,111601,109009.527,109203,109026.145,111426.331,1,16,7,
sequence,flow.Sequence,4_6,2023-11-30T15:38:16.966Z,,,,,,,,,,,2574.854999999996,completion,,,,,,,low,low,,,,,,,true,,,,,false,111601.29999995232,111601,109009.527,109202.89999985695,109026.145,111426.331,1,16,,
trial,html.Screen,4_7_0,2023-11-30T15:38:19.068Z,,,,0,1.0789197754694622,1.1654690806750023,,,true,ll,2276.3689998092595,response,-1.0525532302758762,1.2,-1.2,-1.1628982512509805,1.2,-1.2,low,low,,ISIC_1576437.JPG,,ISIC_0033428.JPG,,53,true,0.15000000000000002,ll,keypress(f),100,false,113703,113702.69999980927,111409.449,111601.39999985695,111426.331,113542.751,1,16,8,
sequence,flow.Sequence,4_7,2023-11-30T15:38:19.069Z,,,,,,,,,,,2276.3689998092595,completion,,,,,,,low,low,,,,,,,true,,,,,false,113703.5,113702.69999980927,111409.449,111601.39999985695,111426.331,113542.751,1,16,,
trial,html.Screen,4_8_0,2023-11-30T15:38:22.534Z,,,,0,1.4747161152848791,-0.847048591307387,,,false,lh,3625.3489999046287,response,-0.8816288864119318,1.2,-1.2,0.801867301188093,1.2,-1.2,low,high,,ISIC_0016092.JPG,,ISIC_9196783.JPG,,27,true,0.42000000000000026,ll,keypress(f),100,false,117168.29999995232,117168.09999990463,113509.517,113703.69999980927,113542.751,116992.737,1,16,9,
sequence,flow.Sequence,4_8,2023-11-30T15:38:22.534Z,,,,,,,,,,,3625.3489999046287,completion,,,,,,,low,high,,,,,,,true,,,,,false,117168.89999985695,117168.09999990463,113509.517,113703.69999980927,113542.751,116992.737,1,16,,
trial,html.Screen,4_9_0,2023-11-30T15:38:35.923Z,,,,0,1.2075172235545184,-0.9116724966267612,,,true,lh,13564.862999904639,response,-1.0213365328004047,1.2,-1.2,1.088524359911891,1.2,-1.2,low,high,,ISIC_0024235.JPG,,ISIC_5434229.JPG,,27,true,0.42000000000000026,lh,keypress(e),100,false,130558,130557.59999990463,116976.155,117169,116992.737,130392.75,1,16,10,
sequence,flow.Sequence,4_9,2023-11-30T15:38:35.924Z,,,,,,,,,,,13564.862999904639,completion,,,,,,,low,high,,,,,,,true,,,,,false,130558.5,130557.59999990463,116976.155,117169,116992.737,130392.75,1,16,,
trial,html.Screen,4_10_0,2023-11-30T15:38:38.758Z,,,,0,1.2364994561934892,-0.9174173651516624,,,true,lh,2999.449999809265,response,-1.0115965332688306,1.2,-1.2,0.8282633603842442,1.2,-1.2,low,high,,ISIC_3481133.JPG,,ISIC_1069587.JPG,,27,true,0.42000000000000026,lh,keypress(e),100,false,133392.5,133392.19999980927,130376.07,130558.79999995232,130392.75,133226.007,1,16,11,
sequence,flow.Sequence,4_10,2023-11-30T15:38:38.758Z,,,,,,,,,,,2999.449999809265,completion,,,,,,,low,high,,,,,,,true,,,,,false,133392.89999985695,133392.19999980927,130376.07,130558.79999995232,130392.75,133226.007,1,16,,
trial,html.Screen,4_11_0,2023-11-30T15:38:40.818Z,,,,0,1.0026266089287914,-1.0913275913920335,,,true,lh,2226.692999809253,response,-0.9388660854518424,1.2,-1.2,0.79533948698576,1.2,-1.2,low,high,,ISIC_0033520.JPG,,ISIC_9291926.JPG,,27,true,0.42000000000000026,lh,keypress(e),100,false,135452.79999995232,135452.69999980927,133209.475,133393.09999990463,133226.007,135276.047,1,16,12,
sequence,flow.Sequence,4_11,2023-11-30T15:38:40.818Z,,,,,,,,,,,2226.692999809253,completion,,,,,,,low,high,,,,,,,true,,,,,false,135453.09999990463,135452.69999980927,133209.475,133393,133226.007,135276.047,1,16,,
trial,html.Screen,4_12_0,2023-11-30T15:38:44.901Z,,,,0,-0.9388660854518424,0.79533948698576,,,true,hl,4259.453000000009,response,1.2695509547992938,1.2,-1.2,-0.9641099676945492,1.2,-1.2,high,low,,ISIC_9291926.JPG,,ISIC_0025841.JPG,,26,true,0.3600000000000002,hl,keypress(j),100,false,139535.79999995232,139535.5,135259.396,135453.19999980927,135276.047,139359.375,1,16,13,
sequence,flow.Sequence,4_12,2023-11-30T15:38:44.902Z,,,,,,,,,,,4259.453000000009,completion,,,,,,,high,low,,,,,,,true,,,,,false,139536.29999995232,139535.5,135259.396,135453.09999990463,135276.047,139359.375,1,16,,
trial,html.Screen,4_13_0,2023-11-30T15:38:50.806Z,,,,0,-0.8035152873995188,0.82868450251632,,,true,hl,6081.224999904633,response,0.8979276789594874,1.2,-1.2,-0.925374811016654,1.2,-1.2,high,low,,ISIC_0010671.JPG,,ISIC_4208361.JPG,,33,true,0.42000000000000026,hl,keypress(j),100,false,145440.79999995232,145440.59999990463,139342.778,139536.39999985695,139359.375,145276.274,1,16,14,
sequence,flow.Sequence,4_13,2023-11-30T15:38:50.806Z,,,,,,,,,,,6081.224999904633,completion,,,,,,,high,low,,,,,,,true,,,,,false,145441,145440.59999990463,139342.778,139536.39999985695,139359.375,145276.274,1,16,,
trial,html.Screen,4_14_0,2023-11-30T15:38:53.578Z,,,,0,-0.948927472020595,1.0660437155921598,,,true,hl,2935.5259999523114,response,0.7877939497981142,1.2,-1.2,-0.8415032780288271,1.2,-1.2,high,low,,ISIC_5808758.JPG,,ISIC_0067308.JPG,,33,true,0.42000000000000026,hl,keypress(j),100,false,148212.09999990463,148211.79999995232,145259.365,145441,145276.274,148042.823,1,16,15,
sequence,flow.Sequence,4_14,2023-11-30T15:38:53.578Z,,,,,,,,,,,2935.5259999523114,completion,,,,,,,high,low,,,,,,,true,,,,,false,148212.69999980927,148211.79999995232,145259.365,145441,145276.274,148042.823,1,16,,
trial,html.Screen,4_15_0,2023-11-30T15:38:59.552Z,,,,0,-0.8035152873995188,0.82868450251632,,,true,hl,6143.776999904629,response,1.1181734135756094,1.2,-1.2,-0.944560381774994,1.2,-1.2,high,low,,ISIC_0010671.JPG,,ISIC_9688534.JPG,,33,true,0.42000000000000026,hl,keypress(j),100,false,154186.79999995232,154186.59999990463,148025.974,148212.89999985695,148042.823,154009.307,1,16,16,
sequence,flow.Sequence,4_15,2023-11-30T15:38:59.552Z,,,,,,,,,,,6143.776999904629,completion,,,,,,,high,low,,,,,,,true,,,,,false,154187,154186.59999990463,148025.974,148212.89999985695,148042.823,154009.307,1,16,,
demonstration_loop,flow.Loop,4,2023-11-30T15:38:59.552Z,,,,,,,,,,,74160.41099990463,completion,,,,,,,,,,,,,,,true,,,,,false,154187,154186.59999990463,80009.768,80205.29999995232,80026.189,154009.307,1,16,,
practice_instructions,html.Screen,5,2023-11-30T15:39:27.770Z,,,,,,,,,,,28386.992999952316,response,,,,,,,,,,,,,,,,,continue,click button,,,182404.69999980927,182396.29999995232,153992.657,154187,154009.307,182209.233,,,,
trial,html.Screen,6_0_0,2023-11-30T15:39:33.800Z,,,,1,-1.2249552940807693,-1.1723015116910682,,,true,hh,6206.966999809258,response,1.2724584600905462,1.2,-1.2,1.1411016103695344,1.2,-1.2,high,high,,ISIC_0055251.JPG,,ISIC_0059625.JPG,,26,true,0.15000000000000002,hh,keypress(i),0,false,188434.39999985695,188416.19999980927,182192.854,182404.69999980927,182209.233,188242.554,1,40,1,
sequence,flow.Sequence,6_0,2023-11-30T15:39:33.800Z,,,,,,,,,,,6206.966999809258,completion,,,,,,,high,high,,,,,,,true,,,,,false,188434.59999990463,188416.19999980927,182192.854,182404.69999980927,182209.233,188242.554,1,40,,
trial,html.Screen,6_1_0,2023-11-30T15:39:44.572Z,,,,1,1.1642596483638106,1.109799097093339,,,false,ll,10963.945999999996,response,-1.1474466950560966,1.2,-1.2,-1.268445326285509,1.2,-1.2,low,low,,ISIC_0765584.JPG,,ISIC_5216586.JPG,,30,true,0.1,hh,keypress(i),0,false,199206.79999995232,199206.5,188225.938,188434.79999995232,188242.554,199025.912,1,40,2,
sequence,flow.Sequence,6_1,2023-11-30T15:39:44.572Z,,,,,,,,,,,10963.945999999996,completion,,,,,,,low,low,,,,,,,true,,,,,false,199207.19999980927,199206.5,188225.938,188434.69999980927,188242.554,199025.912,1,40,,
trial,html.Screen,6_2_0,2023-11-30T15:39:52.156Z,,,,1,1.1388430156686884,1.2700552354887775,,,true,ll,7764.087999999989,response,-1.3034518282811869,1.2,-1.2,-1.0642195369108791,1.2,-1.2,low,low,,ISIC_9939653.JPG,,ISIC_0071988.JPG,,53,true,0.15000000000000002,ll,keypress(f),0,false,206790.39999985695,206790,199008.887,199207.39999985695,199025.912,206609.165,1,40,3,
sequence,flow.Sequence,6_2,2023-11-30T15:39:52.156Z,,,,,,,,,,,7764.087999999989,completion,,,,,,,low,low,,,,,,,true,,,,,false,206790.69999980927,206790,199008.887,199207.29999995232,199025.912,206609.165,1,40,,
trial,html.Screen,6_3_0,2023-11-30T15:39:57.060Z,,,,1,-0.9235571765207048,1.0008081653938232,,,false,hl,5085.334999999992,response,1.020990671779317,1.2,-1.2,-1.0116513850520903,1.2,-1.2,high,low,,ISIC_8796632.JPG,,ISIC_0011995.JPG,,26,true,0.3600000000000002,ll,keypress(f),0,false,211694.69999980927,211694.5,206592.311,206790.89999985695,206609.165,211509.141,1,40,4,
sequence,flow.Sequence,6_3,2023-11-30T15:39:57.060Z,,,,,,,,,,,5085.334999999992,completion,,,,,,,high,low,,,,,,,true,,,,,false,211695.09999990463,211694.5,206592.311,206790.89999985695,206609.165,211509.141,1,40,,
trial,html.Screen,6_4_0,2023-11-30T15:40:04.124Z,,,,1,1.086647361897092,1.1528935990320313,,,true,ll,7249.158999952313,response,-1.126264390089724,1.2,-1.2,-1.271896565050952,1.2,-1.2,low,low,,ISIC_3505339.JPG,,ISIC_1520897.JPG,,339,true,0.42000000000000026,ll,keypress(f),0,false,218758.5,218758.29999995232,211492.501,211695.29999995232,211509.141,218575.864,1,40,5,
sequence,flow.Sequence,6_4,2023-11-30T15:40:04.124Z,,,,,,,,,,,7249.158999952313,completion,,,,,,,low,low,,,,,,,true,,,,,false,218758.89999985695,218758.29999995232,211492.501,211695.19999980927,211509.141,218575.864,1,40,,
trial,html.Screen,6_5_0,2023-11-30T15:40:06.788Z,,,,1,1.2706447584800626,1.0903308007916603,,,true,ll,2846.435999952315,response,-1.242586748440878,1.2,-1.2,-1.1207933200172129,1.2,-1.2,low,low,,ISIC_9425937.JPG,,ISIC_0013073.JPG,,53,true,0.15000000000000002,ll,keypress(f),0,false,221422.59999990463,221422.29999995232,218559.035,218759,218575.864,221242.434,1,40,6,
sequence,flow.Sequence,6_5,2023-11-30T15:40:06.788Z,,,,,,,,,,,2846.435999952315,completion,,,,,,,low,low,,,,,,,true,,,,,false,221423.09999990463,221422.29999995232,218559.035,218759,218575.864,221242.434,1,40,,
trial,html.Screen,6_6_0,2023-11-30T15:40:14.204Z,,,,1,0.991282840649944,-0.9397921099839784,,,false,lh,7596.265999809257,response,-0.8655167308525522,1.2,-1.2,0.9298580423306444,1.2,-1.2,low,high,,ISIC_0000463.JPG,,ISIC_4603706.JPG,,27,true,0.42000000000000026,ll,keypress(f),0,false,228839,228838.69999980927,221225.968,221423.29999995232,221242.434,228659.106,1,40,7,
sequence,flow.Sequence,6_6,2023-11-30T15:40:14.205Z,,,,,,,,,,,7596.265999809257,completion,,,,,,,low,high,,,,,,,true,,,,,false,228839.39999985695,228838.69999980927,221225.968,221423.29999995232,221242.434,228659.106,1,40,,
trial,html.Screen,6_7_0,2023-11-30T15:40:20.141Z,,,,1,-1.0022829373011404,0.8311726972863814,,,true,hl,6115.993999904633,response,1.2364994561934892,1.2,-1.2,-0.9174173651516624,1.2,-1.2,high,low,,ISIC_0033287.JPG,,ISIC_3481133.JPG,,26,true,0.3600000000000002,hl,keypress(j),0,false,234775.39999985695,234775.09999990463,228642.221,228839.59999990463,228659.106,234592.424,1,40,8,
sequence,flow.Sequence,6_7,2023-11-30T15:40:20.141Z,,,,,,,,,,,6115.993999904633,completion,,,,,,,high,low,,,,,,,true,,,,,false,234775.69999980927,234775.09999990463,228642.221,228839.5,228659.106,234592.424,1,40,,
trial,html.Screen,6_8_0,2023-11-30T15:40:24.244Z,,,,1,1.2695509547992938,-0.9641099676945492,,,false,lh,4285.875999952317,response,-0.7911024675435955,1.2,-1.2,0.7975977016137676,1.2,-1.2,low,high,,ISIC_0025841.JPG,,ISIC_5813642.JPG,,27,true,0.42000000000000026,hl,keypress(j),0,false,238878.69999980927,238878.29999995232,234575.865,234775.89999985695,234592.424,238692.402,1,40,9,
sequence,flow.Sequence,6_8,2023-11-30T15:40:24.244Z,,,,,,,,,,,4285.875999952317,completion,,,,,,,low,high,,,,,,,true,,,,,false,238879.09999990463,238878.29999995232,234575.865,234775.89999985695,234592.424,238692.402,1,40,,
trial,html.Screen,6_9_0,2023-11-30T15:40:33.535Z,,,,1,1.3411179702686655,1.255103311449152,,,true,ll,9474.597999999998,response,-1.1721505400949757,1.2,-1.2,-1.3324676785261087,1.2,-1.2,low,low,,ISIC_5611010.JPG,,ISIC_0000167.JPG,,245,true,0.3600000000000002,ll,keypress(f),0,false,248167.39999985695,248167,238675.702,238879.19999980927,238692.402,247992.351,1,40,10,
sequence,flow.Sequence,6_9,2023-11-30T15:40:33.536Z,,,,,,,,,,,9474.597999999998,completion,,,,,,,low,low,,,,,,,true,,,,,false,248167.79999995232,248167,238675.702,238879.19999980927,238692.402,247992.351,1,40,,
trial,html.Screen,6_10_0,2023-11-30T15:40:39.151Z,,,,1,0.869932994914832,-0.8880533324432531,,,true,lh,5790.649000000005,response,-0.7871162143493278,1.2,-1.2,0.8429329800778957,1.2,-1.2,low,high,,ISIC_8617084.JPG,,ISIC_3439215.JPG,,27,true,0.42000000000000026,lh,keypress(e),0,false,253783.19999980927,253783,247959.009,248168,247992.351,253592.398,1,40,11,
sequence,flow.Sequence,6_10,2023-11-30T15:40:39.151Z,,,,,,,,,,,5790.649000000005,completion,,,,,,,low,high,,,,,,,true,,,,,false,253783.59999990463,253783,247959.009,248167.89999985695,247992.351,253592.398,1,40,,
trial,html.Screen,6_11_0,2023-11-30T15:40:45.926Z,,,,1,1.0143509683988825,-1.3163955902021656,,,true,lh,6965.701999904646,response,-0.7911024675435955,1.2,-1.2,0.7975977016137676,1.2,-1.2,low,high,,ISIC_0062031.JPG,,ISIC_5813642.JPG,,27,true,0.42000000000000026,lh,keypress(e),0,false,260558.29999995232,260558.09999990463,253575.613,253783.79999995232,253592.398,260375.747,1,40,12,
sequence,flow.Sequence,6_11,2023-11-30T15:40:45.927Z,,,,,,,,,,,6965.701999904646,completion,,,,,,,low,high,,,,,,,true,,,,,false,260558.89999985695,260558.09999990463,253575.613,253783.69999980927,253592.398,260375.747,1,40,,
trial,html.Screen,6_12_0,2023-11-30T15:40:57.406Z,,,,1,1.0717785279820962,1.1267239445830604,,,true,ll,11662.552999952313,response,-1.1682648288591504,1.2,-1.2,-1.004142980655507,1.2,-1.2,low,low,,ISIC_9948815.JPG,,ISIC_3936223.JPG,,245,true,0.3600000000000002,ll,keypress(f),0,false,272038.5,272038.2999999523,260359.052,260559,260375.747,271858.99,1,40,13,
sequence,flow.Sequence,6_12,2023-11-30T15:40:57.407Z,,,,,,,,,,,11662.552999952313,completion,,,,,,,low,low,,,,,,,true,,,,,false,272038.7999999523,272038.2999999523,260359.052,260559,260375.747,271858.99,1,40,,
trial,html.Screen,6_13_0,2023-11-30T15:41:04.173Z,,,,1,-0.8655167308525522,0.9298580423306444,,,false,hl,6946.010000000009,response,0.9696118525781644,1.2,-1.2,-0.9244148283103414,1.2,-1.2,high,low,,ISIC_4603706.JPG,,ISIC_7927525.JPG,,26,true,0.3600000000000002,ll,keypress(f),0,false,278805.09999990463,278805,271842.146,272038.7999999523,271858.99,278625.89,1,40,14,
sequence,flow.Sequence,6_13,2023-11-30T15:41:04.173Z,,,,,,,,,,,6946.010000000009,completion,,,,,,,high,low,,,,,,,true,,,,,false,278805.2999999523,278805,271842.146,272038.7999999523,271858.99,278625.89,1,40,,
trial,html.Screen,6_14_0,2023-11-30T15:41:08.471Z,,,,1,-1.101346104814838,-1.1225813067473052,,,true,hh,4477.409999952302,response,1.0789197754694622,1.2,-1.2,1.1654690806750023,1.2,-1.2,high,high,,ISIC_8175453.JPG,,ISIC_1576437.JPG,,253,true,0.42000000000000026,hh,keypress(i),0,false,283103.5,283103.2999999523,278608.778,278805.39999985695,278625.89,282925.626,1,40,15,
sequence,flow.Sequence,6_14,2023-11-30T15:41:08.472Z,,,,,,,,,,,4477.409999952302,completion,,,,,,,high,high,,,,,,,true,,,,,false,283103.89999985695,283103.2999999523,278608.778,278805.39999985695,278625.89,282925.626,1,40,,
trial,html.Screen,6_15_0,2023-11-30T15:41:23.223Z,,,,1,1.0751036484083878,-1.143906455483852,,,true,lh,14929.473999904643,response,-0.8816288864119318,1.2,-1.2,0.801867301188093,1.2,-1.2,low,high,,ISIC_0064406.JPG,,ISIC_9196783.JPG,,27,true,0.42000000000000026,lh,keypress(e),0,false,297855.39999985695,297855.09999990463,282908.881,283104.09999990463,282925.626,297675.847,1,40,16,
sequence,flow.Sequence,6_15,2023-11-30T15:41:23.224Z,,,,,,,,,,,14929.473999904643,completion,,,,,,,low,high,,,,,,,true,,,,,false,297855.69999980927,297855.09999990463,282908.881,283104.09999990463,282925.626,297675.847,1,40,,
trial,html.Screen,6_16_0,2023-11-30T15:41:28.271Z,,,,1,-1.156827121261563,-1.2544342720917778,,,true,hh,5225.352999809256,response,0.8689515664606163,1.2,-1.2,1.0538817435713148,1.2,-1.2,high,high,,ISIC_0060397.JPG,,ISIC_7333928.JPG,,179,true,0.3600000000000002,hh,keypress(i),0,false,302901.2999999523,302901.19999980927,297658.473,297856,297675.847,302725.549,1,40,17,
sequence,flow.Sequence,6_16,2023-11-30T15:41:28.271Z,,,,,,,,,,,5225.352999809256,completion,,,,,,,high,high,,,,,,,true,,,,,false,302901.5,302901.19999980927,297658.473,297855.89999985695,297675.847,302725.549,1,40,,
trial,html.Screen,6_17_0,2023-11-30T15:41:33.392Z,,,,1,-1.0022829373011404,0.8311726972863814,,,true,hl,5296.650999809266,response,1.4747161152848791,1.2,-1.2,-0.847048591307387,1.2,-1.2,high,low,,ISIC_0033287.JPG,,ISIC_0016092.JPG,,26,true,0.3600000000000002,hl,keypress(j),0,false,308022.39999985695,308022.19999980927,302692.241,302901.5,302725.549,307842.228,1,40,18,
sequence,flow.Sequence,6_17,2023-11-30T15:41:33.393Z,,,,,,,,,,,5296.650999809266,completion,,,,,,,high,low,,,,,,,true,,,,,false,308022.7999999523,308022.19999980927,302692.241,302901.5,302725.549,307842.228,1,40,,
trial,html.Screen,6_18_0,2023-11-30T15:41:41.855Z,,,,1,0.858338058340649,-0.9540612223480284,,,true,lh,8642.571999952313,response,-0.9388660854518424,1.2,-1.2,0.79533948698576,1.2,-1.2,low,high,,ISIC_8922893.JPG,,ISIC_9291926.JPG,,27,true,0.42000000000000026,lh,keypress(e),0,false,316484.89999985695,316484.7999999523,307825.664,308023,307842.228,316292.157,1,40,19,
sequence,flow.Sequence,6_18,2023-11-30T15:41:41.855Z,,,,,,,,,,,8642.571999952313,completion,,,,,,,low,high,,,,,,,true,,,,,false,316485.09999990463,316484.7999999523,307825.664,308023,307842.228,316292.157,1,40,,
trial,html.Screen,6_19_0,2023-11-30T15:41:49.608Z,,,,1,-0.8623414234919863,0.782830143980698,,,false,hl,7945.942999904626,response,0.9696118525781644,1.2,-1.2,-0.9244148283103414,1.2,-1.2,high,low,,ISIC_2727016.JPG,,ISIC_7927525.JPG,,26,true,0.3600000000000002,hh,keypress(i),0,false,324238.39999985695,324238.09999990463,316275.401,316485.09999990463,316292.157,324058.876,1,40,20,
sequence,flow.Sequence,6_19,2023-11-30T15:41:49.609Z,,,,,,,,,,,7945.942999904626,completion,,,,,,,high,low,,,,,,,true,,,,,false,324238.7999999523,324238.09999990463,316275.401,316485.09999990463,316292.157,324058.876,1,40,,
trial,html.Screen,6_20_0,2023-11-30T15:41:53.504Z,,,,1,-1.2923059965680113,-1.222688159093534,,,true,hh,4075.2239999046433,response,1.1513656623516493,1.2,-1.2,0.9961674882214306,1.2,-1.2,high,high,,ISIC_0072175.JPG,,ISIC_0624779.JPG,,253,true,0.42000000000000026,hh,keypress(i),0,false,328134.19999980927,328134.09999990463,324042.09,324239,324058.876,327958.836,1,40,21,
sequence,flow.Sequence,6_20,2023-11-30T15:41:53.505Z,,,,,,,,,,,4075.2239999046433,completion,,,,,,,high,high,,,,,,,true,,,,,false,328134.5,328134.09999990463,324042.09,324239,324058.876,327958.836,1,40,,
trial,html.Screen,6_21_0,2023-11-30T15:42:00.449Z,,,,1,-1.0164576835546473,0.8120626538423016,,,true,hl,7120.063999856939,response,1.2695509547992938,1.2,-1.2,-0.9641099676945492,1.2,-1.2,high,low,,ISIC_6002694.JPG,,ISIC_0025841.JPG,,26,true,0.3600000000000002,hl,keypress(j),0,false,335079.19999980927,335078.89999985695,327925.616,328134.59999990463,327958.836,334892.134,1,40,22,
sequence,flow.Sequence,6_21,2023-11-30T15:42:00.450Z,,,,,,,,,,,7120.063999856939,completion,,,,,,,high,low,,,,,,,true,,,,,false,335079.59999990463,335078.89999985695,327925.616,328134.59999990463,327958.836,334892.134,1,40,,
trial,html.Screen,6_22_0,2023-11-30T15:42:06.488Z,,,,1,1.0858641668099058,1.1638942560200525,,,true,ll,6225.86599999998,response,-1.2493792664822851,1.2,-1.2,-1.1336008561684745,1.2,-1.2,low,low,,ISIC_5439597.JPG,,ISIC_0061475.JPG,,339,true,0.42000000000000026,ll,keypress(f),0,false,341118.2999999523,341118,334875.279,335079.7999999523,334892.134,340943.545,1,40,23,
sequence,flow.Sequence,6_22,2023-11-30T15:42:06.489Z,,,,,,,,,,,6225.86599999998,completion,,,,,,,low,low,,,,,,,true,,,,,false,341118.7999999523,341118,334875.279,335079.69999980927,334892.134,340943.545,1,40,,
trial,html.Screen,6_23_0,2023-11-30T15:42:14.374Z,,,,1,-1.242586748440878,-1.1207933200172129,,,true,hh,8060.654999809281,response,1.2318069697449794,1.2,-1.2,1.1703576816778267,1.2,-1.2,high,high,,ISIC_0013073.JPG,,ISIC_2732573.JPG,,26,true,0.15000000000000002,hh,keypress(i),0,false,349004.2999999523,349004.19999980927,340908.873,341119,340943.545,348825.437,1,40,24,
sequence,flow.Sequence,6_23,2023-11-30T15:42:14.374Z,,,,,,,,,,,8060.654999809281,completion,,,,,,,high,high,,,,,,,true,,,,,false,349004.5,349004.19999980927,340908.873,341119,340943.545,348825.437,1,40,,
trial,html.Screen,6_24_0,2023-11-30T15:42:17.399Z,,,,1,1.0858641668099058,1.1638942560200525,,,true,ll,3203.762999809289,response,-1.255256820488545,1.2,-1.2,-1.1206426433062562,1.2,-1.2,low,low,,ISIC_5439597.JPG,,ISIC_0024652.JPG,,30,true,0.1,ll,keypress(f),0,false,352029.19999980927,352029.19999980927,348808.787,349004.59999990463,348825.437,351842.152,1,40,25,
sequence,flow.Sequence,6_24,2023-11-30T15:42:17.399Z,,,,,,,,,,,3203.762999809289,completion,,,,,,,low,low,,,,,,,true,,,,,false,352029.39999985695,352029.19999980927,348808.787,349004.59999990463,348825.437,351842.152,1,40,,
trial,html.Screen,6_25_0,2023-11-30T15:42:20.672Z,,,,1,-1.2915523362516486,-1.1264977790562936,,,true,hh,3459.747999856947,response,1.201100953917304,1.2,-1.2,1.1751492358160105,1.2,-1.2,high,high,,ISIC_0502582.JPG,,ISIC_0647224.JPG,,26,true,0.15000000000000002,hh,keypress(i),0,false,355302.09999990463,355301.89999985695,351825.61,352029.39999985695,351842.152,355125.423,1,40,26,
sequence,flow.Sequence,6_25,2023-11-30T15:42:20.673Z,,,,,,,,,,,3459.747999856947,completion,,,,,,,high,high,,,,,,,true,,,,,false,355302.59999990463,355301.89999985695,351825.61,352029.39999985695,351842.152,355125.423,1,40,,
trial,html.Screen,6_26_0,2023-11-30T15:42:25.778Z,,,,1,-0.7809949855371787,0.8493861117004308,,,false,hl,5280.176999904623,response,1.0865333402803938,1.2,-1.2,-1.0542635307358266,1.2,-1.2,high,low,,ISIC_7450481.JPG,,ISIC_0034006.JPG,,26,true,0.3600000000000002,ll,keypress(f),0,false,360405.59999990463,360405.59999990463,355092.266,355302.7999999523,355125.423,360225.411,1,40,27,
sequence,flow.Sequence,6_26,2023-11-30T15:42:25.778Z,,,,,,,,,,,5280.176999904623,completion,,,,,,,high,low,,,,,,,true,,,,,false,360405.7999999523,360405.59999990463,355092.266,355302.69999980927,355125.423,360225.411,1,40,,
trial,html.Screen,6_27_0,2023-11-30T15:42:28.354Z,,,,1,-1.2322060291690602,-1.2686491386389651,,,true,hh,2756.488999856927,response,0.9031332540970408,1.2,-1.2,0.853200189915778,1.2,-1.2,high,high,,ISIC_0011697.JPG,,ISIC_4679971.JPG,,253,true,0.42000000000000026,hh,keypress(i),0,false,362982.19999980927,362981.89999985695,360208.696,360405.7999999523,360225.411,362792.177,1,40,28,
sequence,flow.Sequence,6_27,2023-11-30T15:42:28.355Z,,,,,,,,,,,2756.488999856927,completion,,,,,,,high,high,,,,,,,true,,,,,false,362982.5,362981.89999985695,360208.696,360405.7999999523,360225.411,362792.177,1,40,,
trial,html.Screen,6_28_0,2023-11-30T15:42:30.954Z,,,,1,1.2012395086389958,1.0618985767073823,,,true,ll,2789.2229998569237,response,-1.247270138097585,1.2,-1.2,-1.1704704713504994,1.2,-1.2,low,low,,ISIC_9876004.JPG,,ISIC_0065774.JPG,,30,true,0.1,ll,keypress(f),0,false,365581.59999990463,365581.39999985695,362775.334,362982.69999980927,362792.177,365392.066,1,40,29,
sequence,flow.Sequence,6_28,2023-11-30T15:42:30.954Z,,,,,,,,,,,2789.2229998569237,completion,,,,,,,low,low,,,,,,,true,,,,,false,365581.69999980927,365581.39999985695,362775.334,362982.69999980927,362792.177,365392.066,1,40,,
trial,html.Screen,6_29_0,2023-11-30T15:42:32.737Z,,,,1,-1.156827121261563,-1.2544342720917778,,,true,hh,1972.9340000000084,response,1.1598623261077452,1.2,-1.2,1.203269031614007,1.2,-1.2,high,high,,ISIC_0060397.JPG,,ISIC_0002639.JPG,,26,true,0.15000000000000002,hh,keypress(i),0,false,367365.09999990463,367365,365375.448,365581.7999999523,365392.066,367175.351,1,40,30,
sequence,flow.Sequence,6_29,2023-11-30T15:42:32.737Z,,,,,,,,,,,1972.9340000000084,completion,,,,,,,high,high,,,,,,,true,,,,,false,367365.19999980927,367365,365375.448,365581.69999980927,365392.066,367175.351,1,40,,
trial,html.Screen,6_30_0,2023-11-30T15:42:36.379Z,,,,1,1.057008495826831,1.1278122585028287,,,true,ll,3830.648999999976,response,-1.101214461533281,1.2,-1.2,-1.1849883512428183,1.2,-1.2,low,low,,ISIC_2819798.JPG,,ISIC_0064943.JPG,,30,true,0.1,ll,keypress(f),0,false,371006.2999999523,371006,367158.73,367365.19999980927,367175.351,370825.362,1,40,31,
sequence,flow.Sequence,6_30,2023-11-30T15:42:36.379Z,,,,,,,,,,,3830.648999999976,completion,,,,,,,low,low,,,,,,,true,,,,,false,371006.69999980927,371006,367158.73,367365.19999980927,367175.351,370825.362,1,40,,
trial,html.Screen,6_31_0,2023-11-30T15:42:41.770Z,,,,1,-1.0213365328004047,1.088524359911891,,,false,hl,5572.337999809242,response,1.2075172235545184,1.2,-1.2,-0.9116724966267612,1.2,-1.2,high,low,,ISIC_5434229.JPG,,ISIC_0024235.JPG,,26,true,0.3600000000000002,hh,keypress(i),0,false,376397.89999985695,376397.69999980927,370808.893,371007,370825.362,376208.698,1,40,32,
sequence,flow.Sequence,6_31,2023-11-30T15:42:41.771Z,,,,,,,,,,,5572.337999809242,completion,,,,,,,high,low,,,,,,,true,,,,,false,376398.2999999523,376397.69999980927,370808.893,371006.7999999523,370825.362,376208.698,1,40,,
trial,html.Screen,6_32_0,2023-11-30T15:42:52.346Z,,,,1,-0.8035152873995188,0.82868450251632,,,true,hl,10765.101999952341,response,1.2695509547992938,1.2,-1.2,-0.9641099676945492,1.2,-1.2,high,low,,ISIC_0010671.JPG,,ISIC_0025841.JPG,,33,true,0.42000000000000026,hl,keypress(j),0,false,386974,386973.7999999523,376191.852,376398.5,376208.698,386792.008,1,40,33,
sequence,flow.Sequence,6_32,2023-11-30T15:42:52.347Z,,,,,,,,,,,10765.101999952341,completion,,,,,,,high,low,,,,,,,true,,,,,false,386974.39999985695,386973.7999999523,376191.852,376398.5,376208.698,386792.008,1,40,,
trial,html.Screen,6_33_0,2023-11-30T15:42:56.354Z,,,,1,-1.2249552940807693,-1.1723015116910682,,,true,hh,4189.59199990466,response,1.030423594637164,1.2,-1.2,0.9418036199165556,1.2,-1.2,high,high,,ISIC_0055251.JPG,,ISIC_0010299.JPG,,253,true,0.42000000000000026,hh,keypress(i),0,false,390981.7999999523,390981.59999990463,386775.249,386974.59999990463,386792.008,390808.652,1,40,34,
sequence,flow.Sequence,6_33,2023-11-30T15:42:56.354Z,,,,,,,,,,,4189.59199990466,completion,,,,,,,high,high,,,,,,,true,,,,,false,390982.19999980927,390981.59999990463,386775.249,386974.5,386792.008,390808.652,1,40,,
trial,html.Screen,6_34_0,2023-11-30T15:43:07.067Z,,,,1,0.8487429103619056,-0.9778257804233036,,,true,lh,10885.44799990463,response,-0.8623414234919863,1.2,-1.2,0.782830143980698,1.2,-1.2,low,high,,ISIC_4554863.JPG,,ISIC_2727016.JPG,,27,true,0.42000000000000026,lh,keypress(e),0,false,401694.2999999523,401694.09999990463,390775.365,390982.39999985695,390808.652,401508.629,1,40,35,
sequence,flow.Sequence,6_34,2023-11-30T15:43:07.067Z,,,,,,,,,,,10885.44799990463,completion,,,,,,,low,high,,,,,,,true,,,,,false,401694.7999999523,401694.09999990463,390775.365,390982.2999999523,390808.652,401508.629,1,40,,
trial,html.Screen,6_35_0,2023-11-30T15:43:22.881Z,,,,1,-1.101346104814838,-1.1225813067473052,,,,,15833.283999999985,timeout,1.072671714258808,1.2,-1.2,1.0208498389771272,1.2,-1.2,high,high,,ISIC_8175453.JPG,,ISIC_5218773.JPG,,179,true,0.3600000000000002,,,0,false,417508.5,417508.39999985695,401491.87,401694.89999985695,401508.629,417341.913,1,40,36,
sequence,flow.Sequence,6_35,2023-11-30T15:43:22.881Z,,,,,,,,,,,15999.770999856933,completion,,,,,,,high,high,,,,,,,true,,,,,false,417508.69999980927,417508.39999985695,401491.87,401694.89999985695,401508.629,417341.913,1,40,,
trial,html.Screen,6_36_0,2023-11-30T15:43:24.139Z,,,,1,1.0751036484083878,-1.143906455483852,,,false,lh,1424.7869998092647,response,-0.7998855902596425,1.2,-1.2,1.1518579145663017,1.2,-1.2,low,high,,ISIC_0064406.JPG,,ISIC_0025061.JPG,,27,true,0.42000000000000026,hh,keypress(i),0,false,418767,418766.69999980927,417308.851,417508.69999980927,417341.913,418591.952,1,40,37,
sequence,flow.Sequence,6_36,2023-11-30T15:43:24.140Z,,,,,,,,,,,1424.7869998092647,completion,,,,,,,low,high,,,,,,,true,,,,,false,418767.2999999523,418766.69999980927,417308.851,417508.69999980927,417341.913,418591.952,1,40,,
trial,html.Screen,6_37_0,2023-11-30T15:43:31.252Z,,,,1,-0.9235571765207048,1.0008081653938232,,,true,hl,7285.647999904642,response,1.2075172235545184,1.2,-1.2,-0.9116724966267612,1.2,-1.2,high,low,,ISIC_8796632.JPG,,ISIC_0024235.JPG,,26,true,0.3600000000000002,hl,keypress(j),0,false,425878,425877.59999990463,418558.807,418767.39999985695,418591.952,425691.899,1,40,38,
sequence,flow.Sequence,6_37,2023-11-30T15:43:31.253Z,,,,,,,,,,,7285.647999904642,completion,,,,,,,high,low,,,,,,,true,,,,,false,425878.2999999523,425877.59999990463,418558.807,418767.39999985695,418591.952,425691.899,1,40,,
trial,html.Screen,6_38_0,2023-11-30T15:43:39.771Z,,,,1,0.8809306963311293,-0.8614910030038974,,,true,lh,8704.30099980929,response,-0.7870237732709365,1.2,-1.2,0.9172955251119376,1.2,-1.2,low,high,,ISIC_0013731.JPG,,ISIC_0057716.JPG,,27,true,0.42000000000000026,lh,keypress(e),0,false,434396.2999999523,434396.19999980927,425675.274,425878.5,425691.899,434208.541,1,40,39,
sequence,flow.Sequence,6_38,2023-11-30T15:43:39.771Z,,,,,,,,,,,8704.30099980929,completion,,,,,,,low,high,,,,,,,true,,,,,false,434396.5,434396.19999980927,425675.274,425878.39999985695,425691.899,434208.541,1,40,,
trial,html.Screen,6_39_0,2023-11-30T15:43:45.924Z,,,,1,1.2364994561934892,-0.9174173651516624,,,false,lh,6341.25899995229,response,-0.8655167308525522,1.2,-1.2,0.9298580423306444,1.2,-1.2,low,high,,ISIC_3481133.JPG,,ISIC_4603706.JPG,,27,true,0.42000000000000026,hh,keypress(i),0,false,440550,440549.7999999523,434191.675,434396.5,434208.541,440358.595,1,40,40,
sequence,flow.Sequence,6_39,2023-11-30T15:43:45.925Z,,,,,,,,,,,6341.25899995229,completion,,,,,,,low,high,,,,,,,true,,,,,false,440550.39999985695,440549.7999999523,434191.675,434396.5,434208.541,440358.595,1,40,,
practice_loop,flow.Loop,6,2023-11-30T15:43:45.925Z,,,,,,,,,,,258340.5669999523,completion,,,,,,,,,,,,,,,true,,,,,false,440550.69999980927,440549.7999999523,182192.854,182404.69999980927,182209.233,440358.595,1,40,,
stair_instructions,html.Screen,7,2023-11-30T15:43:54.355Z,,,,,,,,,,,8620.905000000028,response,,,,,,,,,,,,,,,,,continue,click button,,,448980,448979.5,440341.876,440550.7999999523,440358.595,448791.84,,,,
trial,html.Screen,8_0_0,2023-11-30T15:43:58.466Z,,,,2,-0.0107854985447517,-0.0478010417136109,,0.05,false,hl,4299.8599998092395,response,0.8487429103619056,1.2,-1.2,-0.9778257804233036,1.2,-1.2,high,low,,ISIC_0010500.JPG,,ISIC_4554863.JPG,33,26,false,0.3600000000000002,hh,keypress(i),0,true,453091.7999999523,453091.69999980927,448775.457,448980.19999980927,448791.84,452925.242,1,40,1,
sequence,flow.Sequence,8_0,2023-11-30T15:43:58.466Z,,,,,,,,,,,4299.8599998092395,completion,,,,,,,high,low,,,,,,,false,,,,,true,453091.89999985695,453091.69999980927,448775.457,448980.19999980927,448791.84,452925.242,1,40,,
trial,html.Screen,8_1_0,2023-11-30T15:44:00.956Z,,,,2,-0.0085520978188085,0.0464691161264081,,0.05,true,ll,2656.1579998569214,response,-1.0651492409820618,1.15,-1.15,-1.1862499256725747,1.15,-1.2,low,low,,ISIC_0758797.JPG,,ISIC_0065421.JPG,33,29,false,0.1,ll,keypress(f),0,true,455581.59999990463,455581.39999985695,452909.081,453092,452925.242,455391.811,1,40,2,
sequence,flow.Sequence,8_1,2023-11-30T15:44:00.956Z,,,,,,,,,,,2656.1579998569214,completion,,,,,,,low,low,,,,,,,false,,,,,true,455582,455581.39999985695,452909.081,453092,452925.242,455391.811,1,40,,
trial,html.Screen,8_2_0,2023-11-30T15:44:05.699Z,,,,2,-0.0217698886732706,0.0410870915161425,,0.05,true,hh,4932.288999904646,response,1.0959058628476686,1.15,-1.15,1.1684835186766898,1.15,-1.15,high,high,,ISIC_0072173.JPG,,ISIC_5920470.JPG,33,30,false,0.13,hh,keypress(i),0,true,460324.19999980927,460324.09999990463,455375.231,455582.19999980927,455391.811,460141.791,1,40,3,
sequence,flow.Sequence,8_2,2023-11-30T15:44:05.699Z,,,,,,,,,,,4932.288999904646,completion,,,,,,,high,high,,,,,,,false,,,,,true,460324.2999999523,460324.09999990463,455375.231,455582.09999990463,455391.811,460141.791,1,40,,
trial,html.Screen,8_3_0,2023-11-30T15:44:10.677Z,,,,2,-0.0329095507339554,0.0382899749693245,,0.05,true,hh,5160.808999904606,response,1.212030980680325,1.0821946907621791,-1.15,1.033832433609739,1.15,-1.15,high,high,,ISIC_8812781.JPG,,ISIC_0008510.JPG,33,31,false,0.13,hh,keypress(i),0,true,465302.89999985695,465302.59999990463,460124.963,460324.39999985695,460141.791,465125.124,1,40,4,
sequence,flow.Sequence,8_3,2023-11-30T15:44:10.678Z,,,,,,,,,,,5160.808999904606,completion,,,,,,,high,high,,,,,,,false,,,,,true,465303.2999999523,465302.59999990463,460124.963,460324.39999985695,460141.791,465125.124,1,40,,
trial,html.Screen,8_4_0,2023-11-30T15:44:18.429Z,,,,2,-0.0085520978188085,0.0464691161264081,,0.05,false,lh,7929.675999952306,response,-0.7911024675435955,1.0821946907621791,-1.15,0.7975977016137676,1.0729317071450322,-1.15,low,high,,ISIC_0758797.JPG,,ISIC_5813642.JPG,33,26,false,0.3600000000000002,hl,keypress(j),0,true,473055,473054.7999999523,465108.447,465303.5,465125.124,472875.108,1,40,5,
sequence,flow.Sequence,8_4,2023-11-30T15:44:18.430Z,,,,,,,,,,,7929.675999952306,completion,,,,,,,low,high,,,,,,,false,,,,,true,473055.39999985695,473054.7999999523,465108.447,465303.39999985695,465125.124,472875.108,1,40,,
trial,html.Screen,8_5_0,2023-11-30T15:44:26.224Z,,,,2,0.0277178575053843,-0.0395587463147856,,0.05,false,lh,7971.491999904625,response,-1.0213365328004047,1.0821946907621791,-1.15,1.088524359911891,1.1229317071450322,-1.15,low,high,,ISIC_0010807.JPG,,ISIC_5434229.JPG,33,28,false,0.3700000000000002,ll,keypress(f),0,true,480846.89999985695,480846.59999990463,472858.396,473055.59999990463,472875.108,480675.07,1,40,6,
sequence,flow.Sequence,8_5,2023-11-30T15:44:26.224Z,,,,,,,,,,,7971.491999904625,completion,,,,,,,low,high,,,,,,,false,,,,,true,480847.2999999523,480846.59999990463,472858.396,473055.59999990463,472875.108,480675.07,1,40,,
trial,html.Screen,8_6_0,2023-11-30T15:44:32.471Z,,,,2,-0.0107854985447517,-0.0478010417136109,,0.05,false,lh,6418.929999999993,response,-0.948927472020595,1.0821946907621791,-1.15,1.0660437155921598,1.1729317071450323,-1.15,low,high,,ISIC_0010500.JPG,,ISIC_5808758.JPG,33,27,false,0.3800000000000002,hh,keypress(i),0,true,487094.19999980927,487094,480641.727,480847.5,480675.07,486908.381,1,40,7,
sequence,flow.Sequence,8_6,2023-11-30T15:44:32.471Z,,,,,,,,,,,6418.929999999993,completion,,,,,,,low,high,,,,,,,false,,,,,true,487094.59999990463,487094,480641.727,480847.39999985695,480675.07,486908.381,1,40,,
trial,html.Screen,8_7_0,2023-11-30T15:44:36.237Z,,,,2,-0.007397293189458,-0.0174716772037504,,0.05,true,hh,3951.7189999046386,response,1.0959058628476686,1.0821946907621791,-1.15,1.1684835186766898,1.1729317071450323,-1.15,high,high,,ISIC_0056226.JPG,,ISIC_5920470.JPG,33,28,false,0.13,hh,keypress(i),0,true,490860.19999980927,490860.09999990463,486891.688,487094.69999980927,486908.381,490675.02,1,40,8,
sequence,flow.Sequence,8_7,2023-11-30T15:44:36.237Z,,,,,,,,,,,3951.7189999046386,completion,,,,,,,high,high,,,,,,,false,,,,,true,490860.39999985695,490860.09999990463,486891.688,487094.69999980927,486908.381,490675.02,1,40,,
trial,html.Screen,8_8_0,2023-11-30T15:44:46.366Z,,,,2,0.0409338693593207,-0.0072462710499874,,0.05,true,lh,10313.979999999981,response,-1.276222161935671,1.0672636171344247,-1.15,0.9657780821973284,1.0672636171344247,-1.15,low,high,,ISIC_3608788.JPG,,ISIC_6710411.JPG,33,27,false,0.3600000000000002,lh,keypress(e),0,true,500989.09999990463,500989,490658.541,490860.39999985695,490675.02,500808.355,1,40,9,
sequence,flow.Sequence,8_8,2023-11-30T15:44:46.366Z,,,,,,,,,,,10313.979999999981,completion,,,,,,,low,high,,,,,,,false,,,,,true,500989.09999990463,500989,490658.541,490860.39999985695,490675.02,500808.355,1,40,,
trial,html.Screen,8_9_0,2023-11-30T15:44:52.349Z,,,,2,-0.0085520978188085,0.0464691161264081,,0.05,true,lh,6164.244999904651,response,-0.8816288864119318,1.0672636171344247,-1.15,0.801867301188093,1.0672636171344247,-1.15,low,high,,ISIC_0758797.JPG,,ISIC_9196783.JPG,33,27,false,0.3600000000000002,lh,keypress(e),0,true,506972.69999980927,506972.59999990463,500791.331,500989.2999999523,500808.355,506791.675,1,40,10,
sequence,flow.Sequence,8_9,2023-11-30T15:44:52.349Z,,,,,,,,,,,6164.244999904651,completion,,,,,,,low,high,,,,,,,false,,,,,true,506972.7999999523,506972.59999990463,500791.331,500989.19999980927,500808.355,506791.675,1,40,,
trial,html.Screen,8_10_0,2023-11-30T15:44:57.903Z,,,,2,0.0102460616775615,-0.0309670599545429,,0.05,false,hl,5734.325000000012,response,0.869932994914832,1.0672636171344247,-1.0999999999999999,-0.8880533324432531,0.8338226916927107,-1.15,high,low,,ISIC_0072041.JPG,,ISIC_8617084.JPG,33,26,false,0.29000000000000015,hh,keypress(i),0,true,512526.2999999523,512526,506775.103,506972.7999999523,506791.675,512341.668,1,40,11,
sequence,flow.Sequence,8_10,2023-11-30T15:44:57.903Z,,,,,,,,,,,5734.325000000012,completion,,,,,,,high,low,,,,,,,false,,,,,true,512526.69999980927,512526,506775.103,506972.7999999523,506791.675,512341.668,1,40,,
trial,html.Screen,8_11_0,2023-11-30T15:45:08.703Z,,,,2,-0.0069555338059566,0.0310100918136373,,0.05,false,hl,10984.131999952311,response,0.869932994914832,1.0672636171344247,-1.0999999999999999,-0.8880533324432531,0.8338226916927107,-1.15,high,low,,ISIC_0011177.JPG,,ISIC_8617084.JPG,33,26,false,0.29000000000000015,ll,keypress(f),0,true,523326,523325.7999999523,512324.822,512526.89999985695,512341.668,523141.691,1,40,12,
sequence,flow.Sequence,8_11,2023-11-30T15:45:08.703Z,,,,,,,,,,,10984.131999952311,completion,,,,,,,high,low,,,,,,,false,,,,,true,523326.39999985695,523325.7999999523,512324.822,512526.69999980927,512341.668,523141.691,1,40,,
trial,html.Screen,8_12_0,2023-11-30T15:45:12.966Z,,,,2,0.000047919190197942736,0.0462652940855003,,0.05,true,hh,4447.208999856957,response,1.079549480496248,1.1172636171344248,-1.0999999999999999,0.9336079040538864,0.8338226916927107,-1.15,high,high,,ISIC_0011507.JPG,,ISIC_6913045.JPG,33,31,false,0.1,hh,keypress(i),0,true,527589,527588.899999857,523124.83,523326.5,523141.691,527408.364,1,40,13,
sequence,flow.Sequence,8_12,2023-11-30T15:45:12.966Z,,,,,,,,,,,4447.208999856957,completion,,,,,,,high,high,,,,,,,false,,,,,true,527589.0999999046,527588.899999857,523124.83,523326.5,523141.691,527408.364,1,40,,
trial,html.Screen,8_13_0,2023-11-30T15:45:22.695Z,,,,2,-0.0107854985447517,-0.0478010417136109,,0.05,false,ll,9909.935999952373,response,-1.1762578943048685,1.1172636171344248,-1.0999999999999999,-1.0434857167145009,0.8338226916927107,-1.15,low,low,,ISIC_0010500.JPG,,ISIC_0032544.JPG,33,30,false,0.11,hh,keypress(i),0,true,537318.5999999046,537318.2999999523,527391.647,527589.2999999523,527408.364,537141.73,1,40,14,
sequence,flow.Sequence,8_13,2023-11-30T15:45:22.696Z,,,,,,,,,,,9909.935999952373,completion,,,,,,,low,low,,,,,,,false,,,,,true,537319,537318.2999999523,527391.647,527589.1999998093,527408.364,537141.73,1,40,,
trial,html.Screen,8_14_0,2023-11-30T15:45:24.928Z,,,,2,-0.0329095507339554,0.0382899749693245,,0.05,true,hh,2407.569999952335,response,1.0275060871969903,1.1172636171344248,-1.15,0.8666323445825409,0.8338226916927107,-1.15,high,high,,ISIC_8812781.JPG,,ISIC_9155028.JPG,33,31,false,0.1,hh,keypress(i),0,true,539549.5999999046,539549.2999999523,537124.806,537319.1999998093,537141.73,539358.311,1,40,15,
sequence,flow.Sequence,8_14,2023-11-30T15:45:24.929Z,,,,,,,,,,,2407.569999952335,completion,,,,,,,high,high,,,,,,,false,,,,,true,539550,539549.2999999523,537124.806,537319.0999999046,537141.73,539358.311,1,40,,
trial,html.Screen,8_15_0,2023-11-30T15:45:27.832Z,,,,2,-0.0116094682222121,0.0258434522530318,,0.05,true,hh,3094.2889999046456,response,0.8005752697082944,0.8501201243182136,-1.15,0.8062281749376046,0.8501201243182136,-1.15,high,high,,ISIC_9239632.JPG,,ISIC_0031104.JPG,33,46,false,0.1,hh,keypress(i),0,true,542452.7999999523,542452.5999999046,539341.781,539550.0999999046,539358.311,542275.174,1,40,16,
sequence,flow.Sequence,8_15,2023-11-30T15:45:27.832Z,,,,,,,,,,,3094.2889999046456,completion,,,,,,,high,high,,,,,,,false,,,,,true,542452.899999857,542452.5999999046,539341.781,539550,539358.311,542275.174,1,40,,
trial,html.Screen,8_16_0,2023-11-30T15:45:31.913Z,,,,2,0.0097091270150747,-0.0417921315885292,,0.05,true,ll,4259.125999952317,response,-1.0651492409820618,0.8501201243182136,-1.15,-1.1862499256725747,0.8501201243182136,-1.15,low,low,,ISIC_3967213.JPG,,ISIC_0065421.JPG,33,27,false,0.1,ll,keypress(f),0,true,546534.5999999046,546534.2999999523,542258.321,542453,542275.174,546358.8,1,40,17,
sequence,flow.Sequence,8_16,2023-11-30T15:45:31.914Z,,,,,,,,,,,4259.125999952317,completion,,,,,,,low,low,,,,,,,false,,,,,true,546535,546534.2999999523,542258.321,542452.899999857,542275.174,546358.8,1,40,,
trial,html.Screen,8_17_0,2023-11-30T15:45:38.743Z,,,,2,0.0362376068089956,0.047825070846155,,0.05,false,hl,7004.99999995227,response,0.7133243033950115,0.8501201243182136,-1.15,-0.9575090175925351,0.8501201243182136,-1.15,high,low,,ISIC_6985114.JPG,,ISIC_1369273.JPG,33,25,false,0.20000000000000007,ll,keypress(f),0,true,553364,553363.7999999523,546325.071,546535.1999998093,546358.8,553174.852,1,40,18,
sequence,flow.Sequence,8_17,2023-11-30T15:45:38.743Z,,,,,,,,,,,7004.99999995227,completion,,,,,,,high,low,,,,,,,false,,,,,true,553364.0999999046,553363.7999999523,546325.071,546535.0999999046,546358.8,553174.852,1,40,,
trial,html.Screen,8_18_0,2023-11-30T15:45:45.096Z,,,,2,0,0.0264544974620926,,0.05,false,lh,6541.84799980931,response,-0.9388660854518424,0.9001201243182136,-1.15,0.79533948698576,0.8501201243182136,-1.0218794716325548,low,high,,ISIC_0056991.JPG,,ISIC_9291926.JPG,33,26,false,0.2400000000000001,ll,keypress(f),0,true,559716.6999998093,559716.6999998093,553158.107,553364.1999998093,553174.852,559524.834,1,40,19,
sequence,flow.Sequence,8_18,2023-11-30T15:45:45.096Z,,,,,,,,,,,6541.84799980931,completion,,,,,,,low,high,,,,,,,false,,,,,true,559716.7999999523,559716.6999998093,553158.107,553364.1999998093,553174.852,559524.834,1,40,,
trial,html.Screen,8_19_0,2023-11-30T15:45:50.743Z,,,,2,0.0362376068089956,0.047825070846155,,0.05,false,lh,5839.565999856917,response,-0.8816288864119318,0.9001201243182136,-1.0125580055622085,0.801867301188093,0.9001201243182136,-1.0218794716325548,low,high,,ISIC_6985114.JPG,,ISIC_9196783.JPG,33,25,false,0.21000000000000008,ll,keypress(f),0,true,565364.5,565364.399999857,559507.995,559716.899999857,559524.834,565174.838,1,40,20,
sequence,flow.Sequence,8_19,2023-11-30T15:45:50.743Z,,,,,,,,,,,5839.565999856917,completion,,,,,,,low,high,,,,,,,false,,,,,true,565364.5999999046,565364.399999857,559507.995,559716.899999857,559524.834,565174.838,1,40,,
trial,html.Screen,8_20_0,2023-11-30T15:45:53.303Z,,,,2,-0.0363437082783146,-0.0333332186217051,,0.05,true,ll,2748.9619999523275,response,-1.0022982145596024,0.9001201243182136,-1.0125580055622085,-0.9703352077282876,0.9501201243182137,-1.0218794716325548,low,low,,ISIC_3314555.JPG,,ISIC_0011930.JPG,33,40,false,0.1,ll,keypress(f),0,true,567923.899999857,567923.7999999523,565158.109,565364.5999999046,565174.838,567741.536,1,40,21,
sequence,flow.Sequence,8_20,2023-11-30T15:45:53.303Z,,,,,,,,,,,2748.9619999523275,completion,,,,,,,low,low,,,,,,,false,,,,,true,567924,567923.7999999523,565158.109,565364.5999999046,565174.838,567741.536,1,40,,
trial,html.Screen,8_21_0,2023-11-30T15:45:57.343Z,,,,2,-0.0057914759495055,-0.0074667911845194,,0.05,true,ll,4222.763999952353,response,-0.9307420457704906,0.9001201243182136,-0.936316711143945,-1.0040662939937806,0.9501201243182137,-1.0218794716325548,low,low,,ISIC_0058723.JPG,,ISIC_4508878.JPG,33,41,false,0.1,ll,keypress(f),0,true,571964.399999857,571964.2999999523,567724.796,567924.0999999046,567741.536,571774.814,1,40,22,
sequence,flow.Sequence,8_21,2023-11-30T15:45:57.343Z,,,,,,,,,,,4222.763999952353,completion,,,,,,,low,low,,,,,,,false,,,,,true,571964.5,571964.2999999523,567724.796,567924.0999999046,567741.536,571774.814,1,40,,
trial,html.Screen,8_22_0,2023-11-30T15:46:01.408Z,,,,2,-0.0456515796420274,0.0273567130070961,,0.05,true,ll,4253.985999952303,response,-0.838482148534353,0.9001201243182136,-0.936316711143945,-0.8179691667073062,0.9501201243182137,-0.9174041698821356,low,low,,ISIC_0068610.JPG,,ISIC_0055079.JPG,33,38,false,0.1,ll,keypress(f),0,true,576028.899999857,576028.7999999523,571758.226,571964.5,571774.814,575841.484,1,40,23,
sequence,flow.Sequence,8_22,2023-11-30T15:46:01.408Z,,,,,,,,,,,4253.985999952303,completion,,,,,,,low,low,,,,,,,false,,,,,true,576029.0999999046,576028.7999999523,571758.226,571964.5,571774.814,575841.484,1,40,,
trial,html.Screen,8_23_0,2023-11-30T15:46:05.200Z,,,,2,-0.0027483411352856,-0.0100996915276271,,0.05,true,hh,3979.6159999045776,response,0.8329154010765664,0.9001201243182136,-0.7782256576208295,0.9000661178885296,0.9501201243182137,-0.9174041698821356,high,high,,ISIC_7364041.JPG,,ISIC_7407847.JPG,33,35,false,0.1,hh,keypress(i),0,true,579821.399999857,579821.0999999046,575824.959,576029.2999999523,575841.484,579641.616,1,40,24,
sequence,flow.Sequence,8_23,2023-11-30T15:46:05.201Z,,,,,,,,,,,3979.6159999045776,completion,,,,,,,high,high,,,,,,,false,,,,,true,579821.6999998093,579821.0999999046,575824.959,576029.1999998093,575841.484,579641.616,1,40,,
trial,html.Screen,8_24_0,2023-11-30T15:46:08.512Z,,,,2,-0.0389988030702649,-0.0143212271490256,,0.05,true,ll,3491.683999952278,response,-0.7340528070087442,0.9001201243182136,-0.7782256576208295,-0.940612217244614,0.9501201243182137,-0.9174041698821356,low,low,,ISIC_0064669.JPG,,ISIC_0031843.JPG,33,51,false,0.1,ll,keypress(f),0,true,583133.5,583133.2999999523,579624.754,579821.899999857,579641.616,582941.532,1,40,25,
sequence,flow.Sequence,8_24,2023-11-30T15:46:08.513Z,,,,,,,,,,,3491.683999952278,completion,,,,,,,low,low,,,,,,,false,,,,,true,583134,583133.2999999523,579624.754,579821.899999857,579641.616,582941.532,1,40,,
trial,html.Screen,8_25_0,2023-11-30T15:46:17.247Z,,,,2,0.000047919190197942736,0.0462652940855003,,0.05,false,hh,8926.567999904626,response,0.8763527075016911,0.9001201243182136,-0.7782256576208295,0.8957887978691169,0.9501201243182137,-0.787332512126679,high,high,,ISIC_0011507.JPG,,ISIC_8943906.JPG,33,35,false,0.1,lh,keypress(e),0,true,591868.0999999046,591868.0999999046,582924.782,583134.1999998093,582941.532,591691.849,1,40,26,
sequence,flow.Sequence,8_25,2023-11-30T15:46:17.247Z,,,,,,,,,,,8926.567999904626,completion,,,,,,,high,high,,,,,,,false,,,,,true,591868.2999999523,591868.0999999046,582924.782,583134.0999999046,582941.532,591691.849,1,40,,
trial,html.Screen,8_26_0,2023-11-30T15:46:25.395Z,,,,2,-0.0070725527271049,-0.0049995141077508,,0.05,false,ll,8321.650999999954,response,-0.7902359375375733,0.9501201243182137,-0.7782256576208295,-0.8607451825540537,0.9001201243182136,-0.787332512126679,low,low,,ISIC_6124481.JPG,,ISIC_0899961.JPG,33,59,false,0.1,hl,keypress(j),0,true,600013.6999998093,600013.5,591658.062,591868.2999999523,591691.849,599824.727,1,40,27,
sequence,flow.Sequence,8_26,2023-11-30T15:46:25.395Z,,,,,,,,,,,8321.650999999954,completion,,,,,,,low,low,,,,,,,false,,,,,true,600014.0999999046,600013.5,591658.062,591868.2999999523,591691.849,599824.727,1,40,,
trial,html.Screen,8_27_0,2023-11-30T15:46:31.012Z,,,,2,0.0113873532168551,0.0054999201556291,,0.05,false,lh,5805.572999952361,response,-0.9235571765207048,0.9501201243182137,-0.8282256576208296,1.0008081653938232,0.9001201243182136,-0.787332512126679,low,high,,ISIC_8812621.JPG,,ISIC_8796632.JPG,33,27,false,0.15000000000000002,hh,keypress(i),0,true,605630.5,605630.2999999523,599807.837,600014.399999857,599824.727,605441.406,1,40,28,
sequence,flow.Sequence,8_27,2023-11-30T15:46:31.012Z,,,,,,,,,,,5805.572999952361,completion,,,,,,,low,high,,,,,,,false,,,,,true,605631,605630.2999999523,599807.837,600014.2999999523,599824.727,605441.406,1,40,,
trial,html.Screen,8_28_0,2023-11-30T15:46:34.730Z,,,,2,0.0051189696037511,-0.0396625911332438,,0.05,false,hh,3907.793999809306,response,1.007248440493079,0.9501201243182137,-0.8782256576208296,0.8493817247965978,0.9001201243182136,-0.787332512126679,high,high,,ISIC_9742891.JPG,,ISIC_0030219.JPG,33,44,false,0.1,ll,keypress(f),0,true,609349.399999857,609349.1999998093,605424.75,605631.0999999046,605441.406,609158.132,1,40,29,
sequence,flow.Sequence,8_28,2023-11-30T15:46:34.731Z,,,,,,,,,,,3907.793999809306,completion,,,,,,,high,high,,,,,,,false,,,,,true,609349.7999999523,609349.1999998093,605424.75,605631.0999999046,605441.406,609158.132,1,40,,
trial,html.Screen,8_29_0,2023-11-30T15:46:37.194Z,,,,2,-0.0070725527271049,-0.0049995141077508,,0.05,false,hl,2654.3680000000168,response,1.0396927560986136,1.0001201243182136,-0.8782256576208296,-0.6700895381759688,0.9501201243182137,-0.787332512126679,high,low,,ISIC_6124481.JPG,,ISIC_0066149.JPG,33,27,false,0.15000000000000002,hh,keypress(i),0,true,611812.5999999046,611812.5,609141.551,609350.0999999046,609158.132,611624.767,1,40,30,
sequence,flow.Sequence,8_29,2023-11-30T15:46:37.194Z,,,,,,,,,,,2654.3680000000168,completion,,,,,,,high,low,,,,,,,false,,,,,true,611812.6999998093,611812.5,609141.551,609350,609158.132,611624.767,1,40,,
trial,html.Screen,8_30_0,2023-11-30T15:46:46.123Z,,,,2,0.0188047466661863,-0.0288346930436979,,0.05,false,ll,9117.132999856956,response,-0.9152802917888962,1.0001201243182136,-0.8782256576208296,-0.8414601987949015,0.9501201243182137,-0.837332512126679,low,low,,ISIC_0014157.JPG,,ISIC_0060341.JPG,33,49,false,0.1,hl,keypress(j),0,true,620742.1999998093,620741.899999857,611607.985,611812.6999998093,611624.767,620558.032,1,40,31,
sequence,flow.Sequence,8_30,2023-11-30T15:46:46.124Z,,,,,,,,,,,9117.132999856956,completion,,,,,,,low,low,,,,,,,false,,,,,true,620742.5999999046,620741.899999857,611607.985,611812.6999998093,611624.767,620558.032,1,40,,
trial,html.Screen,8_31_0,2023-11-30T15:46:49.563Z,,,,2,-0.0070725527271049,-0.0049995141077508,,0.05,false,hl,3623.2679999523098,response,0.858338058340649,1.0001201243182136,-0.9282256576208296,-0.9540612223480284,0.9501201243182137,-0.837332512126679,high,low,,ISIC_6124481.JPG,,ISIC_8922893.JPG,33,25,false,0.17000000000000004,hh,keypress(i),0,true,624181.5999999046,624181.2999999523,620541.201,620742.7999999523,620558.032,623991.356,1,40,32,
sequence,flow.Sequence,8_31,2023-11-30T15:46:49.563Z,,,,,,,,,,,3623.2679999523098,completion,,,,,,,high,low,,,,,,,false,,,,,true,624182,624181.2999999523,620541.201,620742.6999998093,620558.032,623991.356,1,40,,
trial,html.Screen,8_32_0,2023-11-30T15:46:53.243Z,,,,2,-0.0057914759495055,-0.0074667911845194,,0.05,false,hl,3869.8439998092363,response,1.0865333402803938,0.9501201243182136,-0.9282256576208296,-1.0542635307358266,0.9501201243182137,-0.8873325121266791,high,low,,ISIC_0058723.JPG,,ISIC_0034006.JPG,33,27,false,0.17000000000000004,ll,keypress(f),0,true,627861.5,627861.1999998093,623974.635,624182.1999998093,623991.356,627674.674,1,40,33,
sequence,flow.Sequence,8_32,2023-11-30T15:46:53.243Z,,,,,,,,,,,3869.8439998092363,completion,,,,,,,high,low,,,,,,,false,,,,,true,627861.899999857,627861.1999998093,623974.635,624182,623991.356,627674.674,1,40,,
trial,html.Screen,8_33_0,2023-11-30T15:46:55.459Z,,,,2,0.0159061451859594,0.0296598845560212,,0.05,false,hl,2402.826000000001,response,0.858338058340649,1.0001201243182136,-0.9282256576208296,-0.9540612223480284,0.9501201243182137,-0.8873325121266791,high,low,,ISIC_0072564.JPG,,ISIC_8922893.JPG,33,25,false,0.18000000000000005,hh,keypress(i),0,true,630077.6999998093,630077.5,627658.202,627862.0999999046,627674.674,629891.315,1,40,34,
sequence,flow.Sequence,8_33,2023-11-30T15:46:55.459Z,,,,,,,,,,,2402.826000000001,completion,,,,,,,high,low,,,,,,,false,,,,,true,630078.0999999046,630077.5,627658.202,627862,627674.674,629891.315,1,40,,
trial,html.Screen,8_34_0,2023-11-30T15:46:57.665Z,,,,2,-0.0456515796420274,0.0273567130070961,,0.05,false,lh,2392.484999952372,response,-0.809764442462202,1.0001201243182136,-0.9282256576208296,1.005337148078696,0.9501201243182137,-0.9373325121266791,low,high,,ISIC_0068610.JPG,,ISIC_2379379.JPG,33,25,false,0.19000000000000006,hh,keypress(i),0,true,632284,632283.7999999523,629874.857,630078.2999999523,629891.315,632091.334,1,40,35,
sequence,flow.Sequence,8_34,2023-11-30T15:46:57.665Z,,,,,,,,,,,2392.484999952372,completion,,,,,,,low,high,,,,,,,false,,,,,true,632284.0999999046,632283.7999999523,629874.857,630078.1999998093,629891.315,632091.334,1,40,,
trial,html.Screen,8_35_0,2023-11-30T15:47:01.353Z,,,,2,0.013431314305098,-0.0140597582944232,,0.05,false,hl,3880.1659999999683,response,0.8541581294181414,1.0001201243182136,-0.9782256576208297,-0.7637475587255248,0.9501201243182137,-0.9373325121266791,high,low,,ISIC_0069617.JPG,,ISIC_0014782.JPG,33,26,false,0.20000000000000007,ll,keypress(f),0,true,635971.5999999046,635971.5,632074.797,632284.0999999046,632091.334,635791.352,1,40,36,
sequence,flow.Sequence,8_35,2023-11-30T15:47:01.353Z,,,,,,,,,,,3880.1659999999683,completion,,,,,,,high,low,,,,,,,false,,,,,true,635971.7999999523,635971.5,632074.797,632284.0999999046,632091.334,635791.352,1,40,,
trial,html.Screen,8_36_0,2023-11-30T15:47:03.179Z,,,,2,-0.0456515796420274,0.0273567130070961,,0.05,false,hl,2006.6480000000447,response,0.9644643328174062,1.0501201243182137,-0.9782256576208297,-0.745333984830218,0.9501201243182137,-0.9373325121266791,high,low,,ISIC_0068610.JPG,,ISIC_0058046.JPG,33,26,false,0.20000000000000007,hh,keypress(i),0,true,637798.1999998093,637798,635774.832,635971.7999999523,635791.352,637607.984,1,40,37,
sequence,flow.Sequence,8_36,2023-11-30T15:47:03.180Z,,,,,,,,,,,2006.6480000000447,completion,,,,,,,high,low,,,,,,,false,,,,,true,637798.6999998093,637798,635774.832,635971.7999999523,635791.352,637607.984,1,40,,
trial,html.Screen,8_37_0,2023-11-30T15:47:05.417Z,,,,2,0.0348234368746005,-0.0236866303880924,,0.05,true,hh,2428.015999999945,response,1.056824784611021,1.0501201243182137,-0.9782256576208297,0.8736902702135552,0.9501201243182137,-0.9873325121266792,high,high,,ISIC_0011099.JPG,,ISIC_0014026.JPG,33,38,false,0.1,hh,keypress(i),0,true,640036.0999999046,640036,637591.531,637798.7999999523,637607.984,639858.198,1,40,38,
sequence,flow.Sequence,8_37,2023-11-30T15:47:05.417Z,,,,,,,,,,,2428.015999999945,completion,,,,,,,high,high,,,,,,,false,,,,,true,640036.0999999046,640036,637591.531,637798.7999999523,637607.984,639858.198,1,40,,
trial,html.Screen,8_38_0,2023-11-30T15:47:08.001Z,,,,2,-0.007397293189458,-0.0174716772037504,,0.05,false,lh,2761.802000000025,response,-1.0748728054622358,0.8690773015154807,-0.9782256576208297,0.6883893701485907,0.8690773015154807,-0.9873325121266792,low,high,,ISIC_0056226.JPG,,ISIC_0059219.JPG,33,28,false,0.19000000000000006,hh,keypress(i),0,true,642620.0999999046,642620,639841.527,640036.1999998093,639858.198,642441.324,1,40,39,
sequence,flow.Sequence,8_38,2023-11-30T15:47:08.001Z,,,,,,,,,,,2761.802000000025,completion,,,,,,,low,high,,,,,,,false,,,,,true,642620.2999999523,642620,639841.527,640036.1999998093,639858.198,642441.324,1,40,,
trial,html.Screen,8_39_0,2023-11-30T15:47:11.083Z,,,,2,0.013431314305098,-0.0140597582944232,,0.05,true,ll,3259.975999952294,response,-0.9476874253010668,0.8690773015154807,-1.0282256576208297,-1.0189744362243829,0.8690773015154807,-0.9873325121266792,low,low,,ISIC_0069617.JPG,,ISIC_0033878.JPG,33,34,false,0.1,ll,keypress(f),0,true,645701.5,645701.2999999523,642424.825,642620.2999999523,642441.324,645524.78,1,40,40,
sequence,flow.Sequence,8_39,2023-11-30T15:47:11.083Z,,,,,,,,,,,3259.975999952294,completion,,,,,,,low,low,,,,,,,false,,,,,true,645701.899999857,645701.2999999523,642424.825,642620.2999999523,642441.324,645524.78,1,40,,
stair_loop,flow.Loop,8,2023-11-30T15:47:11.083Z,,,,,,,,,,,196909.4599999523,completion,,,,,,,,,,,,,,,false,,,,,true,645702.1999998093,645701.2999999523,448775.457,448980.19999980927,448791.84,645524.78,1,40,,
exp_instructions,html.Screen,9,2023-11-30T15:47:33.835Z,,,,,,,,,,,22927.319999904605,response,,,,,,,,,,,,,,,,,continue,keypress(Space),,,668452.5,668452.0999999046,645507.902,645702.2999999523,645524.78,668274.626,,,,
trial,html.Screen,10_0_0,2023-11-30T15:47:36.733Z,,,,1,-0.0085520978188085,0.0464691161264081,,0.05,false,hl,3075.673999952269,response,0.8487429103619056,0.9520158420379403,-0.9057513803702101,-0.9778257804233036,0.9345158420379407,-0.8977979567405849,high,low,,ISIC_0758797.JPG,8,ISIC_4554863.JPG,33,26,false,0.17000000000000004,hh,keypress(i),0,false,671350.5999999046,671350.2999999523,668257.293,668452.5,668274.626,671175.136,5,600,1,
break,html.Screen,10_0_1,2023-11-30T15:47:36.735Z,,,,,,,,,,,NaN,,,,,,,,high,low,,,,,,,false,,,,,false,671351.899999857,671351.5,,671350.899999857,,671175.136,5,600,,
break_continue,html.Screen,10_0_2,2023-11-30T15:47:36.736Z,,,,,,,,,,,NaN,,,,,,,,high,low,,,,,,,false,,,,,false,671352.7999999523,671352.399999857,,671352.0999999046,,671175.136,5,600,,
sequence,flow.Sequence,10_0,2023-11-30T15:47:36.736Z,,,,,,,,,,,3077.7739998569014,completion,,,,,,,high,low,,,,,,,false,,,,,false,671353.0999999046,671352.399999857,668257.293,668452.5,668274.626,671175.136,5,600,,
trial,html.Screen,10_1_0,2023-11-30T15:47:38.619Z,,,,1,0.0102460616775615,-0.0309670599545429,,0.05,false,lh,2060.863999999943,response,-0.7638895244791114,0.9520158420379403,-0.9057513803702101,0.7780412100090998,0.9345158420379407,-0.8977979567405849,low,high,,ISIC_0072041.JPG,9,ISIC_0026516.JPG,33,25,false,0.16000000000000003,hh,keypress(i),0,false,673236.0999999046,673236,671141.438,671353.2999999523,671175.136,673058.106,5,600,2,
break,html.Screen,10_1_1,2023-11-30T15:47:38.619Z,,,,,,,,,,,NaN,,,,,,,,low,high,,,,,,,false,,,,,false,673236.399999857,673236.2999999523,,673236.1999998093,,673058.106,5,600,,
break_continue,html.Screen,10_1_2,2023-11-30T15:47:38.620Z,,,,,,,,,,,NaN,,,,,,,,low,high,,,,,,,false,,,,,false,673236.5999999046,673236.5999999046,,673236.5,,673058.106,5,600,,
sequence,flow.Sequence,10_1,2023-11-30T15:47:38.620Z,,,,,,,,,,,2061.4639999045758,completion,,,,,,,low,high,,,,,,,false,,,,,false,673236.5999999046,673236.5999999046,671141.438,671353.2999999523,671175.136,673058.106,5,600,,
trial,html.Screen,10_2_0,2023-11-30T15:47:41.203Z,,,,1,0,0.0264544974620926,,0.05,false,lh,2761.9939999046037,response,-0.8655167308525522,0.9520158420379403,-0.9057513803702101,0.9298580423306444,0.9345158420379407,-0.8977979567405849,low,high,,ISIC_0056991.JPG,9,ISIC_4603706.JPG,33,25,false,0.16000000000000003,hh,keypress(i),0,false,675820.1999998093,675820.0999999046,673041.307,673236.6999998093,673058.106,675641.489,5,600,3,
break,html.Screen,10_2_1,2023-11-30T15:47:41.203Z,,,,,,,,,,,NaN,,,,,,,,low,high,,,,,,,false,,,,,false,675820.5,675820.5,,675820.2999999523,,675641.489,5,600,,
break_continue,html.Screen,10_2_2,2023-11-30T15:47:41.204Z,,,,,,,,,,,NaN,,,,,,,,low,high,,,,,,,false,,,,,false,675820.6999998093,675820.6999998093,,675820.5999999046,,675641.489,5,600,,
sequence,flow.Sequence,10_2,2023-11-30T15:47:41.204Z,,,,,,,,,,,2762.5939998092363,completion,,,,,,,low,high,,,,,,,false,,,,,false,675820.7999999523,675820.6999998093,673041.307,673236.6999998093,673058.106,675641.489,5,600,,
trial,html.Screen,10_3_0,2023-11-30T15:47:49.628Z,,,,1,-0.0389988030702649,-0.0143212271490256,,0.05,true,lh,8603.410999857006,response,-0.7723849213858904,0.9520158420379403,-0.9057513803702101,0.888372424147899,0.9345158420379407,-0.8977979567405849,low,high,,ISIC_0064669.JPG,10,ISIC_3884221.JPG,33,25,false,0.16000000000000003,lh,keypress(e),0,false,684245,684244.899999857,675624.688,675820.7999999523,675641.489,684057.839,5,600,4,
break,html.Screen,10_3_1,2023-11-30T15:47:49.629Z,,,,,,,,,,,NaN,,,,,,,,low,high,,,,,,,false,,,,,false,684245.899999857,684245.5999999046,,684245.2999999523,,684057.839,5,600,,
break_continue,html.Screen,10_3_2,2023-11-30T15:47:49.629Z,,,,,,,,,,,NaN,,,,,,,,low,high,,,,,,,false,,,,,false,684246.2999999523,684246.1999998093,,684246,,684057.839,5,600,,
sequence,flow.Sequence,10_3,2023-11-30T15:47:49.629Z,,,,,,,,,,,8604.710999809322,completion,,,,,,,low,high,,,,,,,false,,,,,false,684246.5,684246.1999998093,675624.688,675820.7999999523,675641.489,684057.839,5,600,,
trial,html.Screen,10_4_0,2023-11-30T15:47:53.637Z,,,,1,0.0051189696037511,-0.0396625911332438,,0.05,true,ll,4195.860999809229,response,-0.9012711689442632,0.9520158420379403,-0.9057513803702101,-0.8639942067158306,0.9345158420379407,-0.8977979567405849,low,low,,ISIC_9742891.JPG,8,ISIC_0032718.JPG,33,45,false,0.1,ll,keypress(f),0,false,688254.0999999046,688253.6999998093,684041.364,684246.6999998093,684057.839,688074.58,5,600,5,
break,html.Screen,10_4_1,2023-11-30T15:47:53.638Z,,,,,,,,,,,NaN,,,,,,,,low,low,,,,,,,false,,,,,false,688255,688254.7999999523,,688254.2999999523,,688074.58,5,600,,
break_continue,html.Screen,10_4_2,2023-11-30T15:47:53.638Z,,,,,,,,,,,NaN,,,,,,,,low,low,,,,,,,false,,,,,false,688255.5,688255.399999857,,688255.1999998093,,688074.58,5,600,,
sequence,flow.Sequence,10_4,2023-11-30T15:47:53.639Z,,,,,,,,,,,4197.5609998569125,completion,,,,,,,low,low,,,,,,,false,,,,,false,688255.7999999523,688255.399999857,684041.364,684246.6999998093,684057.839,688074.58,5,600,,
trial,html.Screen,10_5_0,2023-11-30T15:48:00.179Z,,,,1,0.0113873532168551,0.0054999201556291,,0.05,false,hl,6721.619999809307,response,0.9454713230140772,0.9520158420379403,-0.9057513803702101,-0.9245167441969216,0.9345158420379407,-0.8977979567405849,high,low,,ISIC_8812621.JPG,9,ISIC_9101055.JPG,33,26,false,0.17000000000000004,ll,keypress(f),0,false,694796.2999999523,694796.1999998093,688057.92,688256,688074.58,694607.822,5,600,6,
break,html.Screen,10_5_1,2023-11-30T15:48:00.180Z,,,,,,,,,,,NaN,,,,,,,,high,low,,,,,,,false,,,,,false,694796.5999999046,694796.5,,694796.399999857,,694607.822,5,600,,
break_continue,html.Screen,10_5_2,2023-11-30T15:48:00.180Z,,,,,,,,,,,NaN,,,,,,,,high,low,,,,,,,false,,,,,false,694796.7999999523,694796.6999998093,,694796.6999998093,,694607.822,5,600,,
sequence,flow.Sequence,10_5,2023-11-30T15:48:00.180Z,,,,,,,,,,,6722.119999809307,completion,,,,,,,high,low,,,,,,,false,,,,,false,694796.899999857,694796.6999998093,688057.92,688255.899999857,688074.58,694607.822,5,600,,
trial,html.Screen,10_6_0,2023-11-30T15:48:09.644Z,,,,1,0.0245376145053177,-0.0436993426328401,,0.05,true,ll,9653.077999856905,response,-0.9106525024234248,0.9520158420379403,-0.9057513803702101,-0.944391889009556,0.9345158420379407,-0.8977979567405849,low,low,,ISIC_0056444.JPG,9,ISIC_0058676.JPG,33,45,false,0.1,ll,keypress(f),0,false,704261.1999998093,704260.899999857,694591.369,694796.899999857,694607.822,704074.47,5,600,7,
break,html.Screen,10_6_1,2023-11-30T15:48:09.645Z,,,,,,,,,,,NaN,,,,,,,,low,low,,,,,,,false,,,,,false,704262.0999999046,704261.7999999523,,704261.5,,704074.47,5,600,,
break_continue,html.Screen,10_6_2,2023-11-30T15:48:09.646Z,,,,,,,,,,,NaN,,,,,,,,low,low,,,,,,,false,,,,,false,704262.6999998093,704262.399999857,,704262.2999999523,,704074.47,5,600,,
sequence,flow.Sequence,10_6,2023-11-30T15:48:09.646Z,,,,,,,,,,,9654.577999856905,completion,,,,,,,low,low,,,,,,,false,,,,,false,704262.899999857,704262.399999857,694591.369,694796.899999857,694607.822,704074.47,5,600,,
trial,html.Screen,10_7_0,2023-11-30T15:48:11.525Z,,,,1,-0.0057914759495055,-0.0074667911845194,,0.05,false,hl,2067.6299999046605,response,0.9579209317488,0.9520158420379403,-0.9057513803702101,-1.0147487101263497,0.9345158420379407,-0.8977979567405849,high,low,,ISIC_0058723.JPG,9,ISIC_8124482.JPG,33,26,false,0.17000000000000004,hh,keypress(i),0,false,706142.5,706142.0999999046,704057.718,704263,704074.47,705957.795,5,600,8,
break,html.Screen,10_7_1,2023-11-30T15:48:11.526Z,,,,,,,,,,,NaN,,,,,,,,high,low,,,,,,,false,,,,,false,706143.399999857,706143.1999998093,,706142.7999999523,,705957.795,5,600,,
break_continue,html.Screen,10_7_2,2023-11-30T15:48:11.527Z,,,,,,,,,,,NaN,,,,,,,,high,low,,,,,,,false,,,,,false,706143.899999857,706143.7999999523,,706143.5999999046,,705957.795,5,600,,
sequence,flow.Sequence,10_7,2023-11-30T15:48:11.527Z,,,,,,,,,,,2069.329999952344,completion,,,,,,,high,low,,,,,,,false,,,,,false,706144.1999998093,706143.7999999523,704057.718,704263,704074.47,705957.795,5,600,,
trial,html.Screen,10_8_0,2023-11-30T15:48:14.252Z,,,,1,0.0112310719058792,-0.0469047359904117,,0.05,false,hl,2911.204999999958,response,0.8277658066009654,0.9520158420379403,-0.9057513803702101,-0.7390449930107234,0.9345158420379407,-0.8977979567405849,high,low,,ISIC_0068184.JPG,9,ISIC_0033168.JPG,33,26,false,0.17000000000000004,ll,keypress(f),0,false,708869.1999998093,708869,705941.293,706144.399999857,705957.795,708691.415,5,600,9,
break,html.Screen,10_8_1,2023-11-30T15:48:14.253Z,,,,,,,,,,,NaN,,,,,,,,high,low,,,,,,,false,,,,,false,708869.7999999523,708869.6999998093,,708869.399999857,,708691.415,5,600,,
break_continue,html.Screen,10_8_2,2023-11-30T15:48:14.253Z,,,,,,,,,,,NaN,,,,,,,,high,low,,,,,,,false,,,,,false,708870.2999999523,708870.0999999046,,708870,,708691.415,5,600,,
sequence,flow.Sequence,10_8,2023-11-30T15:48:14.253Z,,,,,,,,,,,2912.3049999045907,completion,,,,,,,high,low,,,,,,,false,,,,,false,708870.5,708870.0999999046,705941.293,706144.2999999523,705957.795,708691.415,5,600,,
trial,html.Screen,10_9_0,2023-11-30T15:48:19.628Z,,,,1,0.0097091270150747,-0.0417921315885292,,0.05,false,hh,5553.584999999963,response,1.0275060871969903,0.9520158420379403,-0.9057513803702101,0.8666323445825409,0.9345158420379407,-0.8977979567405849,high,high,,ISIC_3967213.JPG,9,ISIC_9155028.JPG,33,45,false,0.1,ll,keypress(f),0,false,714245.1999998093,714245,708674.626,708870.5999999046,708691.415,714057.807,5,600,10,
break,html.Screen,10_9_1,2023-11-30T15:48:19.629Z,,,,,,,,,,,NaN,,,,,,,,high,high,,,,,,,false,,,,,false,714246.1999998093,714246,,714245.5999999046,,714057.807,5,600,,
break_continue,html.Screen,10_9_2,2023-11-30T15:48:19.630Z,,,,,,,,,,,NaN,,,,,,,,high,high,,,,,,,false,,,,,false,714246.7999999523,714246.5999999046,,714246.2999999523,,714057.807,5,600,,
sequence,flow.Sequence,10_9,2023-11-30T15:48:19.630Z,,,,,,,,,,,5555.184999904595,completion,,,,,,,high,high,,,,,,,false,,,,,false,714247,714246.5999999046,708674.626,708870.5,708691.415,714057.807,5,600,,
trial,html.Screen,10_10_0,2023-11-30T15:48:22.468Z,,,,1,-0.0217698886732706,0.0410870915161425,,0.05,false,hl,3027.3929998092353,response,0.9433720631499012,0.9520158420379403,-0.9057513803702101,-1.0582071940347648,0.9345158420379407,-0.8977979567405849,high,low,,ISIC_0072173.JPG,9,ISIC_4890201.JPG,33,26,false,0.17000000000000004,ll,keypress(f),0,false,717085.5,717085.1999998093,714041.185,714247.1999998093,714057.807,716907.905,5,600,11,
break,html.Screen,10_10_1,2023-11-30T15:48:22.469Z,,,,,,,,,,,NaN,,,,,,,,high,low,,,,,,,false,,,,,false,717086.2999999523,717086.1999998093,,717085.6999998093,,716907.905,5,600,,
break_continue,html.Screen,10_10_2,2023-11-30T15:48:22.470Z,,,,,,,,,,,NaN,,,,,,,,high,low,,,,,,,false,,,,,false,717086.899999857,717086.6999998093,,717086.5,,716907.905,5,600,,
sequence,flow.Sequence,10_10,2023-11-30T15:48:22.470Z,,,,,,,,,,,3028.8929998092353,completion,,,,,,,high,low,,,,,,,false,,,,,false,717087.0999999046,717086.6999998093,714041.185,714247.1999998093,714057.807,716907.905,5,600,,
trial,html.Screen,10_11_0,2023-11-30T15:48:26.203Z,,,,1,-0.039728379742806,0.0228701131373768,,0.05,false,hl,3912.094999999972,response,0.8487429103619056,0.9520158420379403,-0.9057513803702101,-0.9778257804233036,0.9345158420379407,-0.8977979567405849,high,low,,ISIC_0054073.JPG,8,ISIC_4554863.JPG,33,26,false,0.17000000000000004,hh,keypress(i),0,false,720820.0999999046,720820,716891.327,717087.2999999523,716907.905,720641.339,5,600,12,
break,html.Screen,10_11_1,2023-11-30T15:48:26.203Z,,,,,,,,,,,NaN,,,,,,,,high,low,,,,,,,false,,,,,false,720820.399999857,720820.2999999523,,720820.1999998093,,720641.339,5,600,,
break_continue,html.Screen,10_11_2,2023-11-30T15:48:26.204Z,,,,,,,,,,,NaN,,,,,,,,high,low,,,,,,,false,,,,,false,720820.5999999046,720820.5999999046,,720820.399999857,,720641.339,5,600,,
sequence,flow.Sequence,10_11,2023-11-30T15:48:26.204Z,,,,,,,,,,,3912.6949999046046,completion,,,,,,,high,low,,,,,,,false,,,,,false,720820.5999999046,720820.5999999046,716891.327,717087.1999998093,716907.905,720641.339,5,600,,
trial,html.Screen,10_12_0,2023-11-30T15:48:29.901Z,,,,1,-0.0116094682222121,0.0258434522530318,,0.05,true,ll,3876.860999809229,response,-0.9866439901618108,0.9520158420379403,-0.9057513803702101,-0.9294281370493894,0.9345158420379407,-0.8977979567405849,low,low,,ISIC_9239632.JPG,8,ISIC_0072953.JPG,33,45,false,0.1,ll,keypress(f),0,false,724518.399999857,724518.1999998093,720624.541,720820.6999998093,720641.339,724357.779,5,600,13,
break,html.Screen,10_12_1,2023-11-30T15:48:29.902Z,,,,,,,,,,,NaN,,,,,,,,low,low,,,,,,,false,,,,,false,724519.2999999523,724519.0999999046,,724518.6999998093,,724357.779,5,600,,
break_continue,html.Screen,10_12_2,2023-11-30T15:48:29.903Z,,,,,,,,,,,NaN,,,,,,,,low,low,,,,,,,false,,,,,false,724519.7999999523,724519.5999999046,,724519.399999857,,724357.779,5,600,,
sequence,flow.Sequence,10_12,2023-11-30T15:48:29.903Z,,,,,,,,,,,3878.2609999045962,completion,,,,,,,low,low,,,,,,,false,,,,,false,724520,724519.5999999046,720624.541,720820.6999998093,720641.339,724357.779,5,600,,
trial,html.Screen,10_13_0,2023-11-30T15:48:33.292Z,,,,1,0,0.0264544974620926,,0.05,true,hh,3551.2210000000196,response,1.0393236111814752,0.9520158420379403,-0.9057513803702101,0.850194793725365,0.9345158420379407,-0.8977979567405849,high,high,,ISIC_0056991.JPG,9,ISIC_8427534.JPG,33,45,false,0.1,hh,keypress(i),0,false,727909.2999999523,727909,724341.226,724520.1999998093,724357.779,727724.384,5,600,14,
break,html.Screen,10_13_1,2023-11-30T15:48:33.293Z,,,,,,,,,,,NaN,,,,,,,,high,high,,,,,,,false,,,,,false,727910.1999998093,727909.899999857,,727909.5999999046,,727724.384,5,600,,
break_continue,html.Screen,10_13_2,2023-11-30T15:48:33.294Z,,,,,,,,,,,NaN,,,,,,,,high,high,,,,,,,false,,,,,false,727910.6999998093,727910.5,,727910.399999857,,727724.384,5,600,,
sequence,flow.Sequence,10_13,2023-11-30T15:48:33.294Z,,,,,,,,,,,3552.7210000000196,completion,,,,,,,high,high,,,,,,,false,,,,,false,727911,727910.5,724341.226,724520.1999998093,724357.779,727724.384,5,600,,
trial,html.Screen,10_14_0,2023-11-30T15:48:35.111Z,,,,1,0.0188047466661863,-0.0288346930436979,,0.05,true,hh,2000.8159998093033,response,0.9872117590837104,0.9520158420379403,-0.9057513803702101,0.8387342204487216,0.9345158420379407,-0.8977979567405849,high,high,,ISIC_0014157.JPG,11,ISIC_4539674.JPG,33,45,false,0.1,hh,keypress(i),0,false,729725.5,729725.1999998093,727707.933,727911.1999998093,727724.384,729541.133,5,600,15,
break,html.Screen,10_14_1,2023-11-30T15:48:35.112Z,,,,,,,,,,,NaN,,,,,,,,high,high,,,,,,,false,,,,,false,729726.5,729726.2999999523,,729725.7999999523,,729541.133,5,600,,
break_continue,html.Screen,10_14_2,2023-11-30T15:48:35.113Z,,,,,,,,,,,NaN,,,,,,,,high,high,,,,,,,false,,,,,false,729727.0999999046,729726.899999857,,729726.6999998093,,729541.133,5,600,,
sequence,flow.Sequence,10_14,2023-11-30T15:48:35.113Z,,,,,,,,,,,2002.515999856987,completion,,,,,,,high,high,,,,,,,false,,,,,false,729727.399999857,729726.899999857,727707.933,727911.0999999046,727724.384,729541.133,5,600,,
trial,html.Screen,10_15_0,2023-11-30T15:48:36.967Z,,,,1,0.0159061451859594,0.0296598845560212,,0.05,false,lh,2039.7669998569181,response,-0.7911024675435955,0.9520158420379403,-0.9057513803702101,0.7975977016137676,0.9345158420379407,-0.8977979567405849,low,high,,ISIC_0072564.JPG,9,ISIC_5813642.JPG,33,25,false,0.16000000000000003,hh,keypress(i),0,false,731581.1999998093,731580.899999857,729524.625,729727.5999999046,729541.133,731391.058,5,600,16,
break,html.Screen,10_15_1,2023-11-30T15:48:36.968Z,,,,,,,,,,,NaN,,,,,,,,low,high,,,,,,,false,,,,,false,731582.1999998093,731581.899999857,,731581.5,,731391.058,5,600,,
break_continue,html.Screen,10_15_2,2023-11-30T15:48:36.968Z,,,,,,,,,,,NaN,,,,,,,,low,high,,,,,,,false,,,,,false,731582.6999998093,731582.5,,731582.2999999523,,731391.058,5,600,,
sequence,flow.Sequence,10_15,2023-11-30T15:48:36.969Z,,,,,,,,,,,2041.3669999999693,completion,,,,,,,low,high,,,,,,,false,,,,,false,731582.899999857,731582.5,729524.625,729727.5,729541.133,731391.058,5,600,,
trial,html.Screen,10_16_0,2023-11-30T15:48:38.822Z,,,,1,0.0113873532168551,0.0054999201556291,,0.05,true,hh,2045.1419998093043,response,1.0375203228848855,0.9520158420379403,-0.9057513803702101,0.9394358755892184,0.9345158420379407,-0.8977979567405849,high,high,,ISIC_8812621.JPG,8,ISIC_4264600.JPG,33,45,false,0.1,hh,keypress(i),0,false,733436.399999857,733436.1999998093,731374.594,731583.0999999046,731391.058,733257.924,5,600,17,
break,html.Screen,10_16_1,2023-11-30T15:48:38.822Z,,,,,,,,,,,NaN,,,,,,,,high,high,,,,,,,false,,,,,false,733436.5999999046,733436.5999999046,,733436.399999857,,733257.924,5,600,,
break_continue,html.Screen,10_16_2,2023-11-30T15:48:38.822Z,,,,,,,,,,,NaN,,,,,,,,high,high,,,,,,,false,,,,,false,733436.6999998093,733436.6999998093,,733436.5999999046,,733257.924,5,600,,
sequence,flow.Sequence,10_16,2023-11-30T15:48:38.823Z,,,,,,,,,,,2045.6419998093043,completion,,,,,,,high,high,,,,,,,false,,,,,false,733436.899999857,733436.6999998093,731374.594,731583,731391.058,733257.924,5,600,,
trial,html.Screen,10_17_0,2023-11-30T15:48:43.182Z,,,,1,0.0409338693593207,-0.0072462710499874,,0.05,false,lh,4537.97599985695,response,-0.948927472020595,0.9520158420379403,-0.9057513803702101,1.0660437155921598,0.9345158420379407,-0.8977979567405849,low,high,,ISIC_3608788.JPG,10,ISIC_5808758.JPG,33,25,false,0.16000000000000003,ll,keypress(f),0,false,737796,737795.899999857,733241.186,733436.899999857,733257.924,737607.83,5,600,18,
break,html.Screen,10_17_1,2023-11-30T15:48:43.182Z,,,,,,,,,,,NaN,,,,,,,,low,high,,,,,,,false,,,,,false,737796.2999999523,737796.1999998093,,737796.0999999046,,737607.83,5,600,,
break_continue,html.Screen,10_17_2,2023-11-30T15:48:43.182Z,,,,,,,,,,,NaN,,,,,,,,low,high,,,,,,,false,,,,,false,737796.5999999046,737796.5,,737796.399999857,,737607.83,5,600,,
sequence,flow.Sequence,10_17,2023-11-30T15:48:43.182Z,,,,,,,,,,,4538.576000000001,completion,,,,,,,low,high,,,,,,,false,,,,,false,737796.6999998093,737796.5,733241.186,733436.899999857,733257.924,737607.83,5,600,,
trial,html.Screen,10_18_0,2023-11-30T15:48:45.095Z,,,,1,-0.0069555338059566,0.0310100918136373,,0.05,true,hh,2101.369999809307,response,1.008381128411934,0.9520158420379403,-0.9057513803702101,1.0088020117106191,0.9345158420379407,-0.8977979567405849,high,high,,ISIC_0011177.JPG,8,ISIC_6546903.JPG,33,45,false,0.1,hh,keypress(i),0,false,739709.399999857,739709.1999998093,737591.032,737796.6999998093,737607.83,739524.436,5,600,19,
break,html.Screen,10_18_1,2023-11-30T15:48:45.096Z,,,,,,,,,,,NaN,,,,,,,,high,high,,,,,,,false,,,,,false,739710.1999998093,739710.0999999046,,739709.6999998093,,739524.436,5,600,,
break_continue,html.Screen,10_18_2,2023-11-30T15:48:45.096Z,,,,,,,,,,,NaN,,,,,,,,high,high,,,,,,,false,,,,,false,739710.7999999523,739710.5999999046,,739710.399999857,,739524.436,5,600,,
sequence,flow.Sequence,10_18,2023-11-30T15:48:45.097Z,,,,,,,,,,,2102.7699999046745,completion,,,,,,,high,high,,,,,,,false,,,,,false,739710.899999857,739710.5999999046,737591.032,737796.6999998093,737607.83,739524.436,5,600,,
trial,html.Screen,10_19_0,2023-11-30T15:48:47.319Z,,,,1,-0.0217698886732706,0.0410870915161425,,0.05,true,hh,2408.763999809278,response,1.0270718265914571,0.9520158420379403,-0.9057513803702101,0.9536353804316964,0.9345158420379407,-0.8977979567405849,high,high,,ISIC_0072173.JPG,9,ISIC_3431915.JPG,33,45,false,0.1,hh,keypress(i),0,false,741933.399999857,741933.1999998093,739507.958,739711.0999999046,739524.436,741741.104,5,600,20,
break,html.Screen,10_19_1,2023-11-30T15:48:47.320Z,,,,,,,,,,,NaN,,,,,,,,high,high,,,,,,,false,,,,,false,741934.2999999523,741934.0999999046,,741933.7999999523,,741741.104,5,600,,
break_continue,html.Screen,10_19_2,2023-11-30T15:48:47.321Z,,,,,,,,,,,NaN,,,,,,,,high,high,,,,,,,false,,,,,false,741934.899999857,741934.6999998093,,741934.5,,741741.104,5,600,,
sequence,flow.Sequence,10_19,2023-11-30T15:48:47.321Z,,,,,,,,,,,2410.263999809278,completion,,,,,,,high,high,,,,,,,false,,,,,false,741935.0999999046,741934.6999998093,739507.958,739711,739524.436,741741.104,5,600,,
trial,html.Screen,10_20_0,2023-11-30T15:48:49.096Z,,,,1,0.0102460616775615,-0.0309670599545429,,0.05,true,hh,1968.9959999045823,response,0.8854665385930431,0.9520158420379403,-0.9057513803702101,1.0235331176078744,0.9345158420379407,-0.8977979567405849,high,high,,ISIC_0072041.JPG,9,ISIC_0026889.JPG,33,45,false,0.1,hh,keypress(i),0,false,743710.2999999523,743710.0999999046,741724.583,741935.2999999523,741741.104,743524.377,5,600,21,
break,html.Screen,10_20_1,2023-11-30T15:48:49.097Z,,,,,,,,,,,NaN,,,,,,,,high,high,,,,,,,false,,,,,false,743711.1999998093,743711,,743710.5999999046,,743524.377,5,600,,
break_continue,html.Screen,10_20_2,2023-11-30T15:48:49.097Z,,,,,,,,,,,NaN,,,,,,,,high,high,,,,,,,false,,,,,false,743711.7999999523,743711.6999998093,,743711.399999857,,743524.377,5,600,,
sequence,flow.Sequence,10_20,2023-11-30T15:48:49.098Z,,,,,,,,,,,1970.5959998092148,completion,,,,,,,high,high,,,,,,,false,,,,,false,743712.0999999046,743711.6999998093,741724.583,741935.2999999523,741741.104,743524.377,5,600,,
trial,html.Screen,10_21_0,2023-11-30T15:48:50.965Z,,,,1,0.0362376068089956,0.047825070846155,,0.05,true,ll,2055.3229998092866,response,-1.00170887975541,0.9520158420379403,-0.9057513803702101,-0.8949188450526304,0.9345158420379407,-0.8977979567405849,low,low,,ISIC_6985114.JPG,9,ISIC_0057067.JPG,33,45,false,0.1,ll,keypress(f),0,false,745579.7999999523,745579.6999998093,743507.775,743712.2999999523,743524.377,745391.016,5,600,22,
break,html.Screen,10_21_1,2023-11-30T15:48:50.966Z,,,,,,,,,,,NaN,,,,,,,,low,low,,,,,,,false,,,,,false,745580.0999999046,745580,,745579.7999999523,,745391.016,5,600,,
break_continue,html.Screen,10_21_2,2023-11-30T15:48:50.966Z,,,,,,,,,,,NaN,,,,,,,,low,low,,,,,,,false,,,,,false,745580.2999999523,745580.1999998093,,745580.1999998093,,745391.016,5,600,,
sequence,flow.Sequence,10_21,2023-11-30T15:48:50.966Z,,,,,,,,,,,2055.8229998092866,completion,,,,,,,low,low,,,,,,,false,,,,,false,745580.2999999523,745580.1999998093,743507.775,743712.1999998093,743524.377,745391.016,5,600,,
trial,html.Screen,10_22_0,2023-11-30T15:48:53.821Z,,,,1,0.0277178575053843,-0.0395587463147856,,0.05,false,hl,3044.68399980932,response,0.8487429103619056,0.9520158420379403,-0.9057513803702101,-0.9778257804233036,0.9345158420379407,-0.8977979567405849,high,low,,ISIC_0010807.JPG,9,ISIC_4554863.JPG,33,26,false,0.17000000000000004,hh,keypress(i),0,false,748435.7999999523,748435.6999998093,745374.602,745580.2999999523,745391.016,748257.684,5,600,23,
break,html.Screen,10_22_1,2023-11-30T15:48:53.822Z,,,,,,,,,,,NaN,,,,,,,,high,low,,,,,,,false,,,,,false,748436.0999999046,748436,,748435.7999999523,,748257.684,5,600,,
break_continue,html.Screen,10_22_2,2023-11-30T15:48:53.822Z,,,,,,,,,,,NaN,,,,,,,,high,low,,,,,,,false,,,,,false,748436.2999999523,748436.1999998093,,748436.1999998093,,748257.684,5,600,,
sequence,flow.Sequence,10_22,2023-11-30T15:48:53.822Z,,,,,,,,,,,3045.18399980932,completion,,,,,,,high,low,,,,,,,false,,,,,false,748436.2999999523,748436.1999998093,745374.602,745580.2999999523,745391.016,748257.684,5,600,,
trial,html.Screen,10_23_0,2023-11-30T15:49:01.341Z,,,,1,0.0112310719058792,-0.0469047359904117,,0.05,true,lh,7698.015999809257,response,-0.8035152873995188,0.9520158420379403,-0.9057513803702101,0.82868450251632,0.9345158420379407,-0.8977979567405849,low,high,,ISIC_0068184.JPG,10,ISIC_0010671.JPG,33,25,false,0.16000000000000003,lh,keypress(e),0,false,755955.7999999523,755955.6999998093,748240.932,748436.5,748257.684,755774.345,5,600,24,
break,html.Screen,10_23_1,2023-11-30T15:49:01.342Z,,,,,,,,,,,NaN,,,,,,,,low,high,,,,,,,false,,,,,false,755956.0999999046,755956,,755955.899999857,,755774.345,5,600,,
break_continue,html.Screen,10_23_2,2023-11-30T15:49:01.342Z,,,,,,,,,,,NaN,,,,,,,,low,high,,,,,,,false,,,,,false,755956.399999857,755956.2999999523,,755956.1999998093,,755774.345,5,600,,
sequence,flow.Sequence,10_23,2023-11-30T15:49:01.342Z,,,,,,,,,,,7698.615999952308,completion,,,,,,,low,high,,,,,,,false,,,,,false,755956.399999857,755956.2999999523,748240.932,748436.5,748257.684,755774.345,5,600,,
trial,html.Screen,10_24_0,2023-11-30T15:49:03.199Z,,,,1,0.0134764727102299,0.0033499036460912,,0.05,true,hh,2038.7549999046605,response,0.953802353776362,0.9520158420379403,-0.9057513803702101,0.927101493584587,0.9345158420379407,-0.8977979567405849,high,high,,ISIC_0009998.JPG,9,ISIC_9751601.JPG,33,45,false,0.1,hh,keypress(i),0,false,757813.2999999523,757813.0999999046,755757.625,755956.399999857,755774.345,757624.322,5,600,25,
break,html.Screen,10_24_1,2023-11-30T15:49:03.200Z,,,,,,,,,,,NaN,,,,,,,,high,high,,,,,,,false,,,,,false,757814.2999999523,757814,,757813.5999999046,,757624.322,5,600,,
break_continue,html.Screen,10_24_2,2023-11-30T15:49:03.200Z,,,,,,,,,,,NaN,,,,,,,,high,high,,,,,,,false,,,,,false,757814.7999999523,757814.5999999046,,757814.5,,757624.322,5,600,,
sequence,flow.Sequence,10_24,2023-11-30T15:49:03.201Z,,,,,,,,,,,2040.2549999046605,completion,,,,,,,high,high,,,,,,,false,,,,,false,757815.0999999046,757814.5999999046,755757.625,755956.399999857,755774.345,757624.322,5,600,,
trial,html.Screen,10_25_0,2023-11-30T15:49:12.150Z,,,,1,-0.0050679133050021,0.0009714874637896,,0.05,false,ll,9139.977999952273,response,-0.9185517403328254,0.9520158420379403,-0.9057513803702101,-0.9975299101285906,0.9345158420379407,-0.8977979567405849,low,low,,ISIC_9848743.JPG,8,ISIC_0011130.JPG,33,45,false,0.1,lh,keypress(e),0,false,766764.399999857,766764.2999999523,757607.839,757815.1999998093,757624.322,766574.3,5,600,26,
break,html.Screen,10_25_1,2023-11-30T15:49:12.150Z,,,,,,,,,,,NaN,,,,,,,,low,low,,,,,,,false,,,,,false,766764.6999998093,766764.5999999046,,766764.399999857,,766574.3,5,600,,
break_continue,html.Screen,10_25_2,2023-11-30T15:49:12.150Z,,,,,,,,,,,NaN,,,,,,,,low,low,,,,,,,false,,,,,false,766764.7999999523,766764.6999998093,,766764.6999998093,,766574.3,5,600,,
sequence,flow.Sequence,10_25,2023-11-30T15:49:12.151Z,,,,,,,,,,,9140.377999809221,completion,,,,,,,low,low,,,,,,,false,,,,,false,766764.899999857,766764.6999998093,757607.839,757815.1999998093,757624.322,766574.3,5,600,,
trial,html.Screen,10_26_0,2023-11-30T15:49:16.304Z,,,,1,0.0113873532168551,0.0054999201556291,,0.05,false,lh,4343.399999809219,response,-0.9235571765207048,0.9520158420379403,-0.9057513803702101,1.0008081653938232,0.9345158420379407,-0.8977979567405849,low,high,,ISIC_8812621.JPG,9,ISIC_8796632.JPG,33,25,false,0.16000000000000003,hh,keypress(i),0,false,770918,770917.6999998093,766557.853,766764.899999857,766574.3,770741.219,5,600,27,
break,html.Screen,10_26_1,2023-11-30T15:49:16.305Z,,,,,,,,,,,NaN,,,,,,,,low,high,,,,,,,false,,,,,false,770919.0999999046,770918.7999999523,,770918.399999857,,770741.219,5,600,,
break_continue,html.Screen,10_26_2,2023-11-30T15:49:16.305Z,,,,,,,,,,,NaN,,,,,,,,low,high,,,,,,,false,,,,,false,770919.5999999046,770919.399999857,,770919.1999998093,,770741.219,5,600,,
sequence,flow.Sequence,10_26,2023-11-30T15:49:16.306Z,,,,,,,,,,,4345.099999856902,completion,,,,,,,low,high,,,,,,,false,,,,,false,770919.899999857,770919.399999857,766557.853,766764.899999857,766574.3,770741.219,5,600,,
trial,html.Screen,10_27_0,2023-11-30T15:49:19.942Z,,,,1,-0.0057914759495055,-0.0074667911845194,,0.05,true,hh,3815.0809999522753,response,1.037577073517966,0.9520158420379403,-0.9057513803702101,1.027048110709042,0.9345158420379407,-0.8977979567405849,high,high,,ISIC_0058723.JPG,8,ISIC_0004932.JPG,33,45,false,0.1,hh,keypress(i),0,false,774556.2999999523,774556.2999999523,770724.364,770920,770741.219,774374.502,5,600,28,
break,html.Screen,10_27_1,2023-11-30T15:49:19.942Z,,,,,,,,,,,NaN,,,,,,,,high,high,,,,,,,false,,,,,false,774556.5999999046,774556.5999999046,,774556.399999857,,774374.502,5,600,,
break_continue,html.Screen,10_27_2,2023-11-30T15:49:19.942Z,,,,,,,,,,,NaN,,,,,,,,high,high,,,,,,,false,,,,,false,774556.7999999523,774556.6999998093,,774556.6999998093,,774374.502,5,600,,
sequence,flow.Sequence,10_27,2023-11-30T15:49:19.943Z,,,,,,,,,,,3815.480999809224,completion,,,,,,,high,high,,,,,,,false,,,,,false,774556.7999999523,774556.6999998093,770724.364,770920,770741.219,774374.502,5,600,,
trial,html.Screen,10_28_0,2023-11-30T15:49:31.480Z,,,,1,-0.0050679133050021,0.0009714874637896,,0.05,true,ll,11719.39799985697,response,-0.9306454722820696,0.9520158420379403,-0.9057513803702101,-0.9812399591657396,0.9345158420379407,-0.8977979567405849,low,low,,ISIC_9848743.JPG,9,ISIC_0009940.JPG,33,45,false,0.1,ll,keypress(f),0,false,786094.1999998093,786093.899999857,774357.66,774556.7999999523,774374.502,785907.561,5,600,29,
break,html.Screen,10_28_1,2023-11-30T15:49:31.481Z,,,,,,,,,,,NaN,,,,,,,,low,low,,,,,,,false,,,,,false,786095.0999999046,786095,,786094.5,,785907.561,5,600,,
break_continue,html.Screen,10_28_2,2023-11-30T15:49:31.481Z,,,,,,,,,,,NaN,,,,,,,,low,low,,,,,,,false,,,,,false,786095.5999999046,786095.5,,786095.1999998093,,785907.561,5,600,,
sequence,flow.Sequence,10_28,2023-11-30T15:49:31.482Z,,,,,,,,,,,11720.998000000021,completion,,,,,,,low,low,,,,,,,false,,,,,false,786095.899999857,786095.5,774357.66,774556.7999999523,774374.502,785907.561,5,600,,
trial,html.Screen,10_29_0,2023-11-30T15:49:37.057Z,,,,1,0.013431314305098,-0.0140597582944232,,0.05,true,hh,5761.338999856962,response,0.8626849314423831,0.9520158420379403,-0.9057513803702101,0.8919402924145458,0.9345158420379407,-0.8977979567405849,high,high,,ISIC_0069617.JPG,8,ISIC_0026371.JPG,33,45,false,0.1,hh,keypress(i),0,false,791669.1999998093,791668.899999857,785891.125,786096.0999999046,785907.561,791490.963,5,600,30,
break,html.Screen,10_29_1,2023-11-30T15:49:37.058Z,,,,,,,,,,,NaN,,,,,,,,high,high,,,,,,,false,,,,,false,791670.1999998093,791669.7999999523,,791669.5,,791490.963,5,600,,
break_continue,html.Screen,10_29_2,2023-11-30T15:49:37.059Z,,,,,,,,,,,NaN,,,,,,,,high,high,,,,,,,false,,,,,false,791670.6999998093,791670.5,,791670.2999999523,,791490.963,5,600,,
sequence,flow.Sequence,10_29,2023-11-30T15:49:37.059Z,,,,,,,,,,,5762.939000000013,completion,,,,,,,high,high,,,,,,,false,,,,,false,791670.899999857,791670.5,785891.125,786096,785907.561,791490.963,5,600,,
trial,html.Screen,10_30_0,2023-11-30T15:49:39.440Z,,,,1,0,0.0264544974620926,,0.05,false,hl,2561.2369998092763,response,0.8541581294181414,0.9520158420379403,-0.9057513803702101,-0.7637475587255248,0.9345158420379407,-0.8977979567405849,high,low,,ISIC_0056991.JPG,8,ISIC_0014782.JPG,33,26,false,0.17000000000000004,hh,keypress(i),0,false,794052.2999999523,794052.1999998093,791474.293,791671.0999999046,791490.963,793874.251,5,600,31,
break,html.Screen,10_30_1,2023-11-30T15:49:39.440Z,,,,,,,,,,,NaN,,,,,,,,high,low,,,,,,,false,,,,,false,794052.5999999046,794052.5999999046,,794052.2999999523,,793874.251,5,600,,
break_continue,html.Screen,10_30_2,2023-11-30T15:49:39.441Z,,,,,,,,,,,NaN,,,,,,,,high,low,,,,,,,false,,,,,false,794052.7999999523,794052.6999998093,,794052.6999998093,,793874.251,5,600,,
sequence,flow.Sequence,10_30,2023-11-30T15:49:39.441Z,,,,,,,,,,,2561.7369998092763,completion,,,,,,,high,low,,,,,,,false,,,,,false,794052.7999999523,794052.6999998093,791474.293,791671.0999999046,791490.963,793874.251,5,600,,
trial,html.Screen,10_31_0,2023-11-30T15:49:43.887Z,,,,1,-0.0107854985447517,-0.0478010417136109,,0.05,true,ll,4625.148999856901,response,-0.9866439901618108,0.9520158420379403,-0.9057513803702101,-0.9294281370493894,0.9345158420379407,-0.8977979567405849,low,low,,ISIC_0010500.JPG,9,ISIC_0072953.JPG,33,45,false,0.1,ll,keypress(f),0,false,798499.5999999046,798499.399999857,793857.723,794052.899999857,793874.251,798307.529,5,600,32,
break,html.Screen,10_31_1,2023-11-30T15:49:43.888Z,,,,,,,,,,,NaN,,,,,,,,low,low,,,,,,,false,,,,,false,798499.899999857,798499.7999999523,,798499.6999998093,,798307.529,5,600,,
break_continue,html.Screen,10_31_2,2023-11-30T15:49:43.888Z,,,,,,,,,,,NaN,,,,,,,,low,low,,,,,,,false,,,,,false,798500.1999998093,798500.0999999046,,798500,,798307.529,5,600,,
sequence,flow.Sequence,10_31,2023-11-30T15:49:43.888Z,,,,,,,,,,,4625.848999904585,completion,,,,,,,low,low,,,,,,,false,,,,,false,798500.1999998093,798500.0999999046,793857.723,794052.899999857,793874.251,798307.529,5,600,,
trial,html.Screen,10_32_0,2023-11-30T15:49:46.368Z,,,,1,0.000047919190197942736,0.0462652940855003,,0.05,true,hh,2672.6709998092847,response,1.007248440493079,0.9520158420379403,-0.9057513803702101,0.8493817247965978,0.9345158420379407,-0.8977979567405849,high,high,,ISIC_0011507.JPG,9,ISIC_0030219.JPG,33,45,false,0.1,hh,keypress(i),0,false,800980.399999857,800980.1999998093,798291.047,798500.2999999523,798307.529,800790.844,5,600,33,
break,html.Screen,10_32_1,2023-11-30T15:49:46.369Z,,,,,,,,,,,NaN,,,,,,,,high,high,,,,,,,false,,,,,false,800981.0999999046,800980.899999857,,800980.5999999046,,800790.844,5,600,,
break_continue,html.Screen,10_32_2,2023-11-30T15:49:46.369Z,,,,,,,,,,,NaN,,,,,,,,high,high,,,,,,,false,,,,,false,800981.5,800981.399999857,,800981.1999998093,,800790.844,5,600,,
sequence,flow.Sequence,10_32,2023-11-30T15:49:46.370Z,,,,,,,,,,,2673.8709998569684,completion,,,,,,,high,high,,,,,,,false,,,,,false,800981.6999998093,800981.399999857,798291.047,798500.1999998093,798307.529,800790.844,5,600,,
trial,html.Screen,10_33_0,2023-11-30T15:49:49.330Z,,,,1,-0.0107854985447517,-0.0478010417136109,,0.05,true,hh,3150.855999809224,response,1.0270718265914571,0.9520158420379403,-0.9057513803702101,0.9536353804316964,0.9345158420379407,-0.8977979567405849,high,high,,ISIC_0010500.JPG,9,ISIC_3431915.JPG,33,45,false,0.1,hh,keypress(i),0,false,803942,803941.6999998093,800774.402,800981.899999857,800790.844,803757.535,5,600,34,
break,html.Screen,10_33_1,2023-11-30T15:49:49.331Z,,,,,,,,,,,NaN,,,,,,,,high,high,,,,,,,false,,,,,false,803942.7999999523,803942.5999999046,,803942.1999998093,,803757.535,5,600,,
break_continue,html.Screen,10_33_2,2023-11-30T15:49:49.331Z,,,,,,,,,,,NaN,,,,,,,,high,high,,,,,,,false,,,,,false,803943.2999999523,803943.1999998093,,803942.899999857,,803757.535,5,600,,
sequence,flow.Sequence,10_33,2023-11-30T15:49:49.331Z,,,,,,,,,,,3152.355999809224,completion,,,,,,,high,high,,,,,,,false,,,,,false,803943.5999999046,803943.1999998093,800774.402,800981.7999999523,800790.844,803757.535,5,600,,
trial,html.Screen,10_34_0,2023-11-30T15:49:53.650Z,,,,1,-0.0116094682222121,0.0258434522530318,,0.05,true,ll,4504.1649998092325,response,-0.8665886246441876,0.9520158420379403,-0.9057513803702101,-0.8507210279123499,0.9345158420379407,-0.8977979567405849,low,low,,ISIC_9239632.JPG,8,ISIC_1071355.JPG,33,45,false,0.1,ll,keypress(f),0,false,808261.899999857,808261.6999998093,803741.037,803943.6999998093,803757.535,808074.189,5,600,35,
break,html.Screen,10_34_1,2023-11-30T15:49:53.651Z,,,,,,,,,,,NaN,,,,,,,,low,low,,,,,,,false,,,,,false,808262.899999857,808262.5999999046,,808262.1999998093,,808074.189,5,600,,
break_continue,html.Screen,10_34_2,2023-11-30T15:49:53.651Z,,,,,,,,,,,NaN,,,,,,,,low,low,,,,,,,false,,,,,false,808263.399999857,808263.1999998093,,808263,,808074.189,5,600,,
sequence,flow.Sequence,10_34,2023-11-30T15:49:53.651Z,,,,,,,,,,,4505.6649998092325,completion,,,,,,,low,low,,,,,,,false,,,,,false,808263.6999998093,808263.1999998093,803741.037,803943.5999999046,803757.535,808074.189,5,600,,
trial,html.Screen,10_35_0,2023-11-30T15:49:55.714Z,,,,1,0,0.0264544974620926,,0.05,false,ll,2252.010999809252,response,-1.00170887975541,0.9520158420379403,-0.9057513803702101,-0.8949188450526304,0.9345158420379407,-0.8977979567405849,low,low,,ISIC_0056991.JPG,10,ISIC_0057067.JPG,33,45,false,0.1,hh,keypress(i),0,false,810326.5,810326.1999998093,808057.757,808263.7999999523,808074.189,810140.843,5,600,36,
break,html.Screen,10_35_1,2023-11-30T15:49:55.715Z,,,,,,,,,,,NaN,,,,,,,,low,low,,,,,,,false,,,,,false,810327.5,810327.1999998093,,810326.7999999523,,810140.843,5,600,,
break_continue,html.Screen,10_35_2,2023-11-30T15:49:55.716Z,,,,,,,,,,,NaN,,,,,,,,low,low,,,,,,,false,,,,,false,810328.1999998093,810328,,810327.6999998093,,810140.843,5,600,,
sequence,flow.Sequence,10_35,2023-11-30T15:49:55.716Z,,,,,,,,,,,2253.810999999987,completion,,,,,,,low,low,,,,,,,false,,,,,false,810328.399999857,810328,808057.757,808263.7999999523,808074.189,810140.843,5,600,,
trial,html.Screen,10_36_0,2023-11-30T15:49:57.937Z,,,,1,0.0245376145053177,-0.0436993426328401,,0.05,false,hl,2408.1570000000065,response,1.10953285327247,0.9520158420379403,-0.9057513803702101,-0.7377773112414787,0.9345158420379407,-0.8977979567405849,high,low,,ISIC_0056444.JPG,8,ISIC_1720840.JPG,33,26,false,0.17000000000000004,hh,keypress(i),0,false,812549.1999998093,812549,810124.196,810328.5999999046,810140.843,812357.577,5,600,37,
break,html.Screen,10_36_1,2023-11-30T15:49:57.938Z,,,,,,,,,,,NaN,,,,,,,,high,low,,,,,,,false,,,,,false,812550.0999999046,812549.899999857,,812549.5,,812357.577,5,600,,
break_continue,html.Screen,10_36_2,2023-11-30T15:49:57.939Z,,,,,,,,,,,NaN,,,,,,,,high,low,,,,,,,false,,,,,false,812550.6999998093,812550.5,,812550.2999999523,,812357.577,5,600,,
sequence,flow.Sequence,10_36,2023-11-30T15:49:57.939Z,,,,,,,,,,,2409.6570000000065,completion,,,,,,,high,low,,,,,,,false,,,,,false,812551,812550.5,810124.196,810328.5999999046,810140.843,812357.577,5,600,,
trial,html.Screen,10_37_0,2023-11-30T15:49:59.665Z,,,,1,0.000047919190197942736,0.0462652940855003,,0.05,true,hh,1919.7229999522679,response,0.9872117590837104,0.9520158420379403,-0.9057513803702101,0.8387342204487216,0.9345158420379407,-0.8977979567405849,high,high,,ISIC_0011507.JPG,8,ISIC_4539674.JPG,33,45,false,0.1,hh,keypress(i),0,false,814277.5999999046,814277.2999999523,812341.052,812551.1999998093,812357.577,814090.839,5,600,38,
break,html.Screen,10_37_1,2023-11-30T15:49:59.666Z,,,,,,,,,,,NaN,,,,,,,,high,high,,,,,,,false,,,,,false,814278.5,814278.1999998093,,814277.899999857,,814090.839,5,600,,
break_continue,html.Screen,10_37_2,2023-11-30T15:49:59.667Z,,,,,,,,,,,NaN,,,,,,,,high,high,,,,,,,false,,,,,false,814279,814278.7999999523,,814278.5999999046,,814090.839,5,600,,
sequence,flow.Sequence,10_37,2023-11-30T15:49:59.667Z,,,,,,,,,,,1921.2229999522679,completion,,,,,,,high,high,,,,,,,false,,,,,false,814279.1999998093,814278.7999999523,812341.052,812551.1999998093,812357.577,814090.839,5,600,,
