sender,sender_type,sender_id,timestamp,meta,,age,blockNo,c1,c2,condition,control_tolerance,correct,correctResponse,duration,ended_on,f1,f1_high,f1_low,f2,f2_high,f2_low,feature_level1,feature_level2,gender,img_left,img_reveal,img_right,n_control_images,n_target_images,practice,range_tolerance,response,response_action,selection_duration,staircase,time_commit,time_end,time_render,time_run,time_show,time_switch,total_blocks,total_trials,trialNo,url
informed_consent,html.Screen,0,2023-11-30T17:29:36.015Z,"{""labjs_version"":""20.2.4"",""labjs_build"":{""flavor"":""development"",""commit"":""f5b4a49f956347addd546a832a3327688c2c0fef""},""location"":""https://labjs.felixhenninger.com/api/labjs_preview/index.html"",""userAgent"":""Mozilla/5.0 (Windows NT 10.0; Win64; x64) AppleWebKit/537.36 (KHTML, like Gecko) Chrome/119.0.0.0 Safari/537.36"",""platform"":""Win32"",""language"":""en-US"",""locale"":""en-US"",""timeZone"":""America/Chicago"",""timezoneOffset"":360,""screen_width"":1680,""screen_height"":1050,""scroll_width"":825,""scroll_height"":888,""window_innerWidth"":825,""window_innerHeight"":936,""devicePixelRatio"":1}",,,,,,,,,,25014.84500014305,response,,,,,,,,,,,,,,,,,consent,click button,,,25783.900000095367,25776.10000014305,744.538,741.2999999523163,761.255,25793.344,,,,{}
Demography form,html.Form,1,2023-11-30T17:29:44.144Z,,,19,,,,,,,,8118.5560000953665,form submission,,,,,,,,,male,,,,,,,,,,,,33912.10000014305,33911.90000009537,25776.647,25784.10000014305,25793.344,33925.846,,,,
Welcome,html.Screen,2,2023-11-30T17:30:43.721Z,,,,,,,"[""asym"",""bor""]",,,,59562.75400014305,response,,,,,,,,,,,,,,,,,continue,click button,,,93489.10000014305,93488.60000014305,33909.136,33912.200000047684,33925.846,93508.734,,,,
demo_instructions,html.Screen,3,2023-11-30T17:31:19.897Z,,,,,,,,,,,36155.56599995232,response,,,,,,,,,,,,,,,,,continue,click button,,,129665,129664.29999995232,93491.754,93489.20000004768,93508.734,129695.572,,,,
trial,html.Screen,4_0_0,2023-11-30T17:31:34.744Z,,,,0,-1.247270138097585,-1.1704704713504994,,,true,hh,14815.227999952316,response,1.2706447584800626,1.2,-1.2,1.0903308007916603,1.2,-1.2,high,high,,ISIC_0065774.JPG,,ISIC_9425937.JPG,,26,true,0.15000000000000002,hh,keypress(i),100,false,144511.29999995232,144510.79999995232,129679.076,129665.20000004768,129695.572,144541.214,1,16,1,
sequence,flow.Sequence,4_0,2023-11-30T17:31:34.744Z,,,,,,,,,,,14815.227999952316,completion,,,,,,,high,high,,,,,,,true,,,,,false,144512.10000014305,144510.79999995232,129679.076,129665.10000014305,129695.572,144541.214,1,16,,
trial,html.Screen,4_1_0,2023-11-30T17:31:38.065Z,,,,0,-1.152619213055059,-1.1117876838408909,,,true,hh,3291.285999999993,response,1.2706447584800626,1.2,-1.2,1.0903308007916603,1.2,-1.2,high,high,,ISIC_0061915.JPG,,ISIC_9425937.JPG,,26,true,0.15000000000000002,hh,keypress(i),100,false,147832.70000004768,147832.5,144524.515,144512.5,144541.214,147864.398,1,16,2,
sequence,flow.Sequence,4_1,2023-11-30T17:31:38.065Z,,,,,,,,,,,3291.285999999993,completion,,,,,,,high,high,,,,,,,true,,,,,false,147833,147832.5,144524.515,144512.40000009537,144541.214,147864.398,1,16,,
trial,html.Screen,4_2_0,2023-11-30T17:31:44.107Z,,,,0,-1.2322060291690602,-1.2686491386389651,,,true,hh,6009.702000143065,response,1.1598623261077452,1.2,-1.2,1.203269031614007,1.2,-1.2,high,high,,ISIC_0011697.JPG,,ISIC_0002639.JPG,,26,true,0.15000000000000002,hh,keypress(i),100,false,153874.60000014305,153874.10000014305,147847.709,147833,147864.398,153892.726,1,16,3,
sequence,flow.Sequence,4_2,2023-11-30T17:31:44.108Z,,,,,,,,,,,6009.702000143065,completion,,,,,,,high,high,,,,,,,true,,,,,false,153875.29999995232,153874.10000014305,147847.709,147833,147864.398,153892.726,1,16,,
trial,html.Screen,4_3_0,2023-11-30T17:31:48.901Z,,,,0,-1.1877026569952844,-1.1604367569896263,,,true,hh,4775.774000000005,response,1.2318069697449794,1.2,-1.2,1.1703576816778267,1.2,-1.2,high,high,,ISIC_0064589.JPG,,ISIC_2732573.JPG,,26,true,0.15000000000000002,hh,keypress(i),100,false,158668.60000014305,158668.5,153876.091,153875.60000014305,153892.726,158685.311,1,16,4,
sequence,flow.Sequence,4_3,2023-11-30T17:31:48.901Z,,,,,,,,,,,4775.774000000005,completion,,,,,,,high,high,,,,,,,true,,,,,false,158668.90000009537,158668.5,153876.091,153875.60000014305,153892.726,158685.311,1,16,,
trial,html.Screen,4_4_0,2023-11-30T17:31:56.109Z,,,,0,1.0870240111136478,1.332340670965917,,,true,ll,7191.488999952329,response,-1.2169050727663315,1.2,-1.2,-1.1067845563421794,1.2,-1.2,low,low,,ISIC_0000660.JPG,,ISIC_7016261.JPG,,30,true,0.1,ll,keypress(f),100,false,165877.20000004768,165876.79999995232,158668.617,158668.90000009537,158685.311,165899.398,1,16,5,
sequence,flow.Sequence,4_4,2023-11-30T17:31:56.110Z,,,,,,,,,,,7191.488999952329,completion,,,,,,,low,low,,,,,,,true,,,,,false,165877.90000009537,165876.79999995232,158668.617,158668.90000009537,158685.311,165899.398,1,16,,
trial,html.Screen,4_5_0,2023-11-30T17:32:01.367Z,,,,0,1.0789197754694622,1.1654690806750023,,,true,ll,5234.6020000000135,response,-1.2249552940807693,1.2,-1.2,-1.1723015116910682,1.2,-1.2,low,low,,ISIC_1576437.JPG,,ISIC_0055251.JPG,,53,true,0.15000000000000002,ll,keypress(f),100,false,171134.40000009537,171134,165882.792,165878.10000014305,165899.398,171159.621,1,16,6,
sequence,flow.Sequence,4_5,2023-11-30T17:32:01.367Z,,,,,,,,,,,5234.6020000000135,completion,,,,,,,low,low,,,,,,,true,,,,,false,171135.10000014305,171134,165882.792,165878.10000014305,165899.398,171159.621,1,16,,
trial,html.Screen,4_6_0,2023-11-30T17:32:05.745Z,,,,0,1.2012395086389958,1.0618985767073823,,,true,ll,4353.07900004767,response,-1.126264390089724,1.2,-1.2,-1.271896565050952,1.2,-1.2,low,low,,ISIC_9876004.JPG,,ISIC_1520897.JPG,,53,true,0.15000000000000002,ll,keypress(f),100,false,175513,175512.70000004768,171142.994,171135.29999995232,171159.621,175534.824,1,16,7,
sequence,flow.Sequence,4_6,2023-11-30T17:32:05.746Z,,,,,,,,,,,4353.07900004767,completion,,,,,,,low,low,,,,,,,true,,,,,false,175513.70000004768,175512.70000004768,171142.994,171135.29999995232,171159.621,175534.824,1,16,,
trial,html.Screen,4_7_0,2023-11-30T17:32:11.577Z,,,,0,1.1210325063849345,1.1498648320956202,,,true,ll,5809.276000143058,response,-1.3150500754357115,1.2,-1.2,-1.2575260551085132,1.2,-1.2,low,low,,ISIC_0032162.JPG,,ISIC_0029591.JPG,,53,true,0.15000000000000002,ll,keypress(f),100,false,181344.5,181344.10000014305,175518.218,175514,175534.824,181412.889,1,16,8,
sequence,flow.Sequence,4_7,2023-11-30T17:32:11.577Z,,,,,,,,,,,5809.276000143058,completion,,,,,,,low,low,,,,,,,true,,,,,false,181345.20000004768,181344.10000014305,175518.218,175513.90000009537,175534.824,181412.889,1,16,,
trial,html.Screen,4_8_0,2023-11-30T17:32:26.016Z,,,,0,1.0026266089287914,-1.0913275913920335,,,true,lh,14368.91099995232,response,-0.8035152873995188,1.2,-1.2,0.82868450251632,1.2,-1.2,low,high,,ISIC_0033520.JPG,,ISIC_0010671.JPG,,27,true,0.42000000000000026,lh,keypress(e),100,false,195782.20000004768,195781.79999995232,181346.218,181345.40000009537,181412.889,195824.294,1,16,9,
sequence,flow.Sequence,4_8,2023-11-30T17:32:26.016Z,,,,,,,,,,,14368.91099995232,completion,,,,,,,low,high,,,,,,,true,,,,,false,195782.90000009537,195781.79999995232,181346.218,181345.40000009537,181412.889,195824.294,1,16,,
trial,html.Screen,4_9_0,2023-11-30T17:32:35.763Z,,,,0,1.2695509547992938,-0.9641099676945492,,,true,lh,9705.005999952322,response,-0.7998855902596425,1.2,-1.2,1.1518579145663017,1.2,-1.2,low,high,,ISIC_0025841.JPG,,ISIC_0025061.JPG,,27,true,0.42000000000000026,lh,keypress(e),100,false,205529.5,205529.29999995232,195790.972,195783.20000004768,195824.294,205559.922,1,16,10,
sequence,flow.Sequence,4_9,2023-11-30T17:32:35.763Z,,,,,,,,,,,9705.005999952322,completion,,,,,,,low,high,,,,,,,true,,,,,false,205529.70000004768,205529.29999995232,195790.972,195783.10000014305,195824.294,205559.922,1,16,,
trial,html.Screen,4_10_0,2023-11-30T17:32:42.688Z,,,,0,1.0865333402803938,-1.0542635307358266,,,true,lh,6894.17800014306,response,-0.8816288864119318,1.2,-1.2,0.801867301188093,1.2,-1.2,low,high,,ISIC_0034006.JPG,,ISIC_9196783.JPG,,27,true,0.42000000000000026,lh,keypress(e),100,false,212454.60000014305,212454.10000014305,205543.237,205529.70000004768,205559.922,212506.738,1,16,11,
sequence,flow.Sequence,4_10,2023-11-30T17:32:42.689Z,,,,,,,,,,,6894.17800014306,completion,,,,,,,low,high,,,,,,,true,,,,,false,212455.20000004768,212454.10000014305,205543.237,205529.70000004768,205559.922,212506.738,1,16,,
trial,html.Screen,4_11_0,2023-11-30T17:32:46.806Z,,,,0,1.011737552725394,-0.8500530224490773,,,true,lh,4065.761999999988,response,-1.0213365328004047,1.2,-1.2,1.088524359911891,1.2,-1.2,low,high,,ISIC_2998367.JPG,,ISIC_5434229.JPG,,27,true,0.42000000000000026,lh,keypress(e),100,false,216572.90000009537,216572.5,212456.722,212455.5,212506.738,216614.763,1,16,12,
sequence,flow.Sequence,4_11,2023-11-30T17:32:46.807Z,,,,,,,,,,,4065.761999999988,completion,,,,,,,low,high,,,,,,,true,,,,,false,216573.40000009537,216572.5,212456.722,212455.5,212506.738,216614.763,1,16,,
trial,html.Screen,4_12_0,2023-11-30T17:32:51.969Z,,,,0,-0.948927472020595,1.0660437155921598,,,true,hl,5120.03699995231,response,1.2364994561934892,1.2,-1.2,-0.9174173651516624,1.2,-1.2,high,low,,ISIC_5808758.JPG,,ISIC_3481133.JPG,,26,true,0.3600000000000002,hl,keypress(j),100,false,221735,221734.79999995232,216581.451,216573.70000004768,216614.763,221758.072,1,16,13,
sequence,flow.Sequence,4_12,2023-11-30T17:32:51.969Z,,,,,,,,,,,5120.03699995231,completion,,,,,,,high,low,,,,,,,true,,,,,false,221735.10000014305,221734.79999995232,216581.451,216573.70000004768,216614.763,221758.072,1,16,,
trial,html.Screen,4_13_0,2023-11-30T17:32:56.910Z,,,,0,-0.8655167308525522,0.9298580423306444,,,true,hl,4918.428000000014,response,0.9454713230140772,1.2,-1.2,-0.9245167441969216,1.2,-1.2,high,low,,ISIC_4603706.JPG,,ISIC_9101055.JPG,,33,true,0.42000000000000026,hl,keypress(j),100,false,226676.79999995232,226676.5,221741.378,221735.20000004768,221758.072,226717.766,1,16,14,
sequence,flow.Sequence,4_13,2023-11-30T17:32:56.911Z,,,,,,,,,,,4918.428000000014,completion,,,,,,,high,low,,,,,,,true,,,,,false,226677.29999995232,226676.5,221741.378,221735.20000004768,221758.072,226717.766,1,16,,
trial,html.Screen,4_14_0,2023-11-30T17:33:04.068Z,,,,0,-0.8816288864119318,0.801867301188093,,,true,hl,7116.834000143048,response,0.9696118525781644,1.2,-1.2,-0.9244148283103414,1.2,-1.2,high,low,,ISIC_9196783.JPG,,ISIC_7927525.JPG,,33,true,0.42000000000000026,hl,keypress(j),100,false,233835,233834.60000014305,226684.469,226677.5,226717.766,233881.696,1,16,15,
sequence,flow.Sequence,4_14,2023-11-30T17:33:04.069Z,,,,,,,,,,,7116.834000143048,completion,,,,,,,high,low,,,,,,,true,,,,,false,233835.70000004768,233834.60000014305,226684.469,226677.40000009537,226717.766,233881.696,1,16,,
trial,html.Screen,4_15_0,2023-11-30T17:33:09.708Z,,,,0,-0.9235571765207048,1.0008081653938232,,,true,hl,5592.10399995232,response,0.879102500583965,1.2,-1.2,-1.0933081951979773,1.2,-1.2,high,low,,ISIC_8796632.JPG,,ISIC_0046223.JPG,,33,true,0.42000000000000026,hl,keypress(j),100,false,239474.20000004768,239473.79999995232,233848.426,233836,233881.696,239492.684,1,16,16,
sequence,flow.Sequence,4_15,2023-11-30T17:33:09.708Z,,,,,,,,,,,5592.10399995232,completion,,,,,,,high,low,,,,,,,true,,,,,false,239474.90000009537,239473.79999995232,233848.426,233835.90000009537,233881.696,239492.684,1,16,,
demonstration_loop,flow.Loop,4,2023-11-30T17:33:09.709Z,,,,,,,,,,,109778.22799995232,completion,,,,,,,,,,,,,,,true,,,,,false,239475.20000004768,239473.79999995232,129679.076,129665.10000014305,129695.572,239492.684,1,16,,
practice_instructions,html.Screen,5,2023-11-30T17:33:49.363Z,,,,,,,,,,,39628.016000047675,response,,,,,,,,,,,,,,,,,continue,click button,,,279130,279120.7000000477,239476.004,239475.40000009537,239492.684,279169.858,,,,
trial,html.Screen,6_0_0,2023-11-30T17:33:57.469Z,,,,1,-1.0164576835546473,0.8120626538423016,,,true,hl,8065.04200009536,response,0.8979276789594874,1.2,-1.2,-0.925374811016654,1.2,-1.2,high,low,,ISIC_6002694.JPG,,ISIC_4208361.JPG,,26,true,0.3600000000000002,hl,keypress(j),0,false,287235.2999999523,287234.90000009537,279120.004,279130.10000014305,279169.858,287252.303,1,40,1,
sequence,flow.Sequence,6_0,2023-11-30T17:33:57.470Z,,,,,,,,,,,8065.04200009536,completion,,,,,,,high,low,,,,,,,true,,,,,false,287236.2000000477,287234.90000009537,279120.004,279130.10000014305,279169.858,287252.303,1,40,,
trial,html.Screen,6_1_0,2023-11-30T17:34:01.620Z,,,,1,1.2024083555600384,1.149077673153018,,,true,ll,4134.196999999986,response,-1.3829859918989194,1.2,-1.2,-1.2030355493299076,1.2,-1.2,low,low,,ISIC_3566243.JPG,,ISIC_0058022.JPG,,339,true,0.42000000000000026,ll,keypress(f),0,false,291386.7999999523,291386.5,287235.625,287236.7000000477,287252.303,291393.655,1,40,2,
sequence,flow.Sequence,6_1,2023-11-30T17:34:01.621Z,,,,,,,,,,,4134.196999999986,completion,,,,,,,low,low,,,,,,,true,,,,,false,291387.40000009537,291386.5,287235.625,287236.60000014305,287252.303,291393.655,1,40,,
trial,html.Screen,6_2_0,2023-11-30T17:34:05.628Z,,,,1,-1.2750452296609045,-1.1682369131232675,,,true,hh,4000.545000047656,response,1.1642596483638106,1.2,-1.2,1.109799097093339,1.2,-1.2,high,high,,ISIC_0066399.JPG,,ISIC_0765584.JPG,,26,true,0.15000000000000002,hh,keypress(i),0,false,295394.5,295394.2000000477,291377.166,291387.7000000477,291393.655,295451.53,1,40,3,
sequence,flow.Sequence,6_2,2023-11-30T17:34:05.628Z,,,,,,,,,,,4000.545000047656,completion,,,,,,,high,high,,,,,,,true,,,,,false,295395.10000014305,295394.2000000477,291377.166,291387.60000014305,291393.655,295451.53,1,40,,
trial,html.Screen,6_3_0,2023-11-30T17:34:13.972Z,,,,1,1.1181734135756094,-0.944560381774994,,,false,lh,8286.969999999972,response,-1.0264463986917702,1.2,-1.2,1.2804054832904397,1.2,-1.2,low,high,,ISIC_9688534.JPG,,ISIC_7889838.JPG,,27,true,0.42000000000000026,ll,keypress(f),0,false,303738.90000009537,303738.5,295384.951,295395.40000009537,295451.53,303751.039,1,40,4,
sequence,flow.Sequence,6_3,2023-11-30T17:34:13.973Z,,,,,,,,,,,8286.969999999972,completion,,,,,,,low,high,,,,,,,true,,,,,false,303739.5,303738.5,295384.951,295395.2999999523,295451.53,303751.039,1,40,,
trial,html.Screen,6_4_0,2023-11-30T17:34:20.594Z,,,,1,1.2503149164557643,1.0796591227570405,,,true,ll,6609.96100000001,response,-0.9185517403328254,1.2,-1.2,-0.9975299101285906,1.2,-1.2,low,low,,ISIC_2466892.JPG,,ISIC_0011130.JPG,,245,true,0.3600000000000002,ll,keypress(f),0,false,310361.10000014305,310361,303734.513,303739.7999999523,303751.039,310397.325,1,40,5,
sequence,flow.Sequence,6_4,2023-11-30T17:34:20.595Z,,,,,,,,,,,6609.96100000001,completion,,,,,,,low,low,,,,,,,true,,,,,false,310361.2999999523,310361,303734.513,303739.7000000477,303751.039,310397.325,1,40,,
trial,html.Screen,6_5_0,2023-11-30T17:34:28.326Z,,,,1,0.991282840649944,-0.9397921099839784,,,false,lh,7693.474999952305,response,-0.7833710010171356,1.2,-1.2,0.9315588090336896,1.2,-1.2,low,high,,ISIC_0000463.JPG,,ISIC_3826102.JPG,,27,true,0.42000000000000026,ll,keypress(f),0,false,318091.10000014305,318090.7999999523,310347.43,310361.2999999523,310397.325,318095.623,1,40,6,
sequence,flow.Sequence,6_5,2023-11-30T17:34:28.326Z,,,,,,,,,,,7693.474999952305,completion,,,,,,,low,high,,,,,,,true,,,,,false,318091.7000000477,318090.7999999523,310347.43,310361.2999999523,310397.325,318095.623,1,40,,
trial,html.Screen,6_6_0,2023-11-30T17:34:33.508Z,,,,1,1.2503149164557643,1.0796591227570405,,,true,ll,5177.277000095346,response,-1.2750452296609045,1.2,-1.2,-1.1682369131232675,1.2,-1.2,low,low,,ISIC_2466892.JPG,,ISIC_0066399.JPG,,245,true,0.3600000000000002,ll,keypress(f),0,false,323273.10000014305,323272.90000009537,318079.074,318091.7999999523,318095.623,323305.771,1,40,7,
sequence,flow.Sequence,6_6,2023-11-30T17:34:33.508Z,,,,,,,,,,,5177.277000095346,completion,,,,,,,low,low,,,,,,,true,,,,,false,323273.2000000477,323272.90000009537,318079.074,318091.7999999523,318095.623,323305.771,1,40,,
trial,html.Screen,6_7_0,2023-11-30T17:34:38.571Z,,,,1,-1.0115965332688306,0.8282633603842442,,,true,hl,5031.028999952308,response,1.020990671779317,1.2,-1.2,-1.0116513850520903,1.2,-1.2,high,low,,ISIC_1069587.JPG,,ISIC_0011995.JPG,,26,true,0.3600000000000002,hl,keypress(j),0,false,328336.90000009537,328336.7999999523,323272.588,323273.2000000477,323305.771,328365.612,1,40,8,
sequence,flow.Sequence,6_7,2023-11-30T17:34:38.572Z,,,,,,,,,,,5031.028999952308,completion,,,,,,,high,low,,,,,,,true,,,,,false,328337,328336.7999999523,323272.588,323273.2000000477,323305.771,328365.612,1,40,,
trial,html.Screen,6_8_0,2023-11-30T17:34:44.117Z,,,,1,-1.0164576835546473,0.8120626538423016,,,false,hl,5516.387999999977,response,1.2075172235545184,1.2,-1.2,-0.9116724966267612,1.2,-1.2,high,low,,ISIC_6002694.JPG,,ISIC_0024235.JPG,,33,true,0.42000000000000026,hh,keypress(i),0,false,333882.2000000477,333882,328332.199,328337.10000014305,328365.612,333909.74,1,40,9,
sequence,flow.Sequence,6_8,2023-11-30T17:34:44.117Z,,,,,,,,,,,5516.387999999977,completion,,,,,,,high,low,,,,,,,true,,,,,false,333882.7000000477,333882,328332.199,328337,328365.612,333909.74,1,40,,
trial,html.Screen,6_9_0,2023-11-30T17:34:50.510Z,,,,1,-0.8092423703106274,1.1870093485714288,,,false,hl,6365.559999952326,response,0.858338058340649,1.2,-1.2,-0.9540612223480284,1.2,-1.2,high,low,,ISIC_8592235.JPG,,ISIC_8922893.JPG,,33,true,0.42000000000000026,ll,keypress(f),0,false,340275.7000000477,340275.2999999523,333876.577,333883,333909.74,340288.823,1,40,10,
sequence,flow.Sequence,6_9,2023-11-30T17:34:50.511Z,,,,,,,,,,,6365.559999952326,completion,,,,,,,high,low,,,,,,,true,,,,,false,340276.2000000477,340275.2999999523,333876.577,333882.90000009537,333909.74,340288.823,1,40,,
trial,html.Screen,6_10_0,2023-11-30T17:34:57.765Z,,,,1,1.1653123206802332,1.2976858999596654,,,true,ll,7241.476999952341,response,-1.0215600067367807,1.2,-1.2,-1.1866489745604327,1.2,-1.2,low,low,,ISIC_0071508.JPG,,ISIC_0000173.JPG,,339,true,0.42000000000000026,ll,keypress(f),0,false,347530.7000000477,347530.2999999523,340272.179,340276.5,340288.823,347569.68,1,40,11,
sequence,flow.Sequence,6_10,2023-11-30T17:34:57.766Z,,,,,,,,,,,7241.476999952341,completion,,,,,,,low,low,,,,,,,true,,,,,false,347531.2000000477,347530.2999999523,340272.179,340276.40000009537,340288.823,347569.68,1,40,,
trial,html.Screen,6_11_0,2023-11-30T17:35:05.373Z,,,,1,0.8809306963311293,-0.8614910030038974,,,true,lh,7568.720000095374,response,-0.8947611078712571,1.2,-1.2,0.8960964505004638,1.2,-1.2,low,high,,ISIC_0013731.JPG,,ISIC_6441128.JPG,,27,true,0.42000000000000026,lh,keypress(e),0,false,355138.7999999523,355138.40000009537,347519.505,347531.5,347569.68,355167.784,1,40,12,
sequence,flow.Sequence,6_11,2023-11-30T17:35:05.374Z,,,,,,,,,,,7568.720000095374,completion,,,,,,,low,high,,,,,,,true,,,,,false,355139.2999999523,355138.40000009537,347519.505,347531.40000009537,347569.68,355167.784,1,40,,
trial,html.Screen,6_12_0,2023-11-30T17:35:11.965Z,,,,1,-1.0022829373011404,0.8311726972863814,,,true,hl,6562.316000143066,response,0.8534691366511764,1.2,-1.2,-1.03975580494588,1.2,-1.2,high,low,,ISIC_0033287.JPG,,ISIC_0056788.JPG,,26,true,0.3600000000000002,hl,keypress(j),0,false,361730.40000009537,361730.10000014305,355134.403,355139.7000000477,355167.784,361747.318,1,40,13,
sequence,flow.Sequence,6_12,2023-11-30T17:35:11.965Z,,,,,,,,,,,6562.316000143066,completion,,,,,,,high,low,,,,,,,true,,,,,false,361730.90000009537,361730.10000014305,355134.403,355139.60000014305,355167.784,361747.318,1,40,,
trial,html.Screen,6_13_0,2023-11-30T17:35:15.365Z,,,,1,1.2706447584800626,1.0903308007916603,,,true,ll,3383.082000095339,response,-1.3898185622183723,1.2,-1.2,-1.0059228250363343,1.2,-1.2,low,low,,ISIC_9425937.JPG,,ISIC_0033479.JPG,,339,true,0.42000000000000026,ll,keypress(f),0,false,365130.7000000477,365130.40000009537,361730.633,361731.10000014305,361747.318,365170.584,1,40,14,
sequence,flow.Sequence,6_13,2023-11-30T17:35:15.366Z,,,,,,,,,,,3383.082000095339,completion,,,,,,,low,low,,,,,,,true,,,,,false,365131.2000000477,365130.40000009537,361730.633,361731.10000014305,361747.318,365170.584,1,40,,
trial,html.Screen,6_14_0,2023-11-30T17:35:20.806Z,,,,1,0.991282840649944,-0.9397921099839784,,,false,lh,5400.4160000000265,response,-1.0164576835546473,1.2,-1.2,0.8120626538423016,1.2,-1.2,low,high,,ISIC_0000463.JPG,,ISIC_6002694.JPG,,27,true,0.42000000000000026,ll,keypress(f),0,false,370571.2999999523,370571,365120.68,365131.5,365170.584,370597.819,1,40,15,
sequence,flow.Sequence,6_14,2023-11-30T17:35:20.806Z,,,,,,,,,,,5400.4160000000265,completion,,,,,,,low,high,,,,,,,true,,,,,false,370571.7999999523,370571,365120.68,365131.40000009537,365170.584,370597.819,1,40,,
trial,html.Screen,6_15_0,2023-11-30T17:35:25.974Z,,,,1,-0.8655167308525522,0.9298580423306444,,,true,hl,5140.480999952299,response,1.2695509547992938,1.2,-1.2,-0.9641099676945492,1.2,-1.2,high,low,,ISIC_4603706.JPG,,ISIC_0025841.JPG,,26,true,0.3600000000000002,hl,keypress(j),0,false,375738.7000000477,375738.2999999523,370564.642,370572.10000014305,370597.819,375741.252,1,40,16,
sequence,flow.Sequence,6_15,2023-11-30T17:35:25.974Z,,,,,,,,,,,5140.480999952299,completion,,,,,,,high,low,,,,,,,true,,,,,false,375739.10000014305,375738.2999999523,370564.642,370572.10000014305,370597.819,375741.252,1,40,,
trial,html.Screen,6_16_0,2023-11-30T17:35:31.638Z,,,,1,-1.242586748440878,-1.1207933200172129,,,true,hh,5661.148000095389,response,1.0230514974175424,1.2,-1.2,0.9473579617457568,1.2,-1.2,high,high,,ISIC_0013073.JPG,,ISIC_0012037.JPG,,253,true,0.42000000000000026,hh,keypress(i),0,false,381402.7000000477,381402.40000009537,375724.653,375739.40000009537,375741.252,381452.277,1,40,17,
sequence,flow.Sequence,6_16,2023-11-30T17:35:31.638Z,,,,,,,,,,,5661.148000095389,completion,,,,,,,high,high,,,,,,,true,,,,,false,381403.2999999523,381402.40000009537,375724.653,375739.2999999523,375741.252,381452.277,1,40,,
trial,html.Screen,6_17_0,2023-11-30T17:35:39.325Z,,,,1,0.8979276789594874,-0.925374811016654,,,false,lh,7637.923000047682,response,-0.809764442462202,1.2,-1.2,1.005337148078696,1.2,-1.2,low,high,,ISIC_4208361.JPG,,ISIC_2379379.JPG,,27,true,0.42000000000000026,hl,keypress(j),0,false,389090.5,389090.2000000477,381402.392,381403.5,381452.277,389117.2,1,40,18,
sequence,flow.Sequence,6_17,2023-11-30T17:35:39.326Z,,,,,,,,,,,7637.923000047682,completion,,,,,,,low,high,,,,,,,true,,,,,false,389091,389090.2000000477,381402.392,381403.5,381452.277,389117.2,1,40,,
trial,html.Screen,6_18_0,2023-11-30T17:35:44.068Z,,,,1,0.8979276789594874,-0.925374811016654,,,false,lh,4716.200000095356,response,-0.991146183030456,1.2,-1.2,0.9949639823722534,1.2,-1.2,low,high,,ISIC_4208361.JPG,,ISIC_6342224.JPG,,27,true,0.42000000000000026,ll,keypress(f),0,false,393833.60000014305,393833.40000009537,389083.948,389091.2000000477,389117.2,393859.769,1,40,19,
sequence,flow.Sequence,6_18,2023-11-30T17:35:44.069Z,,,,,,,,,,,4716.200000095356,completion,,,,,,,low,high,,,,,,,true,,,,,false,393833.7000000477,393833.40000009537,389083.948,389091.10000014305,389117.2,393859.769,1,40,,
trial,html.Screen,6_19_0,2023-11-30T17:35:49.005Z,,,,1,1.0865333402803938,-1.0542635307358266,,,false,lh,4909.83100014308,response,-0.8816288864119318,1.2,-1.2,0.801867301188093,1.2,-1.2,low,high,,ISIC_0034006.JPG,,ISIC_9196783.JPG,,27,true,0.42000000000000026,ll,keypress(f),0,false,398769.7999999523,398769.60000014305,393826.558,393833.7999999523,393859.769,398786.001,1,40,20,
sequence,flow.Sequence,6_19,2023-11-30T17:35:49.005Z,,,,,,,,,,,4909.83100014308,completion,,,,,,,low,high,,,,,,,true,,,,,false,398770.10000014305,398769.60000014305,393826.558,393833.7000000477,393859.769,398786.001,1,40,,
trial,html.Screen,6_20_0,2023-11-30T17:35:54.918Z,,,,1,-0.8200962008791046,0.7936051642828523,,,true,hl,5896.699000047694,response,1.011737552725394,1.2,-1.2,-0.8500530224490773,1.2,-1.2,high,low,,ISIC_0027031.JPG,,ISIC_2998367.JPG,,26,true,0.3600000000000002,hl,keypress(j),0,false,404683.10000014305,404682.7000000477,398769.306,398770.2999999523,398786.001,404697.611,1,40,21,
sequence,flow.Sequence,6_20,2023-11-30T17:35:54.918Z,,,,,,,,,,,5896.699000047694,completion,,,,,,,high,low,,,,,,,true,,,,,false,404683.60000014305,404682.7000000477,398769.306,398770.2000000477,398786.001,404697.611,1,40,,
trial,html.Screen,6_21_0,2023-11-30T17:36:00.566Z,,,,1,-1.1253220985777015,-1.108725659461368,,,true,hh,5632.688999952341,response,1.3189473926989124,1.2,-1.2,1.0770264364718942,1.2,-1.2,high,high,,ISIC_0054954.JPG,,ISIC_6093728.JPG,,253,true,0.42000000000000026,hh,keypress(i),0,false,410330.7000000477,410330.2999999523,404681.031,404683.7999999523,404697.611,410375.256,1,40,22,
sequence,flow.Sequence,6_21,2023-11-30T17:36:00.566Z,,,,,,,,,,,5632.688999952341,completion,,,,,,,high,high,,,,,,,true,,,,,false,410331.2999999523,410330.2999999523,404681.031,404683.7999999523,404697.611,410375.256,1,40,,
trial,html.Screen,6_22_0,2023-11-30T17:36:07.206Z,,,,1,-1.0115965332688306,0.8282633603842442,,,false,hl,6595.543999952322,response,1.0865333402803938,1.2,-1.2,-1.0542635307358266,1.2,-1.2,high,low,,ISIC_1069587.JPG,,ISIC_0034006.JPG,,26,true,0.3600000000000002,lh,keypress(e),0,false,416971.10000014305,416970.7999999523,410325.128,410331.5,410375.256,416988.146,1,40,23,
sequence,flow.Sequence,6_22,2023-11-30T17:36:07.207Z,,,,,,,,,,,6595.543999952322,completion,,,,,,,high,low,,,,,,,true,,,,,false,416971.60000014305,416970.7999999523,410325.128,410331.40000009537,410375.256,416988.146,1,40,,
trial,html.Screen,6_23_0,2023-11-30T17:36:11.006Z,,,,1,1.131522954199764,1.1047184491749509,,,true,ll,3782.353999999992,response,-0.8872078434702474,1.2,-1.2,-1.4383702571721826,1.2,-1.2,low,low,,ISIC_1868816.JPG,,ISIC_0029995.JPG,,339,true,0.42000000000000026,ll,keypress(f),0,false,420770.90000009537,420770.5,416971.596,416971.7999999523,416988.146,420778.914,1,40,24,
sequence,flow.Sequence,6_23,2023-11-30T17:36:11.006Z,,,,,,,,,,,3782.353999999992,completion,,,,,,,low,low,,,,,,,true,,,,,false,420771.40000009537,420770.5,416971.596,416971.7999999523,416988.146,420778.914,1,40,,
trial,html.Screen,6_24_0,2023-11-30T17:36:15.197Z,,,,1,-1.101346104814838,-1.1225813067473052,,,true,hh,4183.286000047694,response,1.201100953917304,1.2,-1.2,1.1751492358160105,1.2,-1.2,high,high,,ISIC_8175453.JPG,,ISIC_0647224.JPG,,26,true,0.15000000000000002,hh,keypress(i),0,false,424962.5,424962.2000000477,420762.314,420771.90000009537,420778.914,424970.303,1,40,25,
sequence,flow.Sequence,6_24,2023-11-30T17:36:15.198Z,,,,,,,,,,,4183.286000047694,completion,,,,,,,high,high,,,,,,,true,,,,,false,424963,424962.2000000477,420762.314,420771.90000009537,420778.914,424970.303,1,40,,
trial,html.Screen,6_25_0,2023-11-30T17:36:20.974Z,,,,1,-1.2282561398079586,-1.210457198775374,,,false,hh,5768.397000047669,response,1.0717785279820962,1.2,-1.2,1.1267239445830604,1.2,-1.2,high,high,,ISIC_9141817.JPG,,ISIC_9948815.JPG,,26,true,0.15000000000000002,hl,keypress(j),0,false,430739,430738.7000000477,424953.696,424963.40000009537,424970.303,430748.237,1,40,26,
sequence,flow.Sequence,6_25,2023-11-30T17:36:20.975Z,,,,,,,,,,,5768.397000047669,completion,,,,,,,high,high,,,,,,,true,,,,,false,430739.60000014305,430738.7000000477,424953.696,424963.2999999523,424970.303,430748.237,1,40,,
trial,html.Screen,6_26_0,2023-11-30T17:36:24.398Z,,,,1,1.0959058628476686,1.1684835186766898,,,true,ll,3414.1630000953446,response,-1.2071341803968807,1.2,-1.2,-1.235960269089932,1.2,-1.2,low,low,,ISIC_5920470.JPG,,ISIC_0058174.JPG,,30,true,0.1,ll,keypress(f),0,false,434162.7000000477,434162.40000009537,430731.704,430739.90000009537,430748.237,434171.564,1,40,27,
sequence,flow.Sequence,6_26,2023-11-30T17:36:24.399Z,,,,,,,,,,,3414.1630000953446,completion,,,,,,,low,low,,,,,,,true,,,,,false,434163.2999999523,434162.40000009537,430731.704,430739.7999999523,430748.237,434171.564,1,40,,
trial,html.Screen,6_27_0,2023-11-30T17:36:28.222Z,,,,1,-1.2915523362516486,-1.1264977790562936,,,true,hh,3814.8360000953544,response,1.241406480986552,1.2,-1.2,1.081912821786771,1.2,-1.2,high,high,,ISIC_0502582.JPG,,ISIC_4223155.JPG,,26,true,0.15000000000000002,hh,keypress(i),0,false,437986.7999999523,437986.40000009537,434154.908,434163.60000014305,434171.564,437995.678,1,40,28,
sequence,flow.Sequence,6_27,2023-11-30T17:36:28.223Z,,,,,,,,,,,3814.8360000953544,completion,,,,,,,high,high,,,,,,,true,,,,,false,437987.2000000477,437986.40000009537,434154.908,434163.5,434171.564,437995.678,1,40,,
trial,html.Screen,6_28_0,2023-11-30T17:36:32.486Z,,,,1,-1.152619213055059,-1.1117876838408909,,,true,hh,4254.922000143037,response,1.2503149164557643,1.2,-1.2,1.0796591227570405,1.2,-1.2,high,high,,ISIC_0061915.JPG,,ISIC_2466892.JPG,,26,true,0.15000000000000002,hh,keypress(i),0,false,442250.90000009537,442250.60000014305,437978.956,437987.60000014305,437995.678,442254.048,1,40,29,
sequence,flow.Sequence,6_28,2023-11-30T17:36:32.487Z,,,,,,,,,,,4254.922000143037,completion,,,,,,,high,high,,,,,,,true,,,,,false,442251.5,442250.60000014305,437978.956,437987.5,437995.678,442254.048,1,40,,
trial,html.Screen,6_29_0,2023-11-30T17:36:35.437Z,,,,1,-1.255256820488545,-1.1206426433062562,,,true,hh,2947.0520001430414,response,1.3411179702686655,1.2,-1.2,1.255103311449152,1.2,-1.2,high,high,,ISIC_0024652.JPG,,ISIC_5611010.JPG,,26,true,0.15000000000000002,hh,keypress(i),0,false,445201.2000000477,445201.10000014305,442237.468,442251.7999999523,442254.048,445209.722,1,40,30,
sequence,flow.Sequence,6_29,2023-11-30T17:36:35.437Z,,,,,,,,,,,2947.0520001430414,completion,,,,,,,high,high,,,,,,,true,,,,,false,445201.40000009537,445201.10000014305,442237.468,442251.7000000477,442254.048,445209.722,1,40,,
trial,html.Screen,6_30_0,2023-11-30T17:36:38.022Z,,,,1,1.2024083555600384,1.149077673153018,,,true,ll,2576.6780000953586,response,-1.1474466950560966,1.2,-1.2,-1.268445326285509,1.2,-1.2,low,low,,ISIC_3566243.JPG,,ISIC_5216586.JPG,,30,true,0.1,ll,keypress(f),0,false,447786.7000000477,447786.40000009537,445193.238,445201.40000009537,445209.722,447831.492,1,40,31,
sequence,flow.Sequence,6_30,2023-11-30T17:36:38.023Z,,,,,,,,,,,2576.6780000953586,completion,,,,,,,low,low,,,,,,,true,,,,,false,447787.2000000477,447786.40000009537,445193.238,445201.40000009537,445209.722,447831.492,1,40,,
trial,html.Screen,6_31_0,2023-11-30T17:36:42.958Z,,,,1,0.8979276789594874,-0.925374811016654,,,false,lh,4890.807999952289,response,-0.8092423703106274,1.2,-1.2,1.1870093485714288,1.2,-1.2,low,high,,ISIC_4208361.JPG,,ISIC_8592235.JPG,,27,true,0.42000000000000026,hl,keypress(j),0,false,452722.7000000477,452722.2999999523,447781.589,447787.5,447831.492,452742.67,1,40,32,
sequence,flow.Sequence,6_31,2023-11-30T17:36:42.959Z,,,,,,,,,,,4890.807999952289,completion,,,,,,,low,high,,,,,,,true,,,,,false,452723.2000000477,452722.2999999523,447781.589,447787.5,447831.492,452742.67,1,40,,
trial,html.Screen,6_32_0,2023-11-30T17:36:45.574Z,,,,1,-1.242586748440878,-1.1207933200172129,,,true,hh,2595.7300000953837,response,0.8905967612561353,1.2,-1.2,1.4357701139114123,1.2,-1.2,high,high,,ISIC_0013073.JPG,,ISIC_0033166.JPG,,179,true,0.3600000000000002,hh,keypress(i),0,false,455338.7000000477,455338.40000009537,452707.767,452723.40000009537,452742.67,455379.526,1,40,33,
sequence,flow.Sequence,6_32,2023-11-30T17:36:45.575Z,,,,,,,,,,,2595.7300000953837,completion,,,,,,,high,high,,,,,,,true,,,,,false,455339.10000014305,455338.40000009537,452707.767,452723.40000009537,452742.67,455379.526,1,40,,
trial,html.Screen,6_33_0,2023-11-30T17:36:53.974Z,,,,1,0.8579451262594331,-0.9633172970727744,,,true,lh,8359.174000047671,response,-0.8200962008791046,1.2,-1.2,0.7936051642828523,1.2,-1.2,low,high,,ISIC_0067172.JPG,,ISIC_0027031.JPG,,27,true,0.42000000000000026,lh,keypress(e),0,false,463738.90000009537,463738.7000000477,455329.634,455339.40000009537,455379.526,463745.799,1,40,34,
sequence,flow.Sequence,6_33,2023-11-30T17:36:53.975Z,,,,,,,,,,,8359.174000047671,completion,,,,,,,low,high,,,,,,,true,,,,,false,463739.5,463738.7000000477,455329.634,455339.40000009537,455379.526,463745.799,1,40,,
trial,html.Screen,6_34_0,2023-11-30T17:36:57.325Z,,,,1,1.131522954199764,1.1047184491749509,,,true,ll,3343.500999952317,response,-1.2435042401134029,1.2,-1.2,-1.0592032583207498,1.2,-1.2,low,low,,ISIC_1868816.JPG,,ISIC_0056119.JPG,,245,true,0.3600000000000002,ll,keypress(f),0,false,467089.40000009537,467089.2999999523,463729.204,463739.7999999523,463745.799,467102.494,1,40,35,
sequence,flow.Sequence,6_34,2023-11-30T17:36:57.325Z,,,,,,,,,,,3343.500999952317,completion,,,,,,,low,low,,,,,,,true,,,,,false,467089.60000014305,467089.2999999523,463729.204,463739.7000000477,463745.799,467102.494,1,40,,
trial,html.Screen,6_35_0,2023-11-30T17:37:02.038Z,,,,1,-1.2071341803968807,-1.235960269089932,,,false,hh,4699.906000095361,response,1.2706447584800626,1.2,-1.2,1.0903308007916603,1.2,-1.2,high,high,,ISIC_0058174.JPG,,ISIC_9425937.JPG,,26,true,0.15000000000000002,hl,keypress(j),0,false,471802.7000000477,471802.40000009537,467085.619,467089.7000000477,467102.494,471844.894,1,40,36,
sequence,flow.Sequence,6_35,2023-11-30T17:37:02.039Z,,,,,,,,,,,4699.906000095361,completion,,,,,,,high,high,,,,,,,true,,,,,false,471803.2000000477,471802.40000009537,467085.619,467089.60000014305,467102.494,471844.894,1,40,,
trial,html.Screen,6_36_0,2023-11-30T17:37:08.118Z,,,,1,-0.8035152873995188,0.82868450251632,,,false,hl,6037.405999952345,response,1.0026266089287914,1.2,-1.2,-1.0913275913920335,1.2,-1.2,high,low,,ISIC_0010671.JPG,,ISIC_0033520.JPG,,26,true,0.3600000000000002,lh,keypress(e),0,false,477882.60000014305,477882.2999999523,471795.022,471803.5,471844.894,477889.977,1,40,37,
sequence,flow.Sequence,6_36,2023-11-30T17:37:08.119Z,,,,,,,,,,,6037.405999952345,completion,,,,,,,high,low,,,,,,,true,,,,,false,477883.10000014305,477882.2999999523,471795.022,471803.40000009537,471844.894,477889.977,1,40,,
trial,html.Screen,6_37_0,2023-11-30T17:37:10.798Z,,,,1,1.057008495826831,1.1278122585028287,,,true,ll,2672.22300004767,response,-1.29026082950341,1.2,-1.2,-1.144672688339213,1.2,-1.2,low,low,,ISIC_2819798.JPG,,ISIC_0054317.JPG,,339,true,0.42000000000000026,ll,keypress(f),0,false,480562.5,480562.2000000477,477873.391,477883.40000009537,477889.977,480611.995,1,40,38,
sequence,flow.Sequence,6_37,2023-11-30T17:37:10.798Z,,,,,,,,,,,2672.22300004767,completion,,,,,,,low,low,,,,,,,true,,,,,false,480563.10000014305,480562.2000000477,477873.391,477883.40000009537,477889.977,480611.995,1,40,,
trial,html.Screen,6_38_0,2023-11-30T17:37:13.574Z,,,,1,1.0865333402803938,-1.0542635307358266,,,true,lh,2726.2050000476884,response,-0.7833710010171356,1.2,-1.2,0.9315588090336896,1.2,-1.2,low,high,,ISIC_0034006.JPG,,ISIC_3826102.JPG,,27,true,0.42000000000000026,lh,keypress(e),0,false,483338.60000014305,483338.2000000477,480562.058,480563.2999999523,480611.995,483367.331,1,40,39,
sequence,flow.Sequence,6_38,2023-11-30T17:37:13.574Z,,,,,,,,,,,2726.2050000476884,completion,,,,,,,low,high,,,,,,,true,,,,,false,483339,483338.2000000477,480562.058,480563.2999999523,480611.995,483367.331,1,40,,
trial,html.Screen,6_39_0,2023-11-30T17:37:18.014Z,,,,1,-0.991146183030456,0.9949639823722534,,,true,hl,4411.168999999994,response,0.9454713230140772,1.2,-1.2,-0.9245167441969216,1.2,-1.2,high,low,,ISIC_6342224.JPG,,ISIC_9101055.JPG,,26,true,0.3600000000000002,hl,keypress(j),0,false,487778.90000009537,487778.5,483334.147,483339.40000009537,483367.331,487792.634,1,40,40,
sequence,flow.Sequence,6_39,2023-11-30T17:37:18.015Z,,,,,,,,,,,4411.168999999994,completion,,,,,,,high,low,,,,,,,true,,,,,false,487779.40000009537,487778.5,483334.147,483339.2999999523,483367.331,487792.634,1,40,,
practice_loop,flow.Loop,6,2023-11-30T17:37:18.015Z,,,,,,,,,,,208608.642,completion,,,,,,,,,,,,,,,true,,,,,false,487779.7000000477,487778.5,279120.004,279130.10000014305,279169.858,487792.634,1,40,,
stair_instructions,html.Screen,7,2023-11-30T17:37:36.420Z,,,,,,,,,,,18391.86599999998,response,,,,,,,,,,,,,,,,,continue,click button,,,506184.90000009537,506184.5,487776.086,487779.90000009537,487792.634,506195.07,,,,
trial,html.Screen,8_0_0,2023-11-30T17:37:44.134Z,,,,2,0.0362376068089956,0.047825070846155,,0.05,false,hl,7703.33000009536,response,0.8579451262594331,1.2,-1.2,-0.9633172970727744,1.2,-1.2,high,low,,ISIC_6985114.JPG,,ISIC_0067172.JPG,33,33,false,0.42000000000000026,hh,keypress(i),0,true,513898.90000009537,513898.40000009537,506178.665,506185,506195.07,513926.787,1,40,1,
sequence,flow.Sequence,8_0,2023-11-30T17:37:44.135Z,,,,,,,,,,,7703.33000009536,completion,,,,,,,high,low,,,,,,,false,,,,,true,513899.40000009537,513898.40000009537,506178.665,506185,506195.07,513926.787,1,40,,
trial,html.Screen,8_1_0,2023-11-30T17:37:49.126Z,,,,2,-0.0450282431170921,0,,0.05,false,hl,4964.012999952305,response,0.8579451262594331,1.15,-1.15,-0.9633172970727744,1.15,-1.2,high,low,,ISIC_1805163.JPG,,ISIC_0067172.JPG,33,26,false,0.3500000000000002,lh,keypress(e),0,true,518891.2000000477,518890.7999999523,513893.666,513899.7000000477,513926.787,518936.553,1,40,2,
sequence,flow.Sequence,8_1,2023-11-30T17:37:49.127Z,,,,,,,,,,,4964.012999952305,completion,,,,,,,high,low,,,,,,,false,,,,,true,518891.7000000477,518890.7999999523,513893.666,513899.60000014305,513926.787,518936.553,1,40,,
trial,html.Screen,8_2_0,2023-11-30T17:37:55.158Z,,,,2,0.0112310719058792,-0.0469047359904117,,0.05,false,hl,5986.047000143037,response,0.8579451262594331,1.15,-1.15,-0.9633172970727744,1.15,-1.2,high,low,,ISIC_0068184.JPG,,ISIC_0067172.JPG,33,26,false,0.3500000000000002,lh,keypress(e),0,true,524922.9000000954,524922.600000143,518886.539,518891.90000009537,518936.553,524931.585,1,40,3,
sequence,flow.Sequence,8_2,2023-11-30T17:37:55.159Z,,,,,,,,,,,5986.047000143037,completion,,,,,,,high,low,,,,,,,false,,,,,true,524923.2999999523,524922.600000143,518886.539,518891.7999999523,518936.553,524931.585,1,40,,
trial,html.Screen,8_3_0,2023-11-30T17:37:59.877Z,,,,2,-0.0050679133050021,0.0009714874637896,,0.05,false,hh,4709.7149999523535,response,1.2012395086389958,1.15,-1.15,1.0618985767073823,1.15,-1.2,high,high,,ISIC_9848743.JPG,,ISIC_9876004.JPG,33,30,false,0.13,hl,keypress(j),0,true,529641.2999999523,529641.2999999523,524914.966,524923.7000000477,524931.585,529674.116,1,40,4,
sequence,flow.Sequence,8_3,2023-11-30T17:37:59.877Z,,,,,,,,,,,4709.7149999523535,completion,,,,,,,high,high,,,,,,,false,,,,,true,529641.5,529641.2999999523,524914.966,524923.600000143,524931.585,529674.116,1,40,,
trial,html.Screen,8_4_0,2023-11-30T17:38:05.207Z,,,,2,0.0159061451859594,0.0296598845560212,,0.05,true,lh,5296.784000095329,response,-0.991146183030456,1.15,-1.15,0.9949639823722534,1.15,-1.15,low,high,,ISIC_0072564.JPG,,ISIC_6342224.JPG,33,27,false,0.3700000000000002,lh,keypress(e),0,true,534971.2000000477,534970.9000000954,529640.936,529641.600000143,529674.116,534984.441,1,40,5,
sequence,flow.Sequence,8_4,2023-11-30T17:38:05.207Z,,,,,,,,,,,5296.784000095329,completion,,,,,,,low,high,,,,,,,false,,,,,true,534971.7000000477,534970.9000000954,529640.936,529641.600000143,529674.116,534984.441,1,40,,
trial,html.Screen,8_5_0,2023-11-30T17:38:13.118Z,,,,2,0.013431314305098,-0.0140597582944232,,0.05,false,ll,7898.358999952325,response,-1.2169050727663315,1.15,-1.15,-1.1067845563421794,1.15,-1.15,low,low,,ISIC_0069617.JPG,,ISIC_7016261.JPG,33,27,false,0.1,lh,keypress(e),0,true,542883.100000143,542882.7999999523,534967.734,534972,534984.441,542899.902,1,40,6,
sequence,flow.Sequence,8_5,2023-11-30T17:38:13.119Z,,,,,,,,,,,7898.358999952325,completion,,,,,,,low,low,,,,,,,false,,,,,true,542883.7000000477,542882.7999999523,534967.734,534971.9000000954,534984.441,542899.902,1,40,,
trial,html.Screen,8_6_0,2023-11-30T17:38:18.078Z,,,,2,-0.0329095507339554,0.0382899749693245,,0.05,false,lh,4942.798000047682,response,-0.948927472020595,1.15,-1.0999999999999999,1.0660437155921598,1.15,-1.15,low,high,,ISIC_8812781.JPG,,ISIC_5808758.JPG,33,28,false,0.3600000000000002,hh,keypress(i),0,true,547843,547842.7000000477,542883.268,542883.9000000954,542899.902,547859.597,1,40,7,
sequence,flow.Sequence,8_6,2023-11-30T17:38:18.079Z,,,,,,,,,,,4942.798000047682,completion,,,,,,,low,high,,,,,,,false,,,,,true,547843.4000000954,547842.7000000477,542883.268,542883.7999999523,542899.902,547859.597,1,40,,
trial,html.Screen,8_7_0,2023-11-30T17:38:26.309Z,,,,2,0.0102460616775615,-0.0309670599545429,,0.05,false,hh,8213.803000095417,response,1.0909285203537074,1.15,-1.15,1.013890238726642,0.9805038489822067,-1.15,high,high,,ISIC_0072041.JPG,,ISIC_0033799.JPG,33,26,false,0.1,hl,keypress(j),0,true,556073.5,556073.4000000954,547842.812,547843.7000000477,547859.597,556092.205,1,40,8,
sequence,flow.Sequence,8_7,2023-11-30T17:38:26.309Z,,,,,,,,,,,8213.803000095417,completion,,,,,,,high,high,,,,,,,false,,,,,true,556073.600000143,556073.4000000954,547842.812,547843.600000143,547859.597,556092.205,1,40,,
trial,html.Screen,8_8_0,2023-11-30T17:38:31.246Z,,,,2,0.013431314305098,-0.0140597582944232,,0.05,true,hl,4918.395000143093,response,0.8487429103619056,0.9929462513629803,-1.15,-0.9778257804233036,1.0305038489822067,-1.15,high,low,,ISIC_0069617.JPG,,ISIC_4554863.JPG,33,25,false,0.2600000000000001,hl,keypress(j),0,true,561011,561010.600000143,556058.776,556073.7000000477,556092.205,561018.474,1,40,9,
sequence,flow.Sequence,8_8,2023-11-30T17:38:31.247Z,,,,,,,,,,,4918.395000143093,completion,,,,,,,high,low,,,,,,,false,,,,,true,561011.600000143,561010.600000143,556058.776,556073.7000000477,556092.205,561018.474,1,40,,
trial,html.Screen,8_9_0,2023-11-30T17:38:36.998Z,,,,2,-0.0116094682222121,0.0258434522530318,,0.05,false,hl,5743.1260001430055,response,1.020990671779317,0.9929462513629803,-1.15,-1.0116513850520903,1.0305038489822067,-1.15,high,low,,ISIC_9239632.JPG,,ISIC_0011995.JPG,33,25,false,0.2600000000000001,lh,keypress(e),0,true,566761.7000000477,566761.600000143,561001.956,561011.9000000954,561018.474,566780.045,1,40,10,
sequence,flow.Sequence,8_9,2023-11-30T17:38:36.998Z,,,,,,,,,,,5743.1260001430055,completion,,,,,,,high,low,,,,,,,false,,,,,true,566761.9000000954,566761.600000143,561001.956,561011.7999999523,561018.474,566780.045,1,40,,
trial,html.Screen,8_10_0,2023-11-30T17:38:41.102Z,,,,2,-0.007397293189458,-0.0174716772037504,,0.05,true,ll,4085.0550001430092,response,-1.242586748440878,1.0429462513629804,-1.15,-1.1207933200172129,1.0305038489822067,-1.15,low,low,,ISIC_0056226.JPG,,ISIC_0013073.JPG,33,27,false,0.1,ll,keypress(f),0,true,570865.100000143,570865.100000143,566746.253,566762,566780.045,570870.978,1,40,11,
sequence,flow.Sequence,8_10,2023-11-30T17:38:41.102Z,,,,,,,,,,,4085.0550001430092,completion,,,,,,,low,low,,,,,,,false,,,,,true,570865.2000000477,570865.100000143,566746.253,566762,566780.045,570870.978,1,40,,
trial,html.Screen,8_11_0,2023-11-30T17:38:48.688Z,,,,2,0.0112310719058792,-0.0469047359904117,,0.05,true,ll,7580.122000143048,response,-1.0698162624196283,1.0429462513629804,-1.15,-1.219634566983089,1.0305038489822067,-1.15,low,low,,ISIC_0068184.JPG,,ISIC_0030552.JPG,33,27,false,0.1,ll,keypress(f),0,true,578451.4000000954,578451.100000143,570854.511,570865.2999999523,570870.978,578469.318,1,40,12,
sequence,flow.Sequence,8_11,2023-11-30T17:38:48.688Z,,,,,,,,,,,7580.122000143048,completion,,,,,,,low,low,,,,,,,false,,,,,true,578451.9000000954,578451.100000143,570854.511,570865.2999999523,570870.978,578469.318,1,40,,
trial,html.Screen,8_12_0,2023-11-30T17:38:52.087Z,,,,2,-0.0363437082783146,-0.0333332186217051,,0.05,true,hh,3381.3820000477135,response,1.0769490291795207,1.0429462513629804,-1.1202139435001508,1.0174515954885954,1.0305038489822067,-1.1202139435001508,high,high,,ISIC_3314555.JPG,,ISIC_0028135.JPG,33,31,false,0.1,hh,keypress(i),0,true,581851,581850.7000000477,578452.605,578452.2000000477,578469.318,581859.042,1,40,13,
sequence,flow.Sequence,8_12,2023-11-30T17:38:52.088Z,,,,,,,,,,,3381.3820000477135,completion,,,,,,,high,high,,,,,,,false,,,,,true,581851.600000143,581850.7000000477,578452.605,578452.100000143,578469.318,581859.042,1,40,,
trial,html.Screen,8_13_0,2023-11-30T17:38:56.288Z,,,,2,-0.0070725527271049,-0.0049995141077508,,0.05,true,hh,4191.7579999523,response,1.037577073517966,1.0429462513629804,-1.1202139435001508,1.027048110709042,1.0305038489822067,-1.1202139435001508,high,high,,ISIC_6124481.JPG,,ISIC_0004932.JPG,33,31,false,0.1,hh,keypress(i),0,true,586051.2000000477,586050.7999999523,581842.54,581851.9000000954,581859.042,586067.3,1,40,14,
sequence,flow.Sequence,8_13,2023-11-30T17:38:56.288Z,,,,,,,,,,,4191.7579999523,completion,,,,,,,high,high,,,,,,,false,,,,,true,586051.7000000477,586050.7999999523,581842.54,581851.7999999523,581859.042,586067.3,1,40,,
trial,html.Screen,8_14_0,2023-11-30T17:39:02.568Z,,,,2,0.0409338693593207,-0.0072462710499874,,0.05,false,ll,6263.699999999953,response,-1.0700930503975157,0.9722498530988186,-1.1202139435001508,-1.2020012168275056,0.9722498530988186,-1.1202139435001508,low,low,,ISIC_3608788.JPG,,ISIC_0000022.JPG,33,28,false,0.1,lh,keypress(e),0,true,592331.2999999523,592331,586050.527,586052,586067.3,592346.12,1,40,15,
sequence,flow.Sequence,8_14,2023-11-30T17:39:02.568Z,,,,,,,,,,,6263.699999999953,completion,,,,,,,low,low,,,,,,,false,,,,,true,592331.9000000954,592331,586050.527,586051.9000000954,586067.3,592346.12,1,40,,
trial,html.Screen,8_15_0,2023-11-30T17:39:08.255Z,,,,2,-0.0456515796420274,0.0273567130070961,,0.05,false,lh,5672.480000143056,response,-1.2429840165564423,0.9722498530988186,-1.1202139435001508,0.7308963943423881,0.9722498530988186,-1.1702139435001508,low,high,,ISIC_0068610.JPG,,ISIC_1264576.JPG,33,25,false,0.30000000000000016,ll,keypress(f),0,true,598018.9000000954,598018.600000143,592329.577,592332.100000143,592346.12,598023.819,1,40,16,
sequence,flow.Sequence,8_15,2023-11-30T17:39:08.256Z,,,,,,,,,,,5672.480000143056,completion,,,,,,,low,high,,,,,,,false,,,,,true,598019.4000000954,598018.600000143,592329.577,592332,592346.12,598023.819,1,40,,
trial,html.Screen,8_16_0,2023-11-30T17:39:12.095Z,,,,2,0.0113873532168551,0.0054999201556291,,0.05,false,ll,3834.5810000953497,response,-1.1783311757907324,0.9722498530988186,-1.1065385334769788,-1.0915173513546716,1.0222498530988187,-1.1702139435001508,low,low,,ISIC_8812621.JPG,,ISIC_8241457.JPG,33,27,false,0.1,hh,keypress(i),0,true,601858.7000000477,601858.4000000954,598007.155,598019.7000000477,598023.819,601881.347,1,40,17,
sequence,flow.Sequence,8_16,2023-11-30T17:39:12.096Z,,,,,,,,,,,3834.5810000953497,completion,,,,,,,low,low,,,,,,,false,,,,,true,601859.2999999523,601858.4000000954,598007.155,598019.600000143,598023.819,601881.347,1,40,,
trial,html.Screen,8_17_0,2023-11-30T17:39:19.432Z,,,,2,-0.0324770283903853,-0.0249968632204382,,0.05,false,hl,7313.553000095417,response,0.9579209317488,0.9722498530988186,-1.1565385334769789,-1.0147487101263497,1.0222498530988187,-1.1702139435001508,high,low,,ISIC_7266462.JPG,,ISIC_8124482.JPG,33,26,false,0.2600000000000001,lh,keypress(e),0,true,609195.2000000477,609194.9000000954,601848.2,601859.5,601881.347,609212.279,1,40,18,
sequence,flow.Sequence,8_17,2023-11-30T17:39:19.432Z,,,,,,,,,,,7313.553000095417,completion,,,,,,,high,low,,,,,,,false,,,,,true,609195.7000000477,609194.9000000954,601848.2,601859.5,601881.347,609212.279,1,40,,
trial,html.Screen,8_18_0,2023-11-30T17:39:27.255Z,,,,2,0.0112310719058792,-0.0469047359904117,,0.05,false,hl,7806.321000143071,response,0.858338058340649,1.0222498530988187,-1.1565385334769789,-0.9540612223480284,1.0222498530988187,-1.1702139435001508,high,low,,ISIC_0068184.JPG,,ISIC_8922893.JPG,33,25,false,0.2600000000000001,ll,keypress(f),0,true,617018.9000000954,617018.600000143,609195.75,609196,609212.279,617044.197,1,40,19,
sequence,flow.Sequence,8_18,2023-11-30T17:39:27.256Z,,,,,,,,,,,7806.321000143071,completion,,,,,,,high,low,,,,,,,false,,,,,true,617019.4000000954,617018.600000143,609195.75,609195.9000000954,609212.279,617044.197,1,40,,
trial,html.Screen,8_19_0,2023-11-30T17:39:34.488Z,,,,2,-0.0027483411352856,-0.0100996915276271,,0.05,false,hl,7206.6029999522725,response,1.0865333402803938,1.0722498530988187,-1.1565385334769789,-1.0542635307358266,1.0222498530988187,-1.1702139435001508,high,low,,ISIC_7364041.JPG,,ISIC_0034006.JPG,33,26,false,0.30000000000000016,lh,keypress(e),0,true,624251.100000143,624250.7999999523,617010.976,617019.7000000477,617044.197,624258.238,1,40,20,
sequence,flow.Sequence,8_19,2023-11-30T17:39:34.488Z,,,,,,,,,,,7206.6029999522725,completion,,,,,,,high,low,,,,,,,false,,,,,true,624251.7000000477,624250.7999999523,617010.976,617019.600000143,617044.197,624258.238,1,40,,
trial,html.Screen,8_20_0,2023-11-30T17:39:38.063Z,,,,2,0,0.0264544974620926,,0.05,false,hh,3567.362000143039,response,1.0769490291795207,1.1222498530988188,-1.1565385334769789,1.0174515954885954,1.0222498530988187,-1.1702139435001508,high,high,,ISIC_0056991.JPG,,ISIC_0028135.JPG,33,26,false,0.1,hl,keypress(j),0,true,627825.7000000477,627825.600000143,624241.76,624251.9000000954,624258.238,627831.861,1,40,21,
sequence,flow.Sequence,8_20,2023-11-30T17:39:38.063Z,,,,,,,,,,,3567.362000143039,completion,,,,,,,high,high,,,,,,,false,,,,,true,627826,627825.600000143,624241.76,624251.7999999523,624258.238,627831.861,1,40,,
trial,html.Screen,8_21_0,2023-11-30T17:39:42.936Z,,,,2,0.0362376068089956,0.047825070846155,,0.05,false,ll,4866.739000143018,response,-1.1783311757907324,1.1222498530988188,-1.1565385334769789,-1.0915173513546716,1.0722498530988187,-1.1702139435001508,low,low,,ISIC_6985114.JPG,,ISIC_8241457.JPG,33,32,false,0.1,lh,keypress(e),0,true,632699,632698.600000143,627815.215,627826.100000143,627831.861,632741.429,1,40,22,
sequence,flow.Sequence,8_21,2023-11-30T17:39:42.936Z,,,,,,,,,,,4866.739000143018,completion,,,,,,,low,low,,,,,,,false,,,,,true,632699.5,632698.600000143,627815.215,627826,627831.861,632741.429,1,40,,
trial,html.Screen,8_22_0,2023-11-30T17:39:45.975Z,,,,2,-0.0050679133050021,0.0009714874637896,,0.05,false,lh,2996.0709999999963,response,-0.887838744955182,1.1222498530988188,-1.1565385334769789,0.7545096650863988,1.0722498530988187,-1.1702139435001508,low,high,,ISIC_9848743.JPG,,ISIC_1488727.JPG,33,32,false,0.3700000000000002,ll,keypress(f),0,true,635737.7000000477,635737.5,632691.392,632699.7000000477,632741.429,635747.271,1,40,23,
sequence,flow.Sequence,8_22,2023-11-30T17:39:45.975Z,,,,,,,,,,,2996.0709999999963,completion,,,,,,,low,high,,,,,,,false,,,,,true,635737.7999999523,635737.5,632691.392,632699.7000000477,632741.429,635747.271,1,40,,
trial,html.Screen,8_23_0,2023-11-30T17:39:48.296Z,,,,2,-0.0070725527271049,-0.0049995141077508,,0.05,false,lh,2311.429000047734,response,-0.7197989269080959,1.1222498530988188,-0.9830849603729572,0.9410141415297968,1.1222498530988188,-1.1702139435001508,low,high,,ISIC_6124481.JPG,,ISIC_2635051.JPG,33,25,false,0.30000000000000016,ll,keypress(f),0,true,638059.100000143,638058.7000000477,635730.646,635737.9000000954,635747.271,638068.457,1,40,24,
sequence,flow.Sequence,8_23,2023-11-30T17:39:48.297Z,,,,,,,,,,,2311.429000047734,completion,,,,,,,low,high,,,,,,,false,,,,,true,638059.7000000477,638058.7000000477,635730.646,635737.9000000954,635747.271,638068.457,1,40,,
trial,html.Screen,8_24_0,2023-11-30T17:39:51.256Z,,,,2,0.0097091270150747,-0.0417921315885292,,0.05,true,hh,2950.342999952263,response,1.1137763092539212,1.1222498530988188,-0.9830849603729572,1.1599906701455132,1.1722498530988188,-1.1702139435001508,high,high,,ISIC_3967213.JPG,,ISIC_5413788.JPG,33,28,false,0.14,hh,keypress(i),0,true,641019.100000143,641018.7999999523,638051.836,638059.9000000954,638068.457,641057.61,1,40,25,
sequence,flow.Sequence,8_24,2023-11-30T17:39:51.257Z,,,,,,,,,,,2950.342999952263,completion,,,,,,,high,high,,,,,,,false,,,,,true,641019.600000143,641018.7999999523,638051.836,638059.7999999523,638068.457,641057.61,1,40,,
trial,html.Screen,8_25_0,2023-11-30T17:39:56.599Z,,,,2,0.0409338693593207,-0.0072462710499874,,0.05,true,lh,5303.890000000014,response,-0.7998855902596425,1.0868834896997173,-0.9830849603729572,1.1518579145663017,1.1722498530988188,-1.1702139435001508,low,high,,ISIC_3608788.JPG,,ISIC_0025061.JPG,33,26,false,0.3300000000000002,lh,keypress(e),0,true,646361.600000143,646361.5,641007.483,641019.7999999523,641057.61,646367.945,1,40,26,
sequence,flow.Sequence,8_25,2023-11-30T17:39:56.599Z,,,,,,,,,,,5303.890000000014,completion,,,,,,,low,high,,,,,,,false,,,,,true,646361.7000000477,646361.5,641007.483,641019.7999999523,641057.61,646367.945,1,40,,
trial,html.Screen,8_26_0,2023-11-30T17:40:05.590Z,,,,2,-0.0363437082783146,-0.0333332186217051,,0.05,false,ll,8985.354999952368,response,-0.9777849718157332,1.0868834896997173,-0.9330849603729572,-1.117811430082889,1.1059242923559074,-1.1702139435001508,low,low,,ISIC_3314555.JPG,,ISIC_3256887.JPG,33,25,false,0.1,hl,keypress(j),0,true,655353.4000000954,655353.2999999523,646351.336,646361.7999999523,646367.945,655368.81,1,40,27,
sequence,flow.Sequence,8_26,2023-11-30T17:40:05.590Z,,,,,,,,,,,8985.354999952368,completion,,,,,,,low,low,,,,,,,false,,,,,true,655353.600000143,655353.2999999523,646351.336,646361.7999999523,646367.945,655368.81,1,40,,
trial,html.Screen,8_27_0,2023-11-30T17:40:12.766Z,,,,2,-0.0107854985447517,-0.0478010417136109,,0.05,false,lh,7160.290000142995,response,-0.809764442462202,1.0868834896997173,-0.9830849603729572,1.005337148078696,1.1059242923559074,-1.1702139435001508,low,high,,ISIC_0010500.JPG,,ISIC_2379379.JPG,33,28,false,0.30000000000000016,hh,keypress(i),0,true,662529.2999999523,662529.100000143,655352.266,655353.600000143,655368.81,662549.426,1,40,28,
sequence,flow.Sequence,8_27,2023-11-30T17:40:12.766Z,,,,,,,,,,,7160.290000142995,completion,,,,,,,low,high,,,,,,,false,,,,,true,662529.4000000954,662529.100000143,655352.266,655353.600000143,655368.81,662549.426,1,40,,
trial,html.Screen,8_28_0,2023-11-30T17:40:20.048Z,,,,2,-0.0450282431170921,0,,0.05,false,hl,7261.274000047706,response,0.9433720631499012,1.0868834896997173,-1.0330849603729573,-1.0582071940347648,1.1059242923559074,-1.1702139435001508,high,low,,ISIC_1805163.JPG,,ISIC_4890201.JPG,33,27,false,0.31000000000000016,hh,keypress(i),0,true,669811,669810.7000000477,662516.161,662529.5,662549.426,669813.668,1,40,29,
sequence,flow.Sequence,8_28,2023-11-30T17:40:20.048Z,,,,,,,,,,,7261.274000047706,completion,,,,,,,high,low,,,,,,,false,,,,,true,669811.5,669810.7000000477,662516.161,662529.4000000954,662549.426,669813.668,1,40,,
trial,html.Screen,8_29_0,2023-11-30T17:40:22.624Z,,,,2,0,0.0264544974620926,,0.05,true,ll,2573.1319999523694,response,-0.9545500235555924,1.0868834896997173,-1.0330849603729573,-1.2140255839622307,1.1059242923559074,-1.1702139435001508,low,low,,ISIC_0056991.JPG,,ISIC_8704257.JPG,33,34,false,0.11,ll,keypress(f),0,true,672387.2000000477,672386.7999999523,669797.08,669811.7000000477,669813.668,672402.026,1,40,30,
sequence,flow.Sequence,8_29,2023-11-30T17:40:22.625Z,,,,,,,,,,,2573.1319999523694,completion,,,,,,,low,low,,,,,,,false,,,,,true,672387.7000000477,672386.7999999523,669797.08,669811.600000143,669813.668,672402.026,1,40,,
trial,html.Screen,8_30_0,2023-11-30T17:40:27.048Z,,,,2,-0.0027483411352856,-0.0100996915276271,,0.05,true,ll,4408.773999952362,response,-0.9545500235555924,1.0868834896997173,-1.0330849603729573,-1.2140255839622307,1.1059242923559074,-1.1702139435001508,low,low,,ISIC_7364041.JPG,,ISIC_8704257.JPG,33,34,false,0.11,ll,keypress(f),0,true,676811.100000143,676810.7999999523,672385.404,672388,672402.026,676860.598,1,40,31,
sequence,flow.Sequence,8_30,2023-11-30T17:40:27.048Z,,,,,,,,,,,4408.773999952362,completion,,,,,,,low,low,,,,,,,false,,,,,true,676811.5,676810.7999999523,672385.404,672387.9000000954,672402.026,676860.598,1,40,,
trial,html.Screen,8_31_0,2023-11-30T17:40:32.367Z,,,,2,0.0051189696037511,-0.0396625911332438,,0.05,false,lh,5269.402000000002,response,-0.7998855902596425,1.0868834896997173,-1.1640255839622307,1.1518579145663017,1.1059242923559074,-1.1640255839622307,low,high,,ISIC_9742891.JPG,,ISIC_0025061.JPG,33,28,false,0.3800000000000002,hh,keypress(i),0,true,682130.2000000477,682130,676810.637,676811.7000000477,676860.598,682137.607,1,40,32,
sequence,flow.Sequence,8_31,2023-11-30T17:40:32.367Z,,,,,,,,,,,5269.402000000002,completion,,,,,,,low,high,,,,,,,false,,,,,true,682130.5,682130,676810.637,676811.7000000477,676860.598,682137.607,1,40,,
trial,html.Screen,8_32_0,2023-11-30T17:40:36.304Z,,,,2,-0.0217698886732706,0.0410870915161425,,0.05,true,hh,3929.1929999523563,response,1.1137763092539212,1.0868834896997173,-1.1640255839622307,1.1599906701455132,1.0559242923559073,-1.1640255839622307,high,high,,ISIC_0072173.JPG,,ISIC_5413788.JPG,33,33,false,0.11,hh,keypress(i),0,true,686067.100000143,686066.7999999523,682121.014,682130.7000000477,682137.607,686078.635,1,40,33,
sequence,flow.Sequence,8_32,2023-11-30T17:40:36.305Z,,,,,,,,,,,3929.1929999523563,completion,,,,,,,high,high,,,,,,,false,,,,,true,686067.600000143,686066.7999999523,682121.014,682130.600000143,682137.607,686078.635,1,40,,
trial,html.Screen,8_33_0,2023-11-30T17:40:39.193Z,,,,2,0.0409338693593207,-0.0072462710499874,,0.05,true,hh,2876.265000095358,response,1.086647361897092,1.0868834896997173,-1.1640255839622307,1.1528935990320313,1.0559242923559073,-1.1640255839622307,high,high,,ISIC_3608788.JPG,,ISIC_3505339.JPG,33,33,false,0.11,hh,keypress(i),0,true,688955.2999999523,688954.9000000954,686062.099,686067.9000000954,686078.635,688967.51,1,40,34,
sequence,flow.Sequence,8_33,2023-11-30T17:40:39.193Z,,,,,,,,,,,2876.265000095358,completion,,,,,,,high,high,,,,,,,false,,,,,true,688955.7999999523,688954.9000000954,686062.099,686067.7999999523,686078.635,688967.51,1,40,,
trial,html.Screen,8_34_0,2023-11-30T17:40:44.487Z,,,,2,0.0409338693593207,-0.0072462710499874,,0.05,false,hl,5281.890000095358,response,0.869932994914832,1.0868834896997173,-1.1640255839622307,-0.8880533324432531,1.0697704804645616,-1.1640255839622307,high,low,,ISIC_3608788.JPG,,ISIC_8617084.JPG,33,27,false,0.31000000000000016,lh,keypress(e),0,true,694249.600000143,694249.4000000954,688950.942,688956,688967.51,694261.149,1,40,35,
sequence,flow.Sequence,8_34,2023-11-30T17:40:44.487Z,,,,,,,,,,,5281.890000095358,completion,,,,,,,high,low,,,,,,,false,,,,,true,694249.7000000477,694249.4000000954,688950.942,688955.9000000954,688967.51,694261.149,1,40,,
trial,html.Screen,8_35_0,2023-11-30T17:40:50.297Z,,,,2,0.0159061451859594,0.0296598845560212,,0.05,false,hh,5797.851000000024,response,1.0909285203537074,1.1368834896997173,-1.1640255839622307,1.013890238726642,1.0697704804645616,-1.1640255839622307,high,high,,ISIC_0072564.JPG,,ISIC_0033799.JPG,33,27,false,0.1,hl,keypress(j),0,true,700059.4000000954,700059,694244.661,694249.7999999523,694261.149,700072.481,1,40,36,
sequence,flow.Sequence,8_35,2023-11-30T17:40:50.297Z,,,,,,,,,,,5797.851000000024,completion,,,,,,,high,high,,,,,,,false,,,,,true,700059.9000000954,700059,694244.661,694249.7999999523,694261.149,700072.481,1,40,,
trial,html.Screen,8_36_0,2023-11-30T17:40:56.071Z,,,,2,-0.0324770283903853,-0.0249968632204382,,0.05,false,hh,5760.818999952287,response,1.131522954199764,1.1368834896997173,-1.1640255839622307,1.1047184491749509,1.1197704804645616,-1.1640255839622307,high,high,,ISIC_7266462.JPG,,ISIC_1868816.JPG,33,27,false,0.11,lh,keypress(e),0,true,705833.5,705833.2999999523,700055.963,700060.2000000477,700072.481,705850.597,1,40,37,
sequence,flow.Sequence,8_36,2023-11-30T17:40:56.071Z,,,,,,,,,,,5760.818999952287,completion,,,,,,,high,high,,,,,,,false,,,,,true,705833.7000000477,705833.2999999523,700055.963,700060.100000143,700072.481,705850.597,1,40,,
trial,html.Screen,8_37_0,2023-11-30T17:40:59.616Z,,,,2,0.0277178575053843,-0.0395587463147856,,0.05,true,ll,3527.9030000000494,response,-1.2181031651370575,1.1868834896997174,-1.1640255839622307,-1.2158573487067317,1.1197704804645616,-1.1640255839622307,low,low,,ISIC_0010807.JPG,,ISIC_7242312.JPG,33,33,false,0.1,ll,keypress(f),0,true,709378.9000000954,709378.5,705833.832,705833.7999999523,705850.597,709407.32,1,40,38,
sequence,flow.Sequence,8_37,2023-11-30T17:40:59.617Z,,,,,,,,,,,3527.9030000000494,completion,,,,,,,low,low,,,,,,,false,,,,,true,709379.4000000954,709378.5,705833.832,705833.7999999523,705850.597,709407.32,1,40,,
trial,html.Screen,8_38_0,2023-11-30T17:41:05.737Z,,,,2,-0.0324770283903853,-0.0249968632204382,,0.05,true,lh,6091.680000000051,response,-1.0122398223568725,1.1868834896997174,-1.1640255839622307,0.7505228537454216,1.1197704804645616,-1.1640255839622307,low,high,,ISIC_7266462.JPG,,ISIC_0033802.JPG,33,27,false,0.3800000000000002,lh,keypress(e),0,true,715499.2999999523,715499,709373.866,709379.600000143,709407.32,715519.213,1,40,39,
sequence,flow.Sequence,8_38,2023-11-30T17:41:05.737Z,,,,,,,,,,,6091.680000000051,completion,,,,,,,low,high,,,,,,,false,,,,,true,715499.7999999523,715499,709373.866,709379.600000143,709407.32,715519.213,1,40,,
trial,html.Screen,8_39_0,2023-11-30T17:41:12.273Z,,,,2,0.0113873532168551,0.0054999201556291,,0.05,true,lh,6515.687000095379,response,-1.0213365328004047,1.1868834896997174,-1.1140255839622306,1.088524359911891,1.0697704804645616,-1.1640255839622307,low,high,,ISIC_8812621.JPG,,ISIC_5434229.JPG,33,27,false,0.3300000000000002,lh,keypress(e),0,true,722035.2000000477,722034.9000000954,715485.996,715500.100000143,715519.213,722048.645,1,40,40,
sequence,flow.Sequence,8_39,2023-11-30T17:41:12.273Z,,,,,,,,,,,6515.687000095379,completion,,,,,,,low,high,,,,,,,false,,,,,true,722035.9000000954,722034.9000000954,715485.996,715500,715519.213,722048.645,1,40,,
stair_loop,flow.Loop,8,2023-11-30T17:41:12.274Z,,,,,,,,,,,215839.83000009536,completion,,,,,,,,,,,,,,,false,,,,,true,722036.2000000477,722034.9000000954,506178.665,506185,506195.07,722048.645,1,40,,
exp_instructions,html.Screen,9,2023-11-30T17:41:30.136Z,,,,,,,,,,,17849.25500009535,response,,,,,,,,,,,,,,,,,continue,keypress(Space),,,739898.7999999523,739897.9000000954,722031.836,722036.4000000954,722048.645,739916.95,,,,
trial,html.Screen,10_0_0,2023-11-30T17:41:39.713Z,,,,1,-0.039728379742806,0.0228701131373768,,0.05,false,hh,9558.050000000047,response,1.1642596483638106,1.1157250805494925,-1.0930262769537338,1.109799097093339,1.0974758170113774,-1.1674291817080873,high,high,,ISIC_0054073.JPG,9,ISIC_0765584.JPG,33,25,false,0.1,hl,keypress(j),0,false,749475.4000000954,749475,739883.521,739899.2000000477,739916.95,749518.694,5,600,1,
break,html.Screen,10_0_1,2023-11-30T17:41:39.715Z,,,,,,,,,,,NaN,,,,,,,,high,high,,,,,,,false,,,,,false,749477,749476.2999999523,,749475.7999999523,,749518.694,5,600,,
break_continue,html.Screen,10_0_2,2023-11-30T17:41:39.716Z,,,,,,,,,,,NaN,,,,,,,,high,high,,,,,,,false,,,,,false,749478,749477.600000143,,749477.2999999523,,749518.694,5,600,,
sequence,flow.Sequence,10_0,2023-11-30T17:41:39.716Z,,,,,,,,,,,9560.650000143098,completion,,,,,,,high,high,,,,,,,false,,,,,false,749478.2999999523,749477.600000143,739883.521,739899.2000000477,739916.95,749518.694,5,600,,
trial,html.Screen,10_1_0,2023-11-30T17:41:47.561Z,,,,1,-0.0027483411352856,-0.0100996915276271,,0.05,false,hl,7804.105999952299,response,0.869932994914832,1.1157250805494925,-1.0930262769537338,-0.8880533324432531,1.0974758170113774,-1.1674291817080873,high,low,,ISIC_7364041.JPG,8,ISIC_8617084.JPG,33,25,false,0.31000000000000016,hh,keypress(i),0,false,757323.100000143,757322.7999999523,749468.701,749478.600000143,749518.694,757333.942,5,600,2,
break,html.Screen,10_1_1,2023-11-30T17:41:47.562Z,,,,,,,,,,,NaN,,,,,,,,high,low,,,,,,,false,,,,,false,757324.4000000954,757324,,757323.5,,757333.942,5,600,,
break_continue,html.Screen,10_1_2,2023-11-30T17:41:47.563Z,,,,,,,,,,,NaN,,,,,,,,high,low,,,,,,,false,,,,,false,757325,757324.7999999523,,757324.600000143,,757333.942,5,600,,
sequence,flow.Sequence,10_1,2023-11-30T17:41:47.563Z,,,,,,,,,,,7806.105999952299,completion,,,,,,,high,low,,,,,,,false,,,,,false,757325.4000000954,757324.7999999523,749468.701,749478.600000143,749518.694,757333.942,5,600,,
trial,html.Screen,10_2_0,2023-11-30T17:41:53.857Z,,,,1,0,0.0264544974620926,,0.05,false,hh,6284.557999999961,response,1.1642596483638106,1.1157250805494925,-1.0930262769537338,1.109799097093339,1.0974758170113774,-1.1674291817080873,high,high,,ISIC_0056991.JPG,9,ISIC_0765584.JPG,33,25,false,0.1,hl,keypress(j),0,false,763618.9000000954,763618.5,757317.435,757325.5,757333.942,763629.518,5,600,3,
break,html.Screen,10_2_1,2023-11-30T17:41:53.858Z,,,,,,,,,,,NaN,,,,,,,,high,high,,,,,,,false,,,,,false,763620,763619.7999999523,,763619.2000000477,,763629.518,5,600,,
break_continue,html.Screen,10_2_2,2023-11-30T17:41:53.859Z,,,,,,,,,,,NaN,,,,,,,,high,high,,,,,,,false,,,,,false,763620.7999999523,763620.5,,763620.2999999523,,763629.518,5,600,,
sequence,flow.Sequence,10_2,2023-11-30T17:41:53.859Z,,,,,,,,,,,6286.557999999961,completion,,,,,,,high,high,,,,,,,false,,,,,false,763621.100000143,763620.5,757317.435,757325.4000000954,757333.942,763629.518,5,600,,
trial,html.Screen,10_3_0,2023-11-30T17:41:58.239Z,,,,1,0.0362376068089956,0.047825070846155,,0.05,true,hh,4371.682000047644,response,1.0316392011945703,1.1157250805494925,-1.0930262769537338,1.1580619988377847,1.0974758170113774,-1.1674291817080873,high,high,,ISIC_6985114.JPG,9,ISIC_0054206.JPG,33,25,false,0.1,hh,keypress(i),0,false,768001.4000000954,768001.2000000477,763612.937,763621.4000000954,763629.518,768004.697,5,600,4,
break,html.Screen,10_3_1,2023-11-30T17:41:58.240Z,,,,,,,,,,,NaN,,,,,,,,high,high,,,,,,,false,,,,,false,768001.7000000477,768001.600000143,,768001.5,,768004.697,5,600,,
break_continue,html.Screen,10_3_2,2023-11-30T17:41:58.240Z,,,,,,,,,,,NaN,,,,,,,,high,high,,,,,,,false,,,,,false,768002,768002,,768001.7999999523,,768004.697,5,600,,
sequence,flow.Sequence,10_3,2023-11-30T17:41:58.240Z,,,,,,,,,,,4372.48199999996,completion,,,,,,,high,high,,,,,,,false,,,,,false,768002,768002,763612.937,763621.2999999523,763629.518,768004.697,5,600,,
trial,html.Screen,10_4_0,2023-11-30T17:42:04.657Z,,,,1,-0.0217698886732706,0.0410870915161425,,0.05,false,ll,6414.302999999956,response,-1.101346104814838,1.1157250805494925,-1.0930262769537338,-1.1225813067473052,1.0974758170113774,-1.1674291817080873,low,low,,ISIC_0072173.JPG,10,ISIC_8175453.JPG,33,26,false,0.1,hh,keypress(i),0,false,774419.4000000954,774419,767988.067,768002,768004.697,774433.89,5,600,5,
break,html.Screen,10_4_1,2023-11-30T17:42:04.658Z,,,,,,,,,,,NaN,,,,,,,,low,low,,,,,,,false,,,,,false,774420.7000000477,774420.4000000954,,774419.7999999523,,774433.89,5,600,,
break_continue,html.Screen,10_4_2,2023-11-30T17:42:04.659Z,,,,,,,,,,,NaN,,,,,,,,low,low,,,,,,,false,,,,,false,774421.5,774421.2000000477,,774421,,774433.89,5,600,,
sequence,flow.Sequence,10_4,2023-11-30T17:42:04.660Z,,,,,,,,,,,6416.50300004764,completion,,,,,,,low,low,,,,,,,false,,,,,false,774421.7999999523,774421.2000000477,767988.067,768002,768004.697,774433.89,5,600,,
trial,html.Screen,10_5_0,2023-11-30T17:42:16.705Z,,,,1,-0.0456515796420274,0.0273567130070961,,0.05,false,hl,12033.109999999986,response,0.8579451262594331,1.1157250805494925,-1.0930262769537338,-0.9633172970727744,1.0974758170113774,-1.1674291817080873,high,low,,ISIC_0068610.JPG,8,ISIC_0067172.JPG,33,25,false,0.31000000000000016,ll,keypress(f),0,false,786467.2999999523,786467,774417.42,774422.100000143,774433.89,786490.69,5,600,6,
break,html.Screen,10_5_1,2023-11-30T17:42:16.706Z,,,,,,,,,,,NaN,,,,,,,,high,low,,,,,,,false,,,,,false,786468.600000143,786468.2999999523,,786467.7000000477,,786490.69,5,600,,
break_continue,html.Screen,10_5_2,2023-11-30T17:42:16.707Z,,,,,,,,,,,NaN,,,,,,,,high,low,,,,,,,false,,,,,false,786469.4000000954,786469.100000143,,786468.7999999523,,786490.69,5,600,,
sequence,flow.Sequence,10_5,2023-11-30T17:42:16.707Z,,,,,,,,,,,12035.210000143037,completion,,,,,,,high,low,,,,,,,false,,,,,false,786469.7000000477,786469.100000143,774417.42,774422,774433.89,786490.69,5,600,,
trial,html.Screen,10_6_0,2023-11-30T17:42:22.439Z,,,,1,-0.0217698886732706,0.0410870915161425,,0.05,false,lh,5710.810000000056,response,-0.991146183030456,1.1157250805494925,-1.0930262769537338,0.9949639823722534,1.0974758170113774,-1.1674291817080873,low,high,,ISIC_0072173.JPG,10,ISIC_6342224.JPG,33,27,false,0.3200000000000002,hl,keypress(j),0,false,792201.7000000477,792201.5,786457.352,786469.9000000954,786490.69,792218.527,5,600,7,
break,html.Screen,10_6_1,2023-11-30T17:42:22.440Z,,,,,,,,,,,NaN,,,,,,,,low,high,,,,,,,false,,,,,false,792202.2999999523,792202.100000143,,792201.9000000954,,792218.527,5,600,,
break_continue,html.Screen,10_6_2,2023-11-30T17:42:22.440Z,,,,,,,,,,,NaN,,,,,,,,low,high,,,,,,,false,,,,,false,792202.7000000477,792202.5,,792202.5,,792218.527,5,600,,
sequence,flow.Sequence,10_6,2023-11-30T17:42:22.441Z,,,,,,,,,,,5711.810000000056,completion,,,,,,,low,high,,,,,,,false,,,,,false,792202.7999999523,792202.5,786457.352,786469.9000000954,786490.69,792218.527,5,600,,
trial,html.Screen,10_7_0,2023-11-30T17:42:30.401Z,,,,1,-0.0070725527271049,-0.0049995141077508,,0.05,false,lh,7944.272999952314,response,-0.8200962008791046,1.1157250805494925,-1.0930262769537338,0.7936051642828523,1.0974758170113774,-1.1674291817080873,low,high,,ISIC_6124481.JPG,9,ISIC_0027031.JPG,33,27,false,0.3200000000000002,hh,keypress(i),0,false,800163.2000000477,800162.7999999523,792201.954,792203,792218.527,800184.015,5,600,8,
break,html.Screen,10_7_1,2023-11-30T17:42:30.402Z,,,,,,,,,,,NaN,,,,,,,,low,high,,,,,,,false,,,,,false,800164.4000000954,800164.100000143,,800163.5,,800184.015,5,600,,
break_continue,html.Screen,10_7_2,2023-11-30T17:42:30.403Z,,,,,,,,,,,NaN,,,,,,,,low,high,,,,,,,false,,,,,false,800165.2000000477,800164.9000000954,,800164.7000000477,,800184.015,5,600,,
sequence,flow.Sequence,10_7,2023-11-30T17:42:30.403Z,,,,,,,,,,,7946.373000095366,completion,,,,,,,low,high,,,,,,,false,,,,,false,800165.4000000954,800164.9000000954,792201.954,792203,792218.527,800184.015,5,600,,
trial,html.Screen,10_8_0,2023-11-30T17:42:37.497Z,,,,1,-0.0389988030702649,-0.0143212271490256,,0.05,true,hl,7074.68500004767,response,1.2075172235545184,1.1157250805494925,-1.0930262769537338,-0.9116724966267612,1.0974758170113774,-1.1674291817080873,high,low,,ISIC_0064669.JPG,9,ISIC_0024235.JPG,33,25,false,0.31000000000000016,hl,keypress(j),0,false,807259.100000143,807258.7000000477,800150.775,800165.7000000477,800184.015,807264.464,5,600,9,
break,html.Screen,10_8_1,2023-11-30T17:42:37.498Z,,,,,,,,,,,NaN,,,,,,,,high,low,,,,,,,false,,,,,false,807260.2000000477,807259.9000000954,,807259.4000000954,,807264.464,5,600,,
break_continue,html.Screen,10_8_2,2023-11-30T17:42:37.499Z,,,,,,,,,,,NaN,,,,,,,,high,low,,,,,,,false,,,,,false,807260.9000000954,807260.7000000477,,807260.4000000954,,807264.464,5,600,,
sequence,flow.Sequence,10_8,2023-11-30T17:42:37.499Z,,,,,,,,,,,7076.68500004767,completion,,,,,,,high,low,,,,,,,false,,,,,false,807261.2000000477,807260.7000000477,800150.775,800165.7000000477,800184.015,807264.464,5,600,,
trial,html.Screen,10_9_0,2023-11-30T17:42:40.432Z,,,,1,-0.0324770283903853,-0.0249968632204382,,0.05,true,ll,2929.0359999999637,response,-1.188743606919222,1.1157250805494925,-1.0930262769537338,-1.0980226451001782,1.0974758170113774,-1.1674291817080873,low,low,,ISIC_7266462.JPG,9,ISIC_0060481.JPG,33,26,false,0.1,ll,keypress(f),0,false,810193.600000143,810193.5,807247.731,807261.4000000954,807264.464,810203.582,5,600,10,
break,html.Screen,10_9_1,2023-11-30T17:42:40.432Z,,,,,,,,,,,NaN,,,,,,,,low,low,,,,,,,false,,,,,false,810193.9000000954,810193.7999999523,,810193.7000000477,,810203.582,5,600,,
break_continue,html.Screen,10_9_2,2023-11-30T17:42:40.432Z,,,,,,,,,,,NaN,,,,,,,,low,low,,,,,,,false,,,,,false,810194.100000143,810194,,810193.9000000954,,810203.582,5,600,,
sequence,flow.Sequence,10_9,2023-11-30T17:42:40.432Z,,,,,,,,,,,2929.5359999999637,completion,,,,,,,low,low,,,,,,,false,,,,,false,810194.100000143,810194,807247.731,807261.2999999523,807264.464,810203.582,5,600,,
trial,html.Screen,10_10_0,2023-11-30T17:42:47.617Z,,,,1,-0.0450282431170921,0,,0.05,false,hh,7175.217999952263,response,1.0789197754694622,1.1157250805494925,-1.0930262769537338,1.1654690806750023,1.0974758170113774,-1.1674291817080873,high,high,,ISIC_1805163.JPG,9,ISIC_1576437.JPG,33,25,false,0.1,lh,keypress(e),0,false,817379.100000143,817378.7999999523,810187.021,810194.2000000477,810203.582,817400.856,5,600,11,
break,html.Screen,10_10_1,2023-11-30T17:42:47.619Z,,,,,,,,,,,NaN,,,,,,,,high,high,,,,,,,false,,,,,false,817380.2999999523,817380,,817379.5,,817400.856,5,600,,
break_continue,html.Screen,10_10_2,2023-11-30T17:42:47.619Z,,,,,,,,,,,NaN,,,,,,,,high,high,,,,,,,false,,,,,false,817381.100000143,817380.7999999523,,817380.600000143,,817400.856,5,600,,
sequence,flow.Sequence,10_10,2023-11-30T17:42:47.620Z,,,,,,,,,,,7177.217999952263,completion,,,,,,,high,high,,,,,,,false,,,,,false,817381.4000000954,817380.7999999523,810187.021,810194.2000000477,810203.582,817400.856,5,600,,
trial,html.Screen,10_11_0,2023-11-30T17:42:54.528Z,,,,1,0,0.0264544974620926,,0.05,true,hl,6888.344000047655,response,0.9433720631499012,1.1157250805494925,-1.0930262769537338,-1.0582071940347648,1.0974758170113774,-1.1674291817080873,high,low,,ISIC_0056991.JPG,10,ISIC_4890201.JPG,33,25,false,0.31000000000000016,hl,keypress(j),0,false,824289.4000000954,824289.2000000477,817367.702,817381.7000000477,817400.856,824297.642,5,600,12,
break,html.Screen,10_11_1,2023-11-30T17:42:54.528Z,,,,,,,,,,,NaN,,,,,,,,high,low,,,,,,,false,,,,,false,824289.7000000477,824289.7000000477,,824289.5,,824297.642,5,600,,
break_continue,html.Screen,10_11_2,2023-11-30T17:42:54.528Z,,,,,,,,,,,NaN,,,,,,,,high,low,,,,,,,false,,,,,false,824289.9000000954,824289.7999999523,,824289.7000000477,,824297.642,5,600,,
sequence,flow.Sequence,10_11,2023-11-30T17:42:54.528Z,,,,,,,,,,,6888.943999952287,completion,,,,,,,high,low,,,,,,,false,,,,,false,824289.9000000954,824289.7999999523,817367.702,817381.600000143,817400.856,824297.642,5,600,,
trial,html.Screen,10_12_0,2023-11-30T17:43:01.890Z,,,,1,0.0362376068089956,0.047825070846155,,0.05,false,hl,7353.258000095375,response,0.9433720631499012,1.1157250805494925,-1.0930262769537338,-1.0582071940347648,1.0974758170113774,-1.1674291817080873,high,low,,ISIC_6985114.JPG,9,ISIC_4890201.JPG,33,25,false,0.31000000000000016,ll,keypress(f),0,false,831651.2999999523,831650.9000000954,824281.094,824289.9000000954,824297.642,831661.958,5,600,13,
break,html.Screen,10_12_1,2023-11-30T17:43:01.891Z,,,,,,,,,,,NaN,,,,,,,,high,low,,,,,,,false,,,,,false,831652.5,831652.2000000477,,831651.600000143,,831661.958,5,600,,
break_continue,html.Screen,10_12_2,2023-11-30T17:43:01.891Z,,,,,,,,,,,NaN,,,,,,,,high,low,,,,,,,false,,,,,false,831653.100000143,831653,,831652.7000000477,,831661.958,5,600,,
sequence,flow.Sequence,10_12,2023-11-30T17:43:01.892Z,,,,,,,,,,,7355.358000000007,completion,,,,,,,high,low,,,,,,,false,,,,,false,831653.4000000954,831653,824281.094,824289.9000000954,824297.642,831661.958,5,600,,
trial,html.Screen,10_13_0,2023-11-30T17:43:05.952Z,,,,1,-0.0389988030702649,-0.0143212271490256,,0.05,true,ll,4051.341999952332,response,-1.135372722680314,1.1157250805494925,-1.0930262769537338,-1.0926414044454305,1.0974758170113774,-1.1674291817080873,low,low,,ISIC_0064669.JPG,10,ISIC_2355513.JPG,33,26,false,0.1,ll,keypress(f),0,false,835713.5,835713.2999999523,831645.465,831653.7000000477,831661.958,835719.841,5,600,14,
break,html.Screen,10_13_1,2023-11-30T17:43:05.952Z,,,,,,,,,,,NaN,,,,,,,,low,low,,,,,,,false,,,,,false,835713.7000000477,835713.7000000477,,835713.600000143,,835719.841,5,600,,
break_continue,html.Screen,10_13_2,2023-11-30T17:43:05.952Z,,,,,,,,,,,NaN,,,,,,,,low,low,,,,,,,false,,,,,false,835714,835713.9000000954,,835713.9000000954,,835719.841,5,600,,
sequence,flow.Sequence,10_13,2023-11-30T17:43:05.952Z,,,,,,,,,,,4051.9420000953833,completion,,,,,,,low,low,,,,,,,false,,,,,false,835714.100000143,835713.9000000954,831645.465,831653.600000143,831661.958,835719.841,5,600,,
trial,html.Screen,10_14_0,2023-11-30T17:43:15.433Z,,,,1,0.0348234368746005,-0.0236866303880924,,0.05,false,hh,9474.859000047669,response,1.131522954199764,1.1157250805494925,-1.0930262769537338,1.1047184491749509,1.0974758170113774,-1.1674291817080873,high,high,,ISIC_0011099.JPG,9,ISIC_1868816.JPG,33,25,false,0.1,hl,keypress(j),0,false,845195.100000143,845194.7000000477,835703.12,835714.100000143,835719.841,845221.676,5,600,15,
break,html.Screen,10_14_1,2023-11-30T17:43:15.435Z,,,,,,,,,,,NaN,,,,,,,,high,high,,,,,,,false,,,,,false,845196.2999999523,845196,,845195.5,,845221.676,5,600,,
break_continue,html.Screen,10_14_2,2023-11-30T17:43:15.435Z,,,,,,,,,,,NaN,,,,,,,,high,high,,,,,,,false,,,,,false,845197,845196.7999999523,,845196.5,,845221.676,5,600,,
sequence,flow.Sequence,10_14,2023-11-30T17:43:15.436Z,,,,,,,,,,,9476.958999952301,completion,,,,,,,high,high,,,,,,,false,,,,,false,845197.2999999523,845196.7999999523,835703.12,835714.100000143,835719.841,845221.676,5,600,,
trial,html.Screen,10_15_0,2023-11-30T17:43:19.617Z,,,,1,0.0051189696037511,-0.0396625911332438,,0.05,false,lh,4156.72400009539,response,-0.796241477082623,1.1157250805494925,-1.0930262769537338,0.9017449335975743,1.0974758170113774,-1.1674291817080873,low,high,,ISIC_9742891.JPG,9,ISIC_8588033.JPG,33,27,false,0.3200000000000002,ll,keypress(f),0,false,849378.5,849378.4000000954,845188.415,845197.600000143,845221.676,849396.842,5,600,16,
break,html.Screen,10_15_1,2023-11-30T17:43:19.617Z,,,,,,,,,,,NaN,,,,,,,,low,high,,,,,,,false,,,,,false,849378.7999999523,849378.7000000477,,849378.5,,849396.842,5,600,,
break_continue,html.Screen,10_15_2,2023-11-30T17:43:19.617Z,,,,,,,,,,,NaN,,,,,,,,low,high,,,,,,,false,,,,,false,849379,849379,,849378.9000000954,,849396.842,5,600,,
sequence,flow.Sequence,10_15,2023-11-30T17:43:19.617Z,,,,,,,,,,,4157.324000000022,completion,,,,,,,low,high,,,,,,,false,,,,,false,849379,849379,845188.415,845197.600000143,845221.676,849396.842,5,600,,
trial,html.Screen,10_16_0,2023-11-30T17:43:26.738Z,,,,1,-0.039728379742806,0.0228701131373768,,0.05,false,lh,7102.758000143105,response,-0.8035152873995188,1.1157250805494925,-1.0930262769537338,0.82868450251632,1.0974758170113774,-1.1674291817080873,low,high,,ISIC_0054073.JPG,9,ISIC_0010671.JPG,33,27,false,0.3200000000000002,ll,keypress(f),0,false,856500.100000143,856499.600000143,849363.27,849379.100000143,849396.842,856510.325,5,600,17,
break,html.Screen,10_16_1,2023-11-30T17:43:26.740Z,,,,,,,,,,,NaN,,,,,,,,low,high,,,,,,,false,,,,,false,856501.9000000954,856501.5,,856500.7999999523,,856510.325,5,600,,
break_continue,html.Screen,10_16_2,2023-11-30T17:43:26.741Z,,,,,,,,,,,NaN,,,,,,,,low,high,,,,,,,false,,,,,false,856503.100000143,856502.7000000477,,856502.2999999523,,856510.325,5,600,,
sequence,flow.Sequence,10_16,2023-11-30T17:43:26.742Z,,,,,,,,,,,7105.858000047738,completion,,,,,,,low,high,,,,,,,false,,,,,false,856503.2999999523,856502.7000000477,849363.27,849379.100000143,849396.842,856510.325,5,600,,
trial,html.Screen,10_17_0,2023-11-30T17:43:29.617Z,,,,1,0.0348234368746005,-0.0236866303880924,,0.05,true,hh,2868.474999952363,response,1.0959058628476686,1.1157250805494925,-1.0930262769537338,1.1684835186766898,1.0974758170113774,-1.1674291817080873,high,high,,ISIC_0011099.JPG,9,ISIC_5920470.JPG,33,25,false,0.1,hh,keypress(i),0,false,859379.2000000477,859378.7999999523,856493.741,856503.600000143,856510.325,859399.331,5,600,18,
break,html.Screen,10_17_1,2023-11-30T17:43:29.619Z,,,,,,,,,,,NaN,,,,,,,,high,high,,,,,,,false,,,,,false,859380.4000000954,859380.100000143,,859379.600000143,,859399.331,5,600,,
break_continue,html.Screen,10_17_2,2023-11-30T17:43:29.619Z,,,,,,,,,,,NaN,,,,,,,,high,high,,,,,,,false,,,,,false,859381.2000000477,859380.9000000954,,859380.600000143,,859399.331,5,600,,
sequence,flow.Sequence,10_17,2023-11-30T17:43:29.620Z,,,,,,,,,,,2870.575000095414,completion,,,,,,,high,high,,,,,,,false,,,,,false,859381.5,859380.9000000954,856493.741,856503.5,856510.325,859399.331,5,600,,
trial,html.Screen,10_18_0,2023-11-30T17:43:34.752Z,,,,1,-0.0389988030702649,-0.0143212271490256,,0.05,false,hh,5114.468999952311,response,1.0565911491759823,1.1157250805494925,-1.0930262769537338,1.0221582682700174,1.0974758170113774,-1.1674291817080873,high,high,,ISIC_0064669.JPG,8,ISIC_6604862.JPG,33,25,false,0.1,hl,keypress(j),0,false,864514,864513.7999999523,859382.667,859381.7000000477,859399.331,864525.953,5,600,19,
break,html.Screen,10_18_1,2023-11-30T17:43:34.753Z,,,,,,,,,,,NaN,,,,,,,,high,high,,,,,,,false,,,,,false,864514.4000000954,864514.2999999523,,864514.100000143,,864525.953,5,600,,
break_continue,html.Screen,10_18_2,2023-11-30T17:43:34.753Z,,,,,,,,,,,NaN,,,,,,,,high,high,,,,,,,false,,,,,false,864514.7999999523,864514.600000143,,864514.5,,864525.953,5,600,,
sequence,flow.Sequence,10_18,2023-11-30T17:43:34.753Z,,,,,,,,,,,5115.269000143046,completion,,,,,,,high,high,,,,,,,false,,,,,false,864514.7999999523,864514.600000143,859382.667,859381.7000000477,859399.331,864525.953,5,600,,
trial,html.Screen,10_19_0,2023-11-30T17:43:44.146Z,,,,1,-0.0107854985447517,-0.0478010417136109,,0.05,false,hh,9380.54700000002,response,1.2012395086389958,1.1157250805494925,-1.0930262769537338,1.0618985767073823,1.0974758170113774,-1.1674291817080873,high,high,,ISIC_0010500.JPG,9,ISIC_9876004.JPG,33,25,false,0.1,hl,keypress(j),0,false,873906.7999999523,873906.5,864509.449,864514.9000000954,864525.953,873927.633,5,600,20,
break,html.Screen,10_19_1,2023-11-30T17:43:44.147Z,,,,,,,,,,,NaN,,,,,,,,high,high,,,,,,,false,,,,,false,873907.7999999523,873907.5,,873907.100000143,,873927.633,5,600,,
break_continue,html.Screen,10_19_2,2023-11-30T17:43:44.147Z,,,,,,,,,,,NaN,,,,,,,,high,high,,,,,,,false,,,,,false,873908.4000000954,873908.2000000477,,873908,,873927.633,5,600,,
sequence,flow.Sequence,10_19,2023-11-30T17:43:44.147Z,,,,,,,,,,,9382.247000047704,completion,,,,,,,high,high,,,,,,,false,,,,,false,873908.7000000477,873908.2000000477,864509.449,864514.9000000954,864525.953,873927.633,5,600,,
trial,html.Screen,10_20_0,2023-11-30T17:43:48.898Z,,,,1,-0.0324770283903853,-0.0249968632204382,,0.05,true,ll,4731.366999999969,response,-1.0377676235641546,1.1157250805494925,-1.0930262769537338,-1.0836906473836847,1.0974758170113774,-1.1674291817080873,low,low,,ISIC_7266462.JPG,10,ISIC_0010540.JPG,33,26,false,0.1,ll,keypress(f),0,false,878659.4000000954,878659,873894.136,873908.9000000954,873927.633,878670.07,5,600,21,
break,html.Screen,10_20_1,2023-11-30T17:43:48.899Z,,,,,,,,,,,NaN,,,,,,,,low,low,,,,,,,false,,,,,false,878660.5,878660.2999999523,,878659.7999999523,,878670.07,5,600,,
break_continue,html.Screen,10_20_2,2023-11-30T17:43:48.900Z,,,,,,,,,,,NaN,,,,,,,,low,low,,,,,,,false,,,,,false,878661.2999999523,878661,,878660.7999999523,,878670.07,5,600,,
sequence,flow.Sequence,10_20,2023-11-30T17:43:48.900Z,,,,,,,,,,,4733.366999999969,completion,,,,,,,low,low,,,,,,,false,,,,,false,878661.7000000477,878661,873894.136,873908.7999999523,873927.633,878670.07,5,600,,
trial,html.Screen,10_21_0,2023-11-30T17:43:54.610Z,,,,1,0.0134764727102299,0.0033499036460912,,0.05,true,hh,5700.7299999523675,response,1.086647361897092,1.1157250805494925,-1.0930262769537338,1.1528935990320313,1.0974758170113774,-1.1674291817080873,high,high,,ISIC_0009998.JPG,9,ISIC_3505339.JPG,33,25,false,0.1,hh,keypress(i),0,false,884371.2000000477,884370.7999999523,878653.596,878661.9000000954,878670.07,884381.236,5,600,22,
break,html.Screen,10_21_1,2023-11-30T17:43:54.611Z,,,,,,,,,,,NaN,,,,,,,,high,high,,,,,,,false,,,,,false,884372.4000000954,884372.100000143,,884371.5,,884381.236,5,600,,
break_continue,html.Screen,10_21_2,2023-11-30T17:43:54.612Z,,,,,,,,,,,NaN,,,,,,,,high,high,,,,,,,false,,,,,false,884373.2000000477,884372.9000000954,,884372.600000143,,884381.236,5,600,,
sequence,flow.Sequence,10_21,2023-11-30T17:43:54.612Z,,,,,,,,,,,5702.830000095419,completion,,,,,,,high,high,,,,,,,false,,,,,false,884373.4000000954,884372.9000000954,878653.596,878661.7999999523,878670.07,884381.236,5,600,,
trial,html.Screen,10_22_0,2023-11-30T17:43:58.848Z,,,,1,0.0097091270150747,-0.0417921315885292,,0.05,false,hl,4228.063999952283,response,1.2695509547992938,1.1157250805494925,-1.0930262769537338,-0.9641099676945492,1.0974758170113774,-1.1674291817080873,high,low,,ISIC_3967213.JPG,9,ISIC_0025841.JPG,33,25,false,0.31000000000000016,hh,keypress(i),0,false,888609.4000000954,888609.2999999523,884364.787,884373.7999999523,884381.236,888639.543,5,600,23,
break,html.Screen,10_22_1,2023-11-30T17:43:58.849Z,,,,,,,,,,,NaN,,,,,,,,high,low,,,,,,,false,,,,,false,888609.7999999523,888609.7000000477,,888609.5,,888639.543,5,600,,
break_continue,html.Screen,10_22_2,2023-11-30T17:43:58.849Z,,,,,,,,,,,NaN,,,,,,,,high,low,,,,,,,false,,,,,false,888610.2000000477,888610,,888609.9000000954,,888639.543,5,600,,
sequence,flow.Sequence,10_22,2023-11-30T17:43:58.849Z,,,,,,,,,,,4228.7639999999665,completion,,,,,,,high,low,,,,,,,false,,,,,false,888610.2000000477,888610,884364.787,884373.7000000477,884381.236,888639.543,5,600,,
trial,html.Screen,10_23_0,2023-11-30T17:44:05.987Z,,,,1,-0.0456515796420274,0.0273567130070961,,0.05,false,lh,7107.957000000053,response,-0.991146183030456,1.1157250805494925,-1.0930262769537338,0.9949639823722534,1.0974758170113774,-1.1674291817080873,low,high,,ISIC_0068610.JPG,9,ISIC_6342224.JPG,33,27,false,0.3200000000000002,hl,keypress(j),0,false,895747.7999999523,895747.5,888622.832,888610.2999999523,888639.543,895753.348,5,600,24,
break,html.Screen,10_23_1,2023-11-30T17:44:05.988Z,,,,,,,,,,,NaN,,,,,,,,low,high,,,,,,,false,,,,,false,895749,895748.7000000477,,895748.2000000477,,895753.348,5,600,,
break_continue,html.Screen,10_23_2,2023-11-30T17:44:05.989Z,,,,,,,,,,,NaN,,,,,,,,low,high,,,,,,,false,,,,,false,895749.7999999523,895749.5,,895749.2999999523,,895753.348,5,600,,
sequence,flow.Sequence,10_23,2023-11-30T17:44:05.989Z,,,,,,,,,,,7109.957000000053,completion,,,,,,,low,high,,,,,,,false,,,,,false,895750.100000143,895749.5,888622.832,888610.2999999523,888639.543,895753.348,5,600,,
trial,html.Screen,10_24_0,2023-11-30T17:44:18.203Z,,,,1,0.0348234368746005,-0.0236866303880924,,0.05,false,ll,12210.55200009537,response,-1.0215600067367807,1.1157250805494925,-1.0930262769537338,-1.1866489745604327,1.0974758170113774,-1.1674291817080873,low,low,,ISIC_0011099.JPG,8,ISIC_0000173.JPG,33,26,false,0.1,lh,keypress(e),0,false,907964.2999999523,907963.9000000954,895736.766,895750.2000000477,895753.348,907977.173,5,600,25,
break,html.Screen,10_24_1,2023-11-30T17:44:18.204Z,,,,,,,,,,,NaN,,,,,,,,low,low,,,,,,,false,,,,,false,907965.7000000477,907965.2999999523,,907964.7999999523,,907977.173,5,600,,
break_continue,html.Screen,10_24_2,2023-11-30T17:44:18.205Z,,,,,,,,,,,NaN,,,,,,,,low,low,,,,,,,false,,,,,false,907966.4000000954,907966.2000000477,,907965.9000000954,,907977.173,5,600,,
sequence,flow.Sequence,10_24,2023-11-30T17:44:18.206Z,,,,,,,,,,,12212.852000047686,completion,,,,,,,low,low,,,,,,,false,,,,,false,907966.7000000477,907966.2000000477,895736.766,895750.2000000477,895753.348,907977.173,5,600,,
trial,html.Screen,10_25_0,2023-11-30T17:44:24.466Z,,,,1,-0.0050679133050021,0.0009714874637896,,0.05,false,ll,6249.727000095416,response,-1.1383813631375823,1.1157250805494925,-1.0930262769537338,-1.1319312220332556,1.0974758170113774,-1.1674291817080873,low,low,,ISIC_9848743.JPG,8,ISIC_6227397.JPG,33,26,false,0.1,lh,keypress(e),0,false,914227.2000000477,914226.9000000954,907960.463,907967,907977.173,914239.354,5,600,26,
break,html.Screen,10_25_1,2023-11-30T17:44:24.467Z,,,,,,,,,,,NaN,,,,,,,,low,low,,,,,,,false,,,,,false,914228.5,914228.100000143,,914227.7000000477,,914239.354,5,600,,
break_continue,html.Screen,10_25_2,2023-11-30T17:44:24.468Z,,,,,,,,,,,NaN,,,,,,,,low,low,,,,,,,false,,,,,false,914229.2999999523,914229,,914228.7000000477,,914239.354,5,600,,
sequence,flow.Sequence,10_25,2023-11-30T17:44:24.468Z,,,,,,,,,,,6251.827000000048,completion,,,,,,,low,low,,,,,,,false,,,,,false,914229.7000000477,914229,907960.463,907966.9000000954,907977.173,914239.354,5,600,,
trial,html.Screen,10_26_0,2023-11-30T17:44:31.786Z,,,,1,-0.0363437082783146,-0.0333332186217051,,0.05,false,hh,7307.846000047633,response,1.0858641668099058,1.1157250805494925,-1.0930262769537338,1.1638942560200525,1.0974758170113774,-1.1674291817080873,high,high,,ISIC_3314555.JPG,9,ISIC_5439597.JPG,33,25,false,0.1,hl,keypress(j),0,false,921547.5,921547.2000000477,914222.71,914229.9000000954,914239.354,921586.992,5,600,27,
break,html.Screen,10_26_1,2023-11-30T17:44:31.787Z,,,,,,,,,,,NaN,,,,,,,,high,high,,,,,,,false,,,,,false,921548.7999999523,921548.4000000954,,921547.9000000954,,921586.992,5,600,,
break_continue,html.Screen,10_26_2,2023-11-30T17:44:31.788Z,,,,,,,,,,,NaN,,,,,,,,high,high,,,,,,,false,,,,,false,921549.5,921549.2000000477,,921549,,921586.992,5,600,,
sequence,flow.Sequence,10_26,2023-11-30T17:44:31.789Z,,,,,,,,,,,7309.846000047633,completion,,,,,,,high,high,,,,,,,false,,,,,false,921549.7999999523,921549.2000000477,914222.71,914229.7999999523,914239.354,921586.992,5,600,,
trial,html.Screen,10_27_0,2023-11-30T17:44:41.499Z,,,,1,0.0362376068089956,0.047825070846155,,0.05,false,hl,9672.108000143082,response,1.0026266089287914,1.1157250805494925,-1.0930262769537338,-1.0913275913920335,1.0974758170113774,-1.1674291817080873,high,low,,ISIC_6985114.JPG,9,ISIC_0033520.JPG,33,25,false,0.31000000000000016,lh,keypress(e),0,false,931259.4000000954,931259.100000143,921536.862,921550,921586.992,931272.481,5,600,28,
break,html.Screen,10_27_1,2023-11-30T17:44:41.500Z,,,,,,,,,,,NaN,,,,,,,,high,low,,,,,,,false,,,,,false,931260.5,931260.2999999523,,931259.7999999523,,931272.481,5,600,,
break_continue,html.Screen,10_27_2,2023-11-30T17:44:41.501Z,,,,,,,,,,,NaN,,,,,,,,high,low,,,,,,,false,,,,,false,931261.2999999523,931261.100000143,,931260.7999999523,,931272.481,5,600,,
sequence,flow.Sequence,10_27,2023-11-30T17:44:41.501Z,,,,,,,,,,,9674.108000143082,completion,,,,,,,high,low,,,,,,,false,,,,,false,931261.600000143,931261.100000143,921536.862,921550,921586.992,931272.481,5,600,,
trial,html.Screen,10_28_0,2023-11-30T17:44:44.531Z,,,,1,-0.0217698886732706,0.0410870915161425,,0.05,true,hh,3018.8189999522874,response,1.0769490291795207,1.1157250805494925,-1.0930262769537338,1.0174515954885954,1.0974758170113774,-1.1674291817080873,high,high,,ISIC_0072173.JPG,9,ISIC_0028135.JPG,33,25,false,0.1,hh,keypress(i),0,false,934291.7999999523,934291.2999999523,931256.004,931261.9000000954,931272.481,934311.757,5,600,29,
break,html.Screen,10_28_1,2023-11-30T17:44:44.532Z,,,,,,,,,,,NaN,,,,,,,,high,high,,,,,,,false,,,,,false,934293,934292.7000000477,,934292.2000000477,,934311.757,5,600,,
break_continue,html.Screen,10_28_2,2023-11-30T17:44:44.533Z,,,,,,,,,,,NaN,,,,,,,,high,high,,,,,,,false,,,,,false,934293.7999999523,934293.5,,934293.2999999523,,934311.757,5,600,,
sequence,flow.Sequence,10_28,2023-11-30T17:44:44.533Z,,,,,,,,,,,3021.018999999971,completion,,,,,,,high,high,,,,,,,false,,,,,false,934294.100000143,934293.5,931256.004,931261.7999999523,931272.481,934311.757,5,600,,
trial,html.Screen,10_29_0,2023-11-30T17:44:50.042Z,,,,1,-0.039728379742806,0.0228701131373768,,0.05,false,lh,5491.143000095384,response,-0.809764442462202,1.1157250805494925,-1.0930262769537338,1.005337148078696,1.0974758170113774,-1.1674291817080873,low,high,,ISIC_0054073.JPG,8,ISIC_2379379.JPG,33,27,false,0.3200000000000002,hh,keypress(i),0,false,939803.2000000477,939802.9000000954,934278.581,934294.2999999523,934311.757,939805.872,5,600,30,
break,html.Screen,10_29_1,2023-11-30T17:44:50.044Z,,,,,,,,,,,NaN,,,,,,,,low,high,,,,,,,false,,,,,false,939804.5,939804.100000143,,939803.600000143,,939805.872,5,600,,
break_continue,html.Screen,10_29_2,2023-11-30T17:44:50.045Z,,,,,,,,,,,NaN,,,,,,,,low,high,,,,,,,false,,,,,false,939805.2999999523,939805,,939804.7999999523,,939805.872,5,600,,
sequence,flow.Sequence,10_29,2023-11-30T17:44:50.045Z,,,,,,,,,,,5493.243000000017,completion,,,,,,,low,high,,,,,,,false,,,,,false,939805.600000143,939805,934278.581,934294.2000000477,934311.757,939805.872,5,600,,
trial,html.Screen,10_30_0,2023-11-30T17:44:56.059Z,,,,1,-0.0456515796420274,0.0273567130070961,,0.05,true,hh,6013.228000143077,response,1.1137763092539212,1.1157250805494925,-1.0930262769537338,1.1599906701455132,1.0974758170113774,-1.1674291817080873,high,high,,ISIC_0068610.JPG,9,ISIC_5413788.JPG,33,25,false,0.1,hh,keypress(i),0,false,945819.5,945819.100000143,939789.273,939805.9000000954,939805.872,945834.245,5,600,31,
break,html.Screen,10_30_1,2023-11-30T17:44:56.060Z,,,,,,,,,,,NaN,,,,,,,,high,high,,,,,,,false,,,,,false,945820.7000000477,945820.4000000954,,945819.9000000954,,945834.245,5,600,,
break_continue,html.Screen,10_30_2,2023-11-30T17:44:56.061Z,,,,,,,,,,,NaN,,,,,,,,high,high,,,,,,,false,,,,,false,945821.4000000954,945821.2000000477,,945820.9000000954,,945834.245,5,600,,
sequence,flow.Sequence,10_30,2023-11-30T17:44:56.061Z,,,,,,,,,,,6015.32800004771,completion,,,,,,,high,high,,,,,,,false,,,,,false,945821.7999999523,945821.2000000477,939789.273,939805.7999999523,939805.872,945834.245,5,600,,
trial,html.Screen,10_31_0,2023-11-30T17:45:02.434Z,,,,1,0.000047919190197942736,0.0462652940855003,,0.05,false,hh,6360.655000095372,response,1.1210325063849345,1.1157250805494925,-1.0930262769537338,1.1498648320956202,1.0974758170113774,-1.1674291817080873,high,high,,ISIC_0011507.JPG,10,ISIC_0032162.JPG,33,25,false,0.1,lh,keypress(e),0,false,952195.2000000477,952194.9000000954,945817.637,945822,945834.245,952213.706,5,600,32,
break,html.Screen,10_31_1,2023-11-30T17:45:02.436Z,,,,,,,,,,,NaN,,,,,,,,high,high,,,,,,,false,,,,,false,952196.2999999523,952196,,952195.600000143,,952213.706,5,600,,
break_continue,html.Screen,10_31_2,2023-11-30T17:45:02.437Z,,,,,,,,,,,NaN,,,,,,,,high,high,,,,,,,false,,,,,false,952197.4000000954,952197,,952196.7000000477,,952213.706,5,600,,
sequence,flow.Sequence,10_31,2023-11-30T17:45:02.437Z,,,,,,,,,,,6362.755000000005,completion,,,,,,,high,high,,,,,,,false,,,,,false,952197.7000000477,952197,945817.637,945822,945834.245,952213.706,5,600,,
trial,html.Screen,10_32_0,2023-11-30T17:45:10.003Z,,,,1,0,0.0264544974620926,,0.05,true,lh,7549.593999952311,response,-0.7911024675435955,1.1157250805494925,-1.0930262769537338,0.7975977016137676,1.0974758170113774,-1.1674291817080873,low,high,,ISIC_0056991.JPG,9,ISIC_5813642.JPG,33,27,false,0.3200000000000002,lh,keypress(e),0,false,959763.600000143,959763.2999999523,952179.877,952198,952213.706,959778.054,5,600,33,
break,html.Screen,10_32_1,2023-11-30T17:45:10.004Z,,,,,,,,,,,NaN,,,,,,,,low,high,,,,,,,false,,,,,false,959764.9000000954,959764.600000143,,959764,,959778.054,5,600,,
break_continue,html.Screen,10_32_2,2023-11-30T17:45:10.005Z,,,,,,,,,,,NaN,,,,,,,,low,high,,,,,,,false,,,,,false,959765.600000143,959765.4000000954,,959765.100000143,,959778.054,5,600,,
sequence,flow.Sequence,10_32,2023-11-30T17:45:10.005Z,,,,,,,,,,,7551.694000095362,completion,,,,,,,low,high,,,,,,,false,,,,,false,959766,959765.4000000954,952179.877,952197.7999999523,952213.706,959778.054,5,600,,
trial,html.Screen,10_33_0,2023-11-30T17:45:15.835Z,,,,1,-0.0363437082783146,-0.0333332186217051,,0.05,true,ll,5817.046000143047,response,-1.1346217981791904,1.1157250805494925,-1.0930262769537338,-1.1555132168806113,1.0974758170113774,-1.1674291817080873,low,low,,ISIC_3314555.JPG,8,ISIC_0032771.JPG,33,26,false,0.1,ll,keypress(f),0,false,965595.4000000954,965595.100000143,959761.493,959766,959778.054,965606.009,5,600,34,
break,html.Screen,10_33_1,2023-11-30T17:45:15.836Z,,,,,,,,,,,NaN,,,,,,,,low,low,,,,,,,false,,,,,false,965596.7000000477,965596.4000000954,,965595.9000000954,,965606.009,5,600,,
break_continue,html.Screen,10_33_2,2023-11-30T17:45:15.837Z,,,,,,,,,,,NaN,,,,,,,,low,low,,,,,,,false,,,,,false,965597.5,965597.2999999523,,965597,,965606.009,5,600,,
sequence,flow.Sequence,10_33,2023-11-30T17:45:15.837Z,,,,,,,,,,,5819.245999952313,completion,,,,,,,low,low,,,,,,,false,,,,,false,965597.7999999523,965597.2999999523,959761.493,959766,959778.054,965606.009,5,600,,
trial,html.Screen,10_34_0,2023-11-30T17:45:23.283Z,,,,1,0.0134764727102299,0.0033499036460912,,0.05,false,hl,7437.2909999523545,response,1.020990671779317,1.1157250805494925,-1.0930262769537338,-1.0116513850520903,1.0974758170113774,-1.1674291817080873,high,low,,ISIC_0009998.JPG,8,ISIC_0011995.JPG,33,25,false,0.31000000000000016,hh,keypress(i),0,false,973043.7000000477,973043.2999999523,965589.487,965598.100000143,965606.009,973053.846,5,600,35,
break,html.Screen,10_34_1,2023-11-30T17:45:23.284Z,,,,,,,,,,,NaN,,,,,,,,high,low,,,,,,,false,,,,,false,973044.9000000954,973044.5,,973044,,973053.846,5,600,,
break_continue,html.Screen,10_34_2,2023-11-30T17:45:23.285Z,,,,,,,,,,,NaN,,,,,,,,high,low,,,,,,,false,,,,,false,973045.5,973045.2999999523,,973045,,973053.846,5,600,,
sequence,flow.Sequence,10_34,2023-11-30T17:45:23.285Z,,,,,,,,,,,7439.2909999523545,completion,,,,,,,high,low,,,,,,,false,,,,,false,973045.7999999523,973045.2999999523,965589.487,965598,965606.009,973053.846,5,600,,
trial,html.Screen,10_35_0,2023-11-30T17:45:30.619Z,,,,1,0.0159061451859594,0.0296598845560212,,0.05,false,ll,7325.354000047664,response,-1.0700930503975157,1.1157250805494925,-1.0930262769537338,-1.2020012168275056,1.0974758170113774,-1.1674291817080873,low,low,,ISIC_0072564.JPG,10,ISIC_0000022.JPG,33,26,false,0.1,hl,keypress(j),0,false,980379.5,980379.2000000477,973037.162,973046.100000143,973053.846,980384.779,5,600,36,
break,html.Screen,10_35_1,2023-11-30T17:45:30.620Z,,,,,,,,,,,NaN,,,,,,,,low,low,,,,,,,false,,,,,false,980380.9000000954,980380.600000143,,980380.100000143,,980384.779,5,600,,
break_continue,html.Screen,10_35_2,2023-11-30T17:45:30.621Z,,,,,,,,,,,NaN,,,,,,,,low,low,,,,,,,false,,,,,false,980381.7999999523,980381.4000000954,,980381.2000000477,,980384.779,5,600,,
sequence,flow.Sequence,10_35,2023-11-30T17:45:30.621Z,,,,,,,,,,,7327.554000095348,completion,,,,,,,low,low,,,,,,,false,,,,,false,980382.100000143,980381.4000000954,973037.162,973046,973053.846,980384.779,5,600,,
trial,html.Screen,10_36_0,2023-11-30T17:45:37.140Z,,,,1,-0.0217698886732706,0.0410870915161425,,0.05,false,hh,6514.821000143071,response,1.037577073517966,1.1157250805494925,-1.0930262769537338,1.027048110709042,1.0974758170113774,-1.1674291817080873,high,high,,ISIC_0072173.JPG,8,ISIC_0004932.JPG,33,25,false,0.1,hl,keypress(j),0,false,986900,986899.600000143,980368.262,980382.2999999523,980384.779,986914.231,5,600,37,
break,html.Screen,10_36_1,2023-11-30T17:45:37.141Z,,,,,,,,,,,NaN,,,,,,,,high,high,,,,,,,false,,,,,false,986901.2000000477,986900.9000000954,,986900.4000000954,,986914.231,5,600,,
break_continue,html.Screen,10_36_2,2023-11-30T17:45:37.142Z,,,,,,,,,,,NaN,,,,,,,,high,high,,,,,,,false,,,,,false,986901.9000000954,986901.600000143,,986901.4000000954,,986914.231,5,600,,
sequence,flow.Sequence,10_36,2023-11-30T17:45:37.142Z,,,,,,,,,,,6516.821000143071,completion,,,,,,,high,high,,,,,,,false,,,,,false,986902.2000000477,986901.600000143,980368.262,980382.2000000477,980384.779,986914.231,5,600,,
trial,html.Screen,10_37_0,2023-11-30T17:45:40.603Z,,,,1,-0.0363437082783146,-0.0333332186217051,,0.05,true,hh,3448.5689999522874,response,1.0959058628476686,1.1157250805494925,-1.0930262769537338,1.1684835186766898,1.0974758170113774,-1.1674291817080873,high,high,,ISIC_3314555.JPG,10,ISIC_5920470.JPG,33,25,false,0.1,hh,keypress(i),0,false,990363.100000143,990362.7999999523,986897.605,986902.5,986914.231,990387.724,5,600,38,
break,html.Screen,10_37_1,2023-11-30T17:45:40.604Z,,,,,,,,,,,NaN,,,,,,,,high,high,,,,,,,false,,,,,false,990364.2999999523,990364,,990363.5,,990387.724,5,600,,
break_continue,html.Screen,10_37_2,2023-11-30T17:45:40.605Z,,,,,,,,,,,NaN,,,,,,,,high,high,,,,,,,false,,,,,false,990365,990364.7999999523,,990364.600000143,,990387.724,5,600,,
sequence,flow.Sequence,10_37,2023-11-30T17:45:40.605Z,,,,,,,,,,,3450.5689999522874,completion,,,,,,,high,high,,,,,,,false,,,,,false,990365.4000000954,990364.7999999523,986897.605,986902.4000000954,986914.231,990387.724,5,600,,
