sender,sender_type,sender_id,timestamp,meta,,age,blockNo,c1,c2,condition,control_tolerance,correct,correctResponse,duration,ended_on,f1,f1_high,f1_low,f2,f2_high,f2_low,feature_level1,feature_level2,gender,img_left,img_reveal,img_right,n_control_images,n_target_images,practice,range_tolerance,response,response_action,selection_duration,staircase,time_commit,time_end,time_render,time_run,time_show,time_switch,total_blocks,total_trials,trialNo,url
informed_consent,html.Screen,0,2023-11-30T15:29:56.034Z,"{""labjs_version"":""20.2.4"",""labjs_build"":{""flavor"":""development"",""commit"":""f5b4a49f956347addd546a832a3327688c2c0fef""},""location"":""https://labjs.felixhenninger.com/api/labjs_preview/index.html"",""userAgent"":""Mozilla/5.0 (Windows NT 10.0; Win64; x64) AppleWebKit/537.36 (KHTML, like Gecko) Chrome/119.0.0.0 Safari/537.36"",""platform"":""Win32"",""language"":""en-US"",""locale"":""en-US"",""timeZone"":""America/Chicago"",""timezoneOffset"":360,""screen_width"":1920,""screen_height"":1080,""scroll_width"":945,""scroll_height"":918,""window_innerWidth"":945,""window_innerHeight"":966,""devicePixelRatio"":1}",,,,,,,,,,19283.602,response,,,,,,,,,,,,,,,,,consent,click button,,,20076.299999952316,20067,766.742,970.6000001430511,783.398,19866.761,,,,{}
Demography form,html.Form,1,2023-11-30T15:30:05.984Z,,,18,,,,,,,,10159.939000047685,form submission,,,,,,,,,female,,,,,,,,,,,,30026.900000095367,30026.700000047684,19850.251,20076.60000014305,19866.761,29816.767,,,,
Welcome,html.Screen,2,2023-11-30T15:30:16.961Z,,,,,,,"[""bor"",""col""]",,,,11186.333000143051,response,,,,,,,,,,,,,,,,,continue,click button,,,41003.700000047684,41003.10000014305,29800.267,30027,29816.767,40800.119,,,,
demo_instructions,html.Screen,3,2023-11-30T15:30:22.473Z,,,,,,,,,,,5714.981000143052,response,,,,,,,,,,,,,,,,,continue,click button,,,46515.5,46515.10000014305,40783.546,41003.799999952316,40800.119,46316.798,,,,
trial,html.Screen,4_0_0,2023-11-30T15:30:37.677Z,,,,0,-1.2749714218614645,-1.1578619398362149,,,true,hh,15402.302000143049,response,1.151139267005652,1.2,-1.2,1.0838749490501327,1.2,-1.2,high,high,,ISIC_0024999.JPG,,ISIC_0002566.JPG,,25,true,0.14,hh,keypress(i),100,false,61719.40000009537,61719.10000014305,46300.24,46515.700000047684,46316.798,61533.504,1,16,1,
sequence,flow.Sequence,4_0,2023-11-30T15:30:37.693Z,,,,,,,,,,,15402.302000143049,completion,,,,,,,high,high,,,,,,,true,,,,,false,61735.10000014305,61719.10000014305,46300.24,46515.700000047684,46316.798,61533.504,1,16,,
trial,html.Screen,4_1_0,2023-11-30T15:30:41.812Z,,,,0,-1.266079261381142,-1.312161506160336,,,true,hh,4320.7959999523155,response,1.2724293858920366,1.2,-1.2,1.149360738769835,1.2,-1.2,high,high,,ISIC_0065449.JPG,,ISIC_1264725.JPG,,25,true,0.14,hh,keypress(i),100,false,65854.5,65854.29999995232,61516.87,61735.200000047684,61533.504,65666.826,1,16,2,
sequence,flow.Sequence,4_1,2023-11-30T15:30:41.812Z,,,,,,,,,,,4320.7959999523155,completion,,,,,,,high,high,,,,,,,true,,,,,false,65854.60000014305,65854.29999995232,61516.87,61735.200000047684,61533.504,65666.826,1,16,,
trial,html.Screen,4_2_0,2023-11-30T15:30:50.424Z,,,,0,-1.2749714218614645,-1.1578619398362149,,,true,hh,8798.973999952315,response,1.109799097093339,1.2,-1.2,1.091507924157762,1.2,-1.2,high,high,,ISIC_0024999.JPG,,ISIC_0765584.JPG,,25,true,0.14,hh,keypress(i),100,false,74466.10000014305,74465.79999995232,65650.149,65854.70000004768,65666.826,74283.599,1,16,3,
sequence,flow.Sequence,4_2,2023-11-30T15:30:50.424Z,,,,,,,,,,,8798.973999952315,completion,,,,,,,high,high,,,,,,,true,,,,,false,74466.60000014305,74465.79999995232,65650.149,65854.70000004768,65666.826,74283.599,1,16,,
trial,html.Screen,4_3_0,2023-11-30T15:30:55.298Z,,,,0,-1.1302628852630028,-1.288906469447243,,,true,hh,5056.001000143049,response,1.2253191093367526,1.2,-1.2,1.241905252673026,1.2,-1.2,high,high,,ISIC_0071050.JPG,,ISIC_1195689.JPG,,25,true,0.14,hh,keypress(i),100,false,79340,79339.60000014305,74266.869,74466.79999995232,74283.599,79150.315,1,16,4,
sequence,flow.Sequence,4_3,2023-11-30T15:30:55.298Z,,,,,,,,,,,5056.001000143049,completion,,,,,,,high,high,,,,,,,true,,,,,false,79340.40000009537,79339.60000014305,74266.869,74466.70000004768,74283.599,79150.315,1,16,,
trial,html.Screen,4_4_0,2023-11-30T15:31:02.601Z,,,,0,1.2600330864275875,1.0958628838888655,,,true,ll,7492.585000095365,response,-1.2749714218614645,1.2,-1.2,-1.1578619398362149,1.2,-1.2,low,low,,ISIC_0026996.JPG,,ISIC_0024999.JPG,,30,true,0.13,ll,keypress(f),100,false,86643.10000014305,86642.90000009537,79133.504,79340.60000014305,79150.315,86467.091,1,16,5,
sequence,flow.Sequence,4_4,2023-11-30T15:31:02.601Z,,,,,,,,,,,7492.585000095365,completion,,,,,,,low,low,,,,,,,true,,,,,false,86643.29999995232,86642.90000009537,79133.504,79340.5,79150.315,86467.091,1,16,,
trial,html.Screen,4_5_0,2023-11-30T15:31:04.750Z,,,,0,1.252716660627398,1.183977080937476,,,true,ll,2325.1090000476834,response,-1.0915173513546716,1.2,-1.2,-1.266840220031473,1.2,-1.2,low,low,,ISIC_0034194.JPG,,ISIC_8241457.JPG,,40,true,0.14,ll,keypress(f),100,false,88792.40000009537,88792.20000004768,86450.167,86643.5,86467.091,88616.953,1,16,6,
sequence,flow.Sequence,4_5,2023-11-30T15:31:04.750Z,,,,,,,,,,,2325.1090000476834,completion,,,,,,,low,low,,,,,,,true,,,,,false,88792.60000014305,88792.20000004768,86450.167,86643.40000009537,86467.091,88616.953,1,16,,
trial,html.Screen,4_6_0,2023-11-30T15:31:07.012Z,,,,0,1.274417010249866,1.0725495669014795,,,true,ll,2437.346999952322,response,-1.266079261381142,1.2,-1.2,-1.312161506160336,1.2,-1.2,low,low,,ISIC_8849004.JPG,,ISIC_0065449.JPG,,40,true,0.14,ll,keypress(f),100,false,91054.5,91054.29999995232,88600.278,88792.70000004768,88616.953,90866.88,1,16,7,
sequence,flow.Sequence,4_6,2023-11-30T15:31:07.012Z,,,,,,,,,,,2437.346999952322,completion,,,,,,,low,low,,,,,,,true,,,,,false,91054.79999995232,91054.29999995232,88600.278,88792.70000004768,88616.953,90866.88,1,16,,
trial,html.Screen,4_7_0,2023-11-30T15:31:10.217Z,,,,0,1.2600330864275875,1.0958628838888655,,,true,ll,3392.520000095363,response,-1.0650939066726144,1.2,-1.2,-1.315677757912145,1.2,-1.2,low,low,,ISIC_0026996.JPG,,ISIC_0070163.JPG,,40,true,0.14,ll,keypress(f),100,false,94259.60000014305,94259.40000009537,90850.263,91054.79999995232,90866.88,94083.502,1,16,8,
sequence,flow.Sequence,4_7,2023-11-30T15:31:10.217Z,,,,,,,,,,,3392.520000095363,completion,,,,,,,low,low,,,,,,,true,,,,,false,94259.70000004768,94259.40000009537,90850.263,91054.79999995232,90866.88,94083.502,1,16,,
trial,html.Screen,4_8_0,2023-11-30T15:31:20.209Z,,,,0,1.0453124399868816,-0.8986747280184286,,,true,lh,10167.998000000007,response,-1.0116417541846066,1.2,-1.2,1.033442916947398,1.2,-1.2,low,high,,ISIC_0013967.JPG,,ISIC_0031389.JPG,,27,true,0.40000000000000024,lh,keypress(e),100,false,104251.60000014305,104251.5,94066.88,94259.79999995232,94083.502,104067.015,1,16,9,
sequence,flow.Sequence,4_8,2023-11-30T15:31:20.209Z,,,,,,,,,,,10167.998000000007,completion,,,,,,,low,high,,,,,,,true,,,,,false,104251.90000009537,104251.5,94066.88,94259.79999995232,94083.502,104067.015,1,16,,
trial,html.Screen,4_9_0,2023-11-30T15:31:26.751Z,,,,0,0.7883321712536753,-1.0011430756825364,,,true,lh,6726.385000095368,response,-0.9633172970727744,1.2,-1.2,0.8472659344792351,1.2,-1.2,low,high,,ISIC_9828853.JPG,,ISIC_0067172.JPG,,40,true,0.4500000000000003,lh,keypress(e),100,false,110793.5,110793.40000009537,104050.195,104252,104067.015,110616.905,1,16,10,
sequence,flow.Sequence,4_9,2023-11-30T15:31:26.751Z,,,,,,,,,,,6726.385000095368,completion,,,,,,,low,high,,,,,,,true,,,,,false,110793.60000014305,110793.40000009537,104050.195,104252,104067.015,110616.905,1,16,,
trial,html.Screen,4_10_0,2023-11-30T15:31:28.989Z,,,,0,1.2054195059663604,-0.7760611240296147,,,true,lh,2414.1950001430523,response,-0.9633172970727744,1.2,-1.2,0.8472659344792351,1.2,-1.2,low,high,,ISIC_8712559.JPG,,ISIC_0067172.JPG,,40,true,0.4500000000000003,lh,keypress(e),100,false,113031.29999995232,113031.10000014305,110600.304,110793.70000004768,110616.905,112850.235,1,16,11,
sequence,flow.Sequence,4_10,2023-11-30T15:31:28.989Z,,,,,,,,,,,2414.1950001430523,completion,,,,,,,low,high,,,,,,,true,,,,,false,113031.40000009537,113031.10000014305,110600.304,110793.70000004768,110616.905,112850.235,1,16,,
trial,html.Screen,4_11_0,2023-11-30T15:31:35.149Z,,,,0,1.0887164761389951,-1.5357518752548716,,,true,lh,6340.465000047683,response,-0.9244148283103414,1.2,-1.2,0.9712966348713286,1.2,-1.2,low,high,,ISIC_0028127.JPG,,ISIC_7927525.JPG,,40,true,0.4500000000000003,lh,keypress(e),100,false,119190.79999995232,119190.70000004768,112833.585,113031.5,112850.235,119016.88,1,16,12,
sequence,flow.Sequence,4_11,2023-11-30T15:31:35.150Z,,,,,,,,,,,6340.465000047683,completion,,,,,,,low,high,,,,,,,true,,,,,false,119191,119190.70000004768,112833.585,113031.5,112850.235,119016.88,1,16,,
trial,html.Screen,4_12_0,2023-11-30T15:31:36.286Z,,,,0,-0.9138670886161264,0.8414121478342018,,,false,hl,1310.1199999999953,response,0.8828738626295417,1.2,-1.2,-0.8288177599439582,1.2,-1.2,high,low,,ISIC_6709052.JPG,,ISIC_0056041.JPG,,26,true,0.4500000000000003,lh,keypress(e),100,false,120327.10000014305,120327,119000.242,119191.10000014305,119016.88,120150.245,1,16,13,
sequence,flow.Sequence,4_12,2023-11-30T15:31:36.286Z,,,,,,,,,,,1310.1199999999953,completion,,,,,,,high,low,,,,,,,true,,,,,false,120327.20000004768,120327,119000.242,119191.10000014305,119016.88,120150.245,1,16,,
trial,html.Screen,4_13_0,2023-11-30T15:31:43.500Z,,,,0,-0.8350129142228142,0.8172547818270586,,,true,hl,7391.155000095372,response,0.9653573371180936,1.2,-1.2,-0.854766800381037,1.2,-1.2,high,low,,ISIC_0301568.JPG,,ISIC_9640145.JPG,,26,true,0.4500000000000003,hl,keypress(j),100,false,127541.60000014305,127541.40000009537,120133.541,120327.29999995232,120150.245,127366.925,1,16,14,
sequence,flow.Sequence,4_13,2023-11-30T15:31:43.501Z,,,,,,,,,,,7391.155000095372,completion,,,,,,,high,low,,,,,,,true,,,,,false,127541.90000009537,127541.40000009537,120133.541,120327.20000004768,120150.245,127366.925,1,16,,
trial,html.Screen,4_14_0,2023-11-30T15:31:46.956Z,,,,0,-0.90812608370647,1.2720026872926935,,,true,hl,3630.4750000953645,response,0.8828738626295417,1.2,-1.2,-0.8288177599439582,1.2,-1.2,high,low,,ISIC_0450295.JPG,,ISIC_0056041.JPG,,26,true,0.4500000000000003,hl,keypress(j),100,false,130997.60000014305,130997.40000009537,127350.265,127542,127366.925,130817.145,1,16,15,
sequence,flow.Sequence,4_14,2023-11-30T15:31:46.956Z,,,,,,,,,,,3630.4750000953645,completion,,,,,,,high,low,,,,,,,true,,,,,false,130997.70000004768,130997.40000009537,127350.265,127541.90000009537,127366.925,130817.145,1,16,,
trial,html.Screen,4_15_0,2023-11-30T15:31:49.083Z,,,,0,-0.90812608370647,1.2720026872926935,,,true,hl,2307.154999952312,response,1.0453124399868816,1.2,-1.2,-0.8986747280184286,1.2,-1.2,high,low,,ISIC_0450295.JPG,,ISIC_0013967.JPG,,26,true,0.4500000000000003,hl,keypress(j),100,false,133124.29999995232,133124.29999995232,130800.263,130997.79999995232,130817.145,132950.416,1,16,16,
sequence,flow.Sequence,4_15,2023-11-30T15:31:49.083Z,,,,,,,,,,,2307.154999952312,completion,,,,,,,high,low,,,,,,,true,,,,,false,133124.5,133124.29999995232,130800.263,130997.79999995232,130817.145,132950.416,1,16,,
demonstration_loop,flow.Loop,4,2023-11-30T15:31:49.083Z,,,,,,,,,,,86807.5019999523,completion,,,,,,,,,,,,,,,true,,,,,false,133124.60000014305,133124.29999995232,46300.24,46515.700000047684,46316.798,132950.416,1,16,,
practice_instructions,html.Screen,5,2023-11-30T15:32:07.594Z,,,,,,,,,,,18676.48400009537,response,,,,,,,,,,,,,,,,,continue,click button,,,151635.10000014305,151626.90000009537,132933.8,133124.70000004768,132950.416,151450.436,,,,
trial,html.Screen,6_0_0,2023-11-30T15:32:23.421Z,,,,1,1.109799097093339,1.091507924157762,,,,,15833.194000000018,timeout,-1.0915173513546716,1.2,-1.2,-1.266840220031473,1.2,-1.2,low,low,,ISIC_0765584.JPG,,ISIC_8241457.JPG,,30,true,0.13,,,0,false,167462,167461.70000004768,151433.583,151635.10000014305,151450.436,167283.63,1,40,1,
sequence,flow.Sequence,6_0,2023-11-30T15:32:23.421Z,,,,,,,,,,,16011.264000047697,completion,,,,,,,low,low,,,,,,,true,,,,,false,167462.40000009537,167461.70000004768,151433.583,151635.10000014305,151450.436,167283.63,1,40,,
trial,html.Screen,6_1_0,2023-11-30T15:32:27.527Z,,,,1,-1.0116417541846066,1.033442916947398,,,true,hl,4284.369999999995,response,1.199471562817528,1.2,-1.2,-0.8631260534979347,1.2,-1.2,high,low,,ISIC_0031389.JPG,,ISIC_0030754.JPG,,26,true,0.4500000000000003,hl,keypress(j),0,false,171568.20000004768,171568,167250.293,167462.60000014305,167283.63,171383.643,1,40,2,
sequence,flow.Sequence,6_1,2023-11-30T15:32:27.527Z,,,,,,,,,,,4284.369999999995,completion,,,,,,,high,low,,,,,,,true,,,,,false,171568.29999995232,171568,167250.293,167462.5,167283.63,171383.643,1,40,,
trial,html.Screen,6_2_0,2023-11-30T15:32:32.172Z,,,,1,-1.14454137020797,-1.1082302786512033,,,true,hh,4828.95700014304,response,1.2100527057059796,1.2,-1.2,1.2159112471537263,1.2,-1.2,high,high,,ISIC_0065128.JPG,,ISIC_0008055.JPG,,203,true,0.40000000000000024,hh,keypress(i),0,false,176212.90000009537,176212.60000014305,171366.982,171568.40000009537,171383.643,176016.97,1,40,3,
sequence,flow.Sequence,6_2,2023-11-30T15:32:32.172Z,,,,,,,,,,,4828.95700014304,completion,,,,,,,high,high,,,,,,,true,,,,,false,176213.40000009537,176212.60000014305,171366.982,171568.40000009537,171383.643,176016.97,1,40,,
trial,html.Screen,6_3_0,2023-11-30T15:32:37.171Z,,,,1,-1.045301444872812,1.0872560254441277,,,true,hl,5195.13000014305,response,0.8926515927689261,1.2,-1.2,-0.7935960767768927,1.2,-1.2,high,low,,ISIC_4507700.JPG,,ISIC_8901371.JPG,,26,true,0.4500000000000003,hl,keypress(j),0,false,181212.29999995232,181212.10000014305,176000.12,176213.60000014305,176016.97,181017.037,1,40,4,
sequence,flow.Sequence,6_3,2023-11-30T15:32:37.172Z,,,,,,,,,,,5195.13000014305,completion,,,,,,,high,low,,,,,,,true,,,,,false,181212.70000004768,181212.10000014305,176000.12,176213.5,176016.97,181017.037,1,40,,
trial,html.Screen,6_4_0,2023-11-30T15:32:42.819Z,,,,1,-1.0849202097813322,-1.0851127310415287,,,true,hh,5843.262999952305,response,0.8040154393530985,1.2,-1.2,1.4244737913484802,1.2,-1.2,high,high,,ISIC_0010289.JPG,,ISIC_3291765.JPG,,203,true,0.40000000000000024,hh,keypress(i),0,false,186860.5,186860.29999995232,181000.133,181212.79999995232,181017.037,186667.012,1,40,5,
sequence,flow.Sequence,6_4,2023-11-30T15:32:42.820Z,,,,,,,,,,,5843.262999952305,completion,,,,,,,high,high,,,,,,,true,,,,,false,186860.90000009537,186860.29999995232,181000.133,181212.79999995232,181017.037,186667.012,1,40,,
trial,html.Screen,6_5_0,2023-11-30T15:32:45.179Z,,,,1,-1.1243896694621007,-1.1772340944704969,,,true,hh,2552.8880000953795,response,1.2541318165695772,1.2,-1.2,1.085289936617366,1.2,-1.2,high,high,,ISIC_0062765.JPG,,ISIC_4277207.JPG,,25,true,0.14,hh,keypress(i),0,false,189220,189219.90000009537,186650.247,186861,186667.012,189050.33,1,40,6,
sequence,flow.Sequence,6_5,2023-11-30T15:32:45.179Z,,,,,,,,,,,2552.8880000953795,completion,,,,,,,high,high,,,,,,,true,,,,,false,189220.29999995232,189219.90000009537,186650.247,186861,186667.012,189050.33,1,40,,
trial,html.Screen,6_6_0,2023-11-30T15:32:47.403Z,,,,1,-0.8350129142228142,0.8172547818270586,,,true,hl,2393.469999952329,response,0.8034318937720549,1.2,-1.2,-1.0024917298189338,1.2,-1.2,high,low,,ISIC_0301568.JPG,,ISIC_0032766.JPG,,26,true,0.4500000000000003,hl,keypress(j),0,false,191444,191443.79999995232,189000.271,189220.40000009537,189050.33,191250.323,1,40,7,
sequence,flow.Sequence,6_6,2023-11-30T15:32:47.403Z,,,,,,,,,,,2393.469999952329,completion,,,,,,,high,low,,,,,,,true,,,,,false,191444.20000004768,191443.79999995232,189000.271,189220.40000009537,189050.33,191250.323,1,40,,
trial,html.Screen,6_7_0,2023-11-30T15:32:49.179Z,,,,1,0.989300717252516,-0.7908280206937478,,,true,lh,1969.5770000953635,response,-0.9244148283103414,1.2,-1.2,0.9712966348713286,1.2,-1.2,low,high,,ISIC_6416533.JPG,,ISIC_7927525.JPG,,27,true,0.40000000000000024,lh,keypress(e),0,false,193220.10000014305,193219.90000009537,191233.6,191444.40000009537,191250.323,193017.015,1,40,8,
sequence,flow.Sequence,6_7,2023-11-30T15:32:49.179Z,,,,,,,,,,,1969.5770000953635,completion,,,,,,,low,high,,,,,,,true,,,,,false,193220.29999995232,193219.90000009537,191233.6,191444.40000009537,191250.323,193017.015,1,40,,
trial,html.Screen,6_8_0,2023-11-30T15:32:51.067Z,,,,1,-1.0116417541846066,1.033442916947398,,,true,hl,2091.3850000953535,response,0.8472024037189965,1.2,-1.2,-0.986370061404882,1.2,-1.2,high,low,,ISIC_0031389.JPG,,ISIC_0054355.JPG,,26,true,0.4500000000000003,hl,keypress(j),0,false,195108.60000014305,195108.40000009537,193000.463,193220.5,193017.015,194916.997,1,40,9,
sequence,flow.Sequence,6_8,2023-11-30T15:32:51.068Z,,,,,,,,,,,2091.3850000953535,completion,,,,,,,high,low,,,,,,,true,,,,,false,195109,195108.40000009537,193000.463,193220.5,193017.015,194916.997,1,40,,
trial,html.Screen,6_9_0,2023-11-30T15:32:52.891Z,,,,1,-1.045301444872812,1.0872560254441277,,,true,hl,2015.3029999523133,response,1.0887164761389951,1.2,-1.2,-1.5357518752548716,1.2,-1.2,high,low,,ISIC_4507700.JPG,,ISIC_0028127.JPG,,26,true,0.4500000000000003,hl,keypress(j),0,false,196932.5,196932.29999995232,194900.407,195109.10000014305,194916.997,196733.655,1,40,10,
sequence,flow.Sequence,6_9,2023-11-30T15:32:52.892Z,,,,,,,,,,,2015.3029999523133,completion,,,,,,,high,low,,,,,,,true,,,,,false,196932.79999995232,196932.29999995232,194900.407,195109.10000014305,194916.997,196733.655,1,40,,
trial,html.Screen,6_10_0,2023-11-30T15:32:54.963Z,,,,1,-0.8867328775712738,1.0063426986460375,,,true,hl,2270.2450000953686,response,1.199471562817528,1.2,-1.2,-0.8631260534979347,1.2,-1.2,high,low,,ISIC_0055759.JPG,,ISIC_0030754.JPG,,26,true,0.4500000000000003,hl,keypress(j),0,false,199004.20000004768,199003.90000009537,196717.071,196933,196733.655,198800.387,1,40,11,
sequence,flow.Sequence,6_10,2023-11-30T15:32:54.963Z,,,,,,,,,,,2270.2450000953686,completion,,,,,,,high,low,,,,,,,true,,,,,false,199004.5,199003.90000009537,196717.071,196932.90000009537,196733.655,198800.387,1,40,,
trial,html.Screen,6_11_0,2023-11-30T15:32:56.723Z,,,,1,0.8472024037189965,-0.986370061404882,,,true,lh,1963.7130001430633,response,-0.8867328775712738,1.2,-1.2,1.0063426986460375,1.2,-1.2,low,high,,ISIC_0054355.JPG,,ISIC_0055759.JPG,,27,true,0.40000000000000024,lh,keypress(e),0,false,200764.20000004768,200764.10000014305,198783.758,199004.60000014305,198800.387,200567.034,1,40,12,
sequence,flow.Sequence,6_11,2023-11-30T15:32:56.723Z,,,,,,,,,,,1963.7130001430633,completion,,,,,,,low,high,,,,,,,true,,,,,false,200764.5,200764.10000014305,198783.758,199004.5,198800.387,200567.034,1,40,,
trial,html.Screen,6_12_0,2023-11-30T15:32:58.123Z,,,,1,-0.9662688541319592,0.929746784178986,,,true,hl,1596.566000143037,response,0.8513427412482127,1.2,-1.2,-0.9295303568095064,1.2,-1.2,high,low,,ISIC_0011077.JPG,,ISIC_0034164.JPG,,26,true,0.4500000000000003,hl,keypress(j),0,false,202163.60000014305,202163.60000014305,200550.379,200764.60000014305,200567.034,201967.004,1,40,13,
sequence,flow.Sequence,6_12,2023-11-30T15:32:58.123Z,,,,,,,,,,,1596.566000143037,completion,,,,,,,high,low,,,,,,,true,,,,,false,202163.79999995232,202163.60000014305,200550.379,200764.60000014305,200567.034,201967.004,1,40,,
trial,html.Screen,6_13_0,2023-11-30T15:32:59.963Z,,,,1,1.058275612142778,-0.7824898568540655,,,true,lh,2036.8960000953812,response,-0.8067116931297591,1.2,-1.2,1.215898074058027,1.2,-1.2,low,high,,ISIC_4906385.JPG,,ISIC_1457687.JPG,,27,true,0.40000000000000024,lh,keypress(e),0,false,204004,204003.90000009537,201950.364,202163.79999995232,201967.004,203800.353,1,40,14,
sequence,flow.Sequence,6_13,2023-11-30T15:32:59.963Z,,,,,,,,,,,2036.8960000953812,completion,,,,,,,low,high,,,,,,,true,,,,,false,204004.29999995232,204003.90000009537,201950.364,202163.79999995232,201967.004,203800.353,1,40,,
trial,html.Screen,6_14_0,2023-11-30T15:33:01.467Z,,,,1,-1.1048559518249943,-1.2252457981338687,,,true,hh,1707.847000047681,response,1.2101243893950622,1.2,-1.2,0.9721089662087676,1.2,-1.2,high,high,,ISIC_0060817.JPG,,ISIC_0760740.JPG,,265,true,0.4500000000000003,hh,keypress(i),0,false,205508.40000009537,205508.20000004768,203783.736,204004.29999995232,203800.353,205317.049,1,40,15,
sequence,flow.Sequence,6_14,2023-11-30T15:33:01.468Z,,,,,,,,,,,1707.847000047681,completion,,,,,,,high,high,,,,,,,true,,,,,false,205508.79999995232,205508.20000004768,203783.736,204004.29999995232,203800.353,205317.049,1,40,,
trial,html.Screen,6_15_0,2023-11-30T15:33:03.340Z,,,,1,1.1843968275545205,1.2828739728067764,,,true,ll,2063.551000143052,response,-1.2691569063625474,1.2,-1.2,-1.1264228993232308,1.2,-1.2,low,low,,ISIC_0002901.JPG,,ISIC_4980656.JPG,,30,true,0.13,ll,keypress(f),0,false,207380.90000009537,207380.60000014305,205300.369,205508.90000009537,205317.049,207183.69,1,40,16,
sequence,flow.Sequence,6_15,2023-11-30T15:33:03.340Z,,,,,,,,,,,2063.551000143052,completion,,,,,,,low,low,,,,,,,true,,,,,false,207381.20000004768,207380.60000014305,205300.369,205508.90000009537,205317.049,207183.69,1,40,,
trial,html.Screen,6_16_0,2023-11-30T15:33:04.891Z,,,,1,1.274417010249866,1.0725495669014795,,,true,ll,1748.0100000476814,response,-1.1117876838408909,1.2,-1.2,-1.2957497771092716,1.2,-1.2,low,low,,ISIC_8849004.JPG,,ISIC_0061915.JPG,,40,true,0.14,ll,keypress(f),0,false,208931.90000009537,208931.70000004768,207167.146,207381.5,207183.69,208750.351,1,40,17,
sequence,flow.Sequence,6_16,2023-11-30T15:33:04.891Z,,,,,,,,,,,1748.0100000476814,completion,,,,,,,low,low,,,,,,,true,,,,,false,208932.20000004768,208931.70000004768,207167.146,207381.40000009537,207183.69,208750.351,1,40,,
trial,html.Screen,6_17_0,2023-11-30T15:33:06.411Z,,,,1,0.7882758084023446,-0.8296405881378283,,,true,lh,1701.749000143056,response,-0.8987343013179191,1.2,-1.2,0.8149073454566363,1.2,-1.2,low,high,,ISIC_0065882.JPG,,ISIC_0472513.JPG,,27,true,0.40000000000000024,lh,keypress(e),0,false,210452.20000004768,210452.10000014305,208717.102,208932.29999995232,208750.351,210250.354,1,40,18,
sequence,flow.Sequence,6_17,2023-11-30T15:33:06.411Z,,,,,,,,,,,1701.749000143056,completion,,,,,,,low,high,,,,,,,true,,,,,false,210452.60000014305,210452.10000014305,208717.102,208932.29999995232,208750.351,210250.354,1,40,,
trial,html.Screen,6_18_0,2023-11-30T15:33:09.828Z,,,,1,1.0943527860463682,1.124481746658104,,,true,ll,3618.0460000953753,response,-0.8679614460736003,1.2,-1.2,-0.9273061036826674,1.2,-1.2,low,low,,ISIC_0438136.JPG,,ISIC_9955163.JPG,,359,true,0.4500000000000003,ll,keypress(f),0,false,213868.60000014305,213868.40000009537,210233.885,210452.79999995232,210250.354,213667.048,1,40,19,
sequence,flow.Sequence,6_18,2023-11-30T15:33:09.828Z,,,,,,,,,,,3618.0460000953753,completion,,,,,,,low,low,,,,,,,true,,,,,false,213869,213868.40000009537,210233.885,210452.70000004768,210250.354,213667.048,1,40,,
trial,html.Screen,6_19_0,2023-11-30T15:33:11.530Z,,,,1,-1.136677654701082,-1.2647850993872314,,,true,hh,1904.3520000953577,response,1.077278111180185,1.2,-1.2,1.1530533996184025,1.2,-1.2,high,high,,ISIC_0015436.JPG,,ISIC_9525136.JPG,,25,true,0.14,hh,keypress(i),0,false,215571.5,215571.40000009537,213650.258,213869.10000014305,213667.048,215366.998,1,40,20,
sequence,flow.Sequence,6_19,2023-11-30T15:33:11.530Z,,,,,,,,,,,1904.3520000953577,completion,,,,,,,high,high,,,,,,,true,,,,,false,215571.60000014305,215571.40000009537,213650.258,213869.10000014305,213667.048,215366.998,1,40,,
trial,html.Screen,6_20_0,2023-11-30T15:33:13.306Z,,,,1,1.2253191093367526,1.241905252673026,,,true,ll,1980.5020000000077,response,-1.1117876838408909,1.2,-1.2,-1.2957497771092716,1.2,-1.2,low,low,,ISIC_1195689.JPG,,ISIC_0061915.JPG,,30,true,0.13,ll,keypress(f),0,false,217347.60000014305,217347.5,215350.515,215571.70000004768,215366.998,217150.51,1,40,21,
sequence,flow.Sequence,6_20,2023-11-30T15:33:13.307Z,,,,,,,,,,,1980.5020000000077,completion,,,,,,,low,low,,,,,,,true,,,,,false,217347.79999995232,217347.5,215350.515,215571.70000004768,215366.998,217150.51,1,40,,
trial,html.Screen,6_21_0,2023-11-30T15:33:14.964Z,,,,1,1.252716660627398,1.183977080937476,,,true,ll,1853.9899999999907,response,-1.1117876838408909,1.2,-1.2,-1.2957497771092716,1.2,-1.2,low,low,,ISIC_0034194.JPG,,ISIC_0061915.JPG,,40,true,0.14,ll,keypress(f),0,false,219004.79999995232,219004.5,217133.721,217347.79999995232,217150.51,218833.679,1,40,22,
sequence,flow.Sequence,6_21,2023-11-30T15:33:14.964Z,,,,,,,,,,,1853.9899999999907,completion,,,,,,,low,low,,,,,,,true,,,,,false,219005.10000014305,219004.5,217133.721,217347.79999995232,217150.51,218833.679,1,40,,
trial,html.Screen,6_22_0,2023-11-30T15:33:16.355Z,,,,1,1.199471562817528,-0.8631260534979347,,,true,lh,1562.2210000953637,response,-0.9662688541319592,1.2,-1.2,0.929746784178986,1.2,-1.2,low,high,,ISIC_0030754.JPG,,ISIC_0011077.JPG,,27,true,0.40000000000000024,lh,keypress(e),0,false,220396,220395.90000009537,218783.799,219005.29999995232,218833.679,220200.383,1,40,23,
sequence,flow.Sequence,6_22,2023-11-30T15:33:16.355Z,,,,,,,,,,,1562.2210000953637,completion,,,,,,,low,high,,,,,,,true,,,,,false,220396.29999995232,220395.90000009537,218783.799,219005.29999995232,218833.679,220200.383,1,40,,
trial,html.Screen,6_23_0,2023-11-30T15:33:17.987Z,,,,1,0.8719231363109603,-0.7704280220140033,,,true,lh,1827.1169999999984,response,-0.8047295996345292,1.2,-1.2,1.551750455622795,1.2,-1.2,low,high,,ISIC_0029453.JPG,,ISIC_7717907.JPG,,40,true,0.4500000000000003,lh,keypress(e),0,false,222027.60000014305,222027.5,220183.82,220396.40000009537,220200.383,221833.693,1,40,24,
sequence,flow.Sequence,6_23,2023-11-30T15:33:17.987Z,,,,,,,,,,,1827.1169999999984,completion,,,,,,,low,high,,,,,,,true,,,,,false,222027.79999995232,222027.5,220183.82,220396.40000009537,220200.383,221833.693,1,40,,
trial,html.Screen,6_24_0,2023-11-30T15:33:19.490Z,,,,1,-1.2081146885025262,1.195668832085049,,,true,hl,1697.7070000953681,response,0.8472024037189965,1.2,-1.2,-0.986370061404882,1.2,-1.2,high,low,,ISIC_7369690.JPG,,ISIC_0054355.JPG,,26,true,0.4500000000000003,hl,keypress(j),0,false,223531.60000014305,223531.40000009537,221816.988,222027.90000009537,221833.693,223333.677,1,40,25,
sequence,flow.Sequence,6_24,2023-11-30T15:33:19.491Z,,,,,,,,,,,1697.7070000953681,completion,,,,,,,high,low,,,,,,,true,,,,,false,223531.70000004768,223531.40000009537,221816.988,222027.90000009537,221833.693,223333.677,1,40,,
trial,html.Screen,6_25_0,2023-11-30T15:33:20.851Z,,,,1,-1.1302628852630028,-1.288906469447243,,,true,hh,1558.323000000004,response,1.5793180618311822,1.2,-1.2,0.8384436306332896,1.2,-1.2,high,high,,ISIC_0071050.JPG,,ISIC_1584535.JPG,,203,true,0.40000000000000024,hh,keypress(i),0,false,224892.20000004768,224892,223317.016,223531.79999995232,223333.677,224700.363,1,40,26,
sequence,flow.Sequence,6_25,2023-11-30T15:33:20.851Z,,,,,,,,,,,1558.323000000004,completion,,,,,,,high,high,,,,,,,true,,,,,false,224892.5,224892,223317.016,223531.70000004768,223333.677,224700.363,1,40,,
trial,html.Screen,6_26_0,2023-11-30T15:33:23.250Z,,,,1,1.2578167348825195,-0.8371819698254004,,,true,lh,2591.136999999988,response,-1.0685314915436992,1.2,-1.2,0.8203833713472237,1.2,-1.2,low,high,,ISIC_9613570.JPG,,ISIC_0029374.JPG,,27,true,0.40000000000000024,lh,keypress(e),0,false,227291.5,227291.5,224683.698,224892.60000014305,224700.363,227100.354,1,40,27,
sequence,flow.Sequence,6_26,2023-11-30T15:33:23.251Z,,,,,,,,,,,2591.136999999988,completion,,,,,,,low,high,,,,,,,true,,,,,false,227291.70000004768,227291.5,224683.698,224892.60000014305,224700.363,227100.354,1,40,,
trial,html.Screen,6_27_0,2023-11-30T15:33:24.603Z,,,,1,-1.2594580992890123,0.8833175387485132,,,true,hl,1543.9459999523242,response,1.058275612142778,1.2,-1.2,-0.7824898568540655,1.2,-1.2,high,low,,ISIC_0011933.JPG,,ISIC_4906385.JPG,,26,true,0.4500000000000003,hl,keypress(j),0,false,228644.60000014305,228644.29999995232,227083.776,227291.70000004768,227100.354,228450.381,1,40,28,
sequence,flow.Sequence,6_27,2023-11-30T15:33:24.604Z,,,,,,,,,,,1543.9459999523242,completion,,,,,,,high,low,,,,,,,true,,,,,false,228645,228644.29999995232,227083.776,227291.70000004768,227100.354,228450.381,1,40,,
trial,html.Screen,6_28_0,2023-11-30T15:33:26.196Z,,,,1,-0.9662688541319592,0.929746784178986,,,true,hl,1786.119000000006,response,0.7991459998473059,1.2,-1.2,-1.0280788723474688,1.2,-1.2,high,low,,ISIC_0011077.JPG,,ISIC_7951202.JPG,,26,true,0.4500000000000003,hl,keypress(j),0,false,230236.79999995232,230236.5,228433.673,228645.20000004768,228450.381,230033.766,1,40,29,
sequence,flow.Sequence,6_28,2023-11-30T15:33:26.196Z,,,,,,,,,,,1786.119000000006,completion,,,,,,,high,low,,,,,,,true,,,,,false,230237.10000014305,230236.5,228433.673,228645.10000014305,228450.381,230033.766,1,40,,
trial,html.Screen,6_29_0,2023-11-30T15:33:27.699Z,,,,1,-1.2194553326562725,-1.2381726989215684,,,true,hh,1705.834000143048,response,1.0257168197307909,1.2,-1.2,1.0403166496930305,1.2,-1.2,high,high,,ISIC_0068975.JPG,,ISIC_1690909.JPG,,203,true,0.40000000000000024,hh,keypress(i),0,false,231739.79999995232,231739.60000014305,230017.064,230237.20000004768,230033.766,231550.518,1,40,30,
sequence,flow.Sequence,6_29,2023-11-30T15:33:27.699Z,,,,,,,,,,,1705.834000143048,completion,,,,,,,high,high,,,,,,,true,,,,,false,231740,231739.60000014305,230017.064,230237.20000004768,230033.766,231550.518,1,40,,
trial,html.Screen,6_30_0,2023-11-30T15:33:29.059Z,,,,1,1.160746324899676,1.1927876559115576,,,true,ll,1548.981999999989,response,-1.0769708994456726,1.2,-1.2,-1.2196503533725178,1.2,-1.2,low,low,,ISIC_8651053.JPG,,ISIC_0063824.JPG,,30,true,0.13,ll,keypress(f),0,false,233099.60000014305,233099.5,231533.803,231740.10000014305,231550.518,232900.516,1,40,31,
sequence,flow.Sequence,6_30,2023-11-30T15:33:29.059Z,,,,,,,,,,,1548.981999999989,completion,,,,,,,low,low,,,,,,,true,,,,,false,233099.79999995232,233099.5,231533.803,231740,231550.518,232900.516,1,40,,
trial,html.Screen,6_31_0,2023-11-30T15:33:30.419Z,,,,1,1.1409143352872226,1.1323007949069106,,,true,ll,1559.1840000476805,response,-1.0650939066726144,1.2,-1.2,-1.315677757912145,1.2,-1.2,low,low,,ISIC_0030291.JPG,,ISIC_0070163.JPG,,40,true,0.14,ll,keypress(f),0,false,234459.90000009537,234459.70000004768,232883.725,233099.79999995232,232900.516,234267.244,1,40,32,
sequence,flow.Sequence,6_31,2023-11-30T15:33:30.419Z,,,,,,,,,,,1559.1840000476805,completion,,,,,,,low,low,,,,,,,true,,,,,false,234460.10000014305,234459.70000004768,232883.725,233099.79999995232,232900.516,234267.244,1,40,,
trial,html.Screen,6_32_0,2023-11-30T15:33:31.810Z,,,,1,-1.0849202097813322,-1.0851127310415287,,,true,hh,1583.9560000476777,response,1.2804054832904397,1.2,-1.2,1.171271535505083,1.2,-1.2,high,high,,ISIC_0010289.JPG,,ISIC_7889838.JPG,,25,true,0.14,hh,keypress(i),0,false,235851.29999995232,235851.20000004768,234250.569,234460.20000004768,234267.244,235650.379,1,40,33,
sequence,flow.Sequence,6_32,2023-11-30T15:33:31.810Z,,,,,,,,,,,1583.9560000476777,completion,,,,,,,high,high,,,,,,,true,,,,,false,235851.40000009537,235851.20000004768,234250.569,234460.10000014305,234267.244,235650.379,1,40,,
trial,html.Screen,6_33_0,2023-11-30T15:33:33.154Z,,,,1,-1.1048559518249943,-1.2252457981338687,,,true,hh,1544.8210000476975,response,1.2246024683501224,1.2,-1.2,1.2904526351590244,1.2,-1.2,high,high,,ISIC_0060817.JPG,,ISIC_4730066.JPG,,25,true,0.14,hh,keypress(i),0,false,237195.40000009537,237195.20000004768,235633.687,235851.5,235650.379,237000.37,1,40,34,
sequence,flow.Sequence,6_33,2023-11-30T15:33:33.154Z,,,,,,,,,,,1544.8210000476975,completion,,,,,,,high,high,,,,,,,true,,,,,false,237195.5,237195.20000004768,235633.687,235851.5,235650.379,237000.37,1,40,,
trial,html.Screen,6_34_0,2023-11-30T15:33:34.435Z,,,,1,0.8830264383952469,-0.8635562538060516,,,true,lh,1474.929999952321,response,-1.168911077628813,1.2,-1.2,1.2181838235193114,1.2,-1.2,low,high,,ISIC_0032258.JPG,,ISIC_7358691.JPG,,27,true,0.40000000000000024,lh,keypress(e),0,false,238475.29999995232,238475.29999995232,236983.709,237195.5,237000.37,238283.704,1,40,35,
sequence,flow.Sequence,6_34,2023-11-30T15:33:34.435Z,,,,,,,,,,,1474.929999952321,completion,,,,,,,low,high,,,,,,,true,,,,,false,238475.60000014305,238475.29999995232,236983.709,237195.5,237000.37,238283.704,1,40,,
trial,html.Screen,6_35_0,2023-11-30T15:33:35.923Z,,,,1,0.989300717252516,-0.7908280206937478,,,true,lh,1679.6960000953695,response,-1.168911077628813,1.2,-1.2,1.2181838235193114,1.2,-1.2,low,high,,ISIC_6416533.JPG,,ISIC_7358691.JPG,,40,true,0.4500000000000003,lh,keypress(e),0,false,239963.5,239963.40000009537,238267.05,238475.79999995232,238283.704,239767.179,1,40,36,
sequence,flow.Sequence,6_35,2023-11-30T15:33:35.923Z,,,,,,,,,,,1679.6960000953695,completion,,,,,,,low,high,,,,,,,true,,,,,false,239963.70000004768,239963.40000009537,238267.05,238475.70000004768,238283.704,239767.179,1,40,,
trial,html.Screen,6_36_0,2023-11-30T15:33:37.283Z,,,,1,1.1989130276493527,1.2666195460149832,,,true,ll,1556.4210001430474,response,-0.821358930964015,1.2,-1.2,-1.2142897533079478,1.2,-1.2,low,low,,ISIC_0031705.JPG,,ISIC_0025277.JPG,,359,true,0.4500000000000003,ll,keypress(f),0,false,241323.70000004768,241323.60000014305,239750.373,239963.70000004768,239767.179,241133.86,1,40,37,
sequence,flow.Sequence,6_36,2023-11-30T15:33:37.283Z,,,,,,,,,,,1556.4210001430474,completion,,,,,,,low,low,,,,,,,true,,,,,false,241323.90000009537,241323.60000014305,239750.373,239963.70000004768,239767.179,241133.86,1,40,,
trial,html.Screen,6_37_0,2023-11-30T15:33:38.619Z,,,,1,1.2100527057059796,1.2159112471537263,,,true,ll,1525.7400001430651,response,-1.0915173513546716,1.2,-1.2,-1.266840220031473,1.2,-1.2,low,low,,ISIC_0008055.JPG,,ISIC_8241457.JPG,,40,true,0.14,ll,keypress(f),0,false,242659.79999995232,242659.60000014305,241117.164,241324,241133.86,242467.027,1,40,38,
sequence,flow.Sequence,6_37,2023-11-30T15:33:38.619Z,,,,,,,,,,,1525.7400001430651,completion,,,,,,,low,low,,,,,,,true,,,,,false,242659.79999995232,242659.60000014305,241117.164,241323.90000009537,241133.86,242467.027,1,40,,
trial,html.Screen,6_38_0,2023-11-30T15:33:39.851Z,,,,1,0.8472024037189965,-0.986370061404882,,,true,lh,1424.3730000953656,response,-1.2646773654288392,1.2,-1.2,0.952963803634235,1.2,-1.2,low,high,,ISIC_0054355.JPG,,ISIC_1996356.JPG,,27,true,0.40000000000000024,lh,keypress(e),0,false,243891.5,243891.40000009537,242450.499,242659.90000009537,242467.027,243700.647,1,40,39,
sequence,flow.Sequence,6_38,2023-11-30T15:33:39.851Z,,,,,,,,,,,1424.3730000953656,completion,,,,,,,low,high,,,,,,,true,,,,,false,243891.70000004768,243891.40000009537,242450.499,242659.79999995232,242467.027,243700.647,1,40,,
trial,html.Screen,6_39_0,2023-11-30T15:33:41.027Z,,,,1,-1.1392972253022884,-1.208510423375335,,,true,hh,1367.152999952319,response,1.209147983047992,1.2,-1.2,1.418422897056094,1.2,-1.2,high,high,,ISIC_0046526.JPG,,ISIC_0002026.JPG,,265,true,0.4500000000000003,hh,keypress(i),0,false,245068,245067.79999995232,243683.837,243891.70000004768,243700.647,244867.084,1,40,40,
sequence,flow.Sequence,6_39,2023-11-30T15:33:41.027Z,,,,,,,,,,,1367.152999952319,completion,,,,,,,high,high,,,,,,,true,,,,,false,245068.20000004768,245067.79999995232,243683.837,243891.70000004768,243700.647,244867.084,1,40,,
practice_loop,flow.Loop,6,2023-11-30T15:33:41.028Z,,,,,,,,,,,93617.36399995233,completion,,,,,,,,,,,,,,,true,,,,,false,245068.29999995232,245067.79999995232,151433.583,151635.10000014305,151450.436,244867.084,1,40,,
stair_instructions,html.Screen,7,2023-11-30T15:33:45.227Z,,,,,,,,,,,4400.016000143049,response,,,,,,,,,,,,,,,,,continue,click button,,,249267.60000014305,249267.10000014305,244850.503,245068.40000009537,244867.084,249067.045,,,,
trial,html.Screen,8_0_0,2023-11-30T15:34:01.078Z,,,,2,0.0286056110007553,0.036125199756515,,0.04,,,15850.043999999965,timeout,-0.9617893983965208,1.2,-1.2,0.9453006131304652,1.2,-1.2,low,high,,ISIC_6535558.JPG,,ISIC_4229473.JPG,28,27,false,0.40000000000000024,,,0,true,265118.2999999523,265118.2000000477,249050.486,249267.70000004768,249067.045,264917.089,1,40,1,
sequence,flow.Sequence,8_0,2023-11-30T15:34:01.078Z,,,,,,,,,,,16051.155000047671,completion,,,,,,,low,high,,,,,,,false,,,,,true,265118.40000009537,265118.2000000477,249050.486,249267.70000004768,249067.045,264917.089,1,40,,
trial,html.Screen,8_1_0,2023-11-30T15:34:06.907Z,,,,2,-0.0074667911845194,0.018500200317654,,0.04,true,hh,6030.111000047706,response,1.077278111180185,1.2,-1.2,1.1530533996184025,1.2,-1.2,high,high,,ISIC_0058723.JPG,,ISIC_9525136.JPG,28,25,false,0.14,hh,keypress(i),0,true,270947.2999999523,270947.2000000477,264900.503,265118.5,264917.089,270767.322,1,40,2,
sequence,flow.Sequence,8_1,2023-11-30T15:34:06.907Z,,,,,,,,,,,6030.111000047706,completion,,,,,,,high,high,,,,,,,false,,,,,true,270947.40000009537,270947.2000000477,264900.503,265118.40000009537,264917.089,270767.322,1,40,,
trial,html.Screen,8_2_0,2023-11-30T15:34:12.542Z,,,,2,0.0367744112927588,0.0324865661712824,,0.04,true,lh,5814.977999952331,response,-0.8500530224490773,1.15,-1.15,1.0893360711742854,1.15,-1.15,low,high,,ISIC_4523565.JPG,,ISIC_2998367.JPG,28,26,false,0.3500000000000002,lh,keypress(e),0,true,276582.5,276582.2999999523,270750.437,270947.5,270767.322,276383.738,1,40,3,
sequence,flow.Sequence,8_2,2023-11-30T15:34:12.542Z,,,,,,,,,,,5814.977999952331,completion,,,,,,,low,high,,,,,,,false,,,,,true,276582.60000014305,276582.2999999523,270750.437,270947.5,270767.322,276383.738,1,40,,
trial,html.Screen,8_3_0,2023-11-30T15:34:22.916Z,,,,2,-0.0198696495649504,0.0387952353063878,,0.04,false,lh,10572.761999999988,response,-1.423867498658875,1.15,-1.15,0.7901771595160324,1.0999999999999999,-1.15,low,high,,ISIC_6735970.JPG,,ISIC_3136228.JPG,28,26,false,0.3200000000000002,hl,keypress(j),0,true,286956.7000000477,286956.5,276367.084,276582.60000014305,276383.738,286767.13,1,40,4,
sequence,flow.Sequence,8_3,2023-11-30T15:34:22.916Z,,,,,,,,,,,10572.761999999988,completion,,,,,,,low,high,,,,,,,false,,,,,true,286957,286956.5,276367.084,276582.60000014305,276383.738,286767.13,1,40,,
trial,html.Screen,8_4_0,2023-11-30T15:34:30.323Z,,,,2,0.0308384937406319,-0.0038396364323947,,0.04,false,hl,7596.9700001430465,response,1.058275612142778,1.15,-1.15,-0.7824898568540655,1.15,-1.15,high,low,,ISIC_0029825.JPG,,ISIC_4906385.JPG,28,26,false,0.40000000000000024,ll,keypress(f),0,true,294364.2000000477,294364.10000014305,286750.18,286957.2000000477,286767.13,294167.1,1,40,5,
sequence,flow.Sequence,8_4,2023-11-30T15:34:30.324Z,,,,,,,,,,,7596.9700001430465,completion,,,,,,,high,low,,,,,,,false,,,,,true,294364.5,294364.10000014305,286750.18,286957.2000000477,286767.13,294167.1,1,40,,
trial,html.Screen,8_5_0,2023-11-30T15:34:37.851Z,,,,2,0.0308384937406319,-0.0038396364323947,,0.04,false,lh,7724.400000000023,response,-0.8443403196524287,1.15,-1.15,0.8858525429102605,1.15,-1.15,low,high,,ISIC_0029825.JPG,,ISIC_8777813.JPG,28,26,false,0.3500000000000002,hh,keypress(i),0,true,301891.60000014305,301891.5,294150.228,294364.60000014305,294167.1,301700.463,1,40,6,
sequence,flow.Sequence,8_5,2023-11-30T15:34:37.851Z,,,,,,,,,,,7724.400000000023,completion,,,,,,,low,high,,,,,,,false,,,,,true,301891.7000000477,301891.5,294150.228,294364.60000014305,294167.1,301700.463,1,40,,
trial,html.Screen,8_6_0,2023-11-30T15:34:45.012Z,,,,2,0.0009714874637896,-0.0174815595031679,,0.04,false,hh,7351.537000000011,response,1.2600330864275875,1.15,-1.15,1.0958628838888655,1.15,-1.15,high,high,,ISIC_9848743.JPG,,ISIC_0026996.JPG,28,27,false,0.14,hl,keypress(j),0,true,309052.10000014305,309052,301683.552,301891.7999999523,301700.463,308850.481,1,40,7,
sequence,flow.Sequence,8_6,2023-11-30T15:34:45.012Z,,,,,,,,,,,7351.537000000011,completion,,,,,,,high,high,,,,,,,false,,,,,true,309052.5,309052,301683.552,301891.7999999523,301700.463,308850.481,1,40,,
trial,html.Screen,8_7_0,2023-11-30T15:34:47.500Z,,,,2,-0.0088741920055285,-0.0058246074740588,,0.04,true,hh,2690.1190001430223,response,1.0777929856705222,1.15,-1.15,1.0139833925057518,1.15,-1.15,high,high,,ISIC_4136663.JPG,,ISIC_6171084.JPG,28,27,false,0.14,hh,keypress(i),0,true,311540.7999999523,311540.60000014305,308833.57,309052.7000000477,308850.481,311350.466,1,40,8,
sequence,flow.Sequence,8_7,2023-11-30T15:34:47.501Z,,,,,,,,,,,2690.1190001430223,completion,,,,,,,high,high,,,,,,,false,,,,,true,311541.2000000477,311540.60000014305,308833.57,309052.60000014305,308850.481,311350.466,1,40,,
trial,html.Screen,8_8_0,2023-11-30T15:34:52.739Z,,,,2,-0.0388181790775959,0.0049623405709465,,0.04,false,lh,5429.134000143036,response,-1.0153439398566937,0.9958881890881368,-1.15,0.93001438372942,1.15,-1.15,low,high,,ISIC_0061880.JPG,,ISIC_8211214.JPG,28,26,false,0.3500000000000002,ll,keypress(f),0,true,316779.7000000477,316779.60000014305,311333.801,311541.2999999523,311350.466,316583.821,1,40,9,
sequence,flow.Sequence,8_8,2023-11-30T15:34:52.739Z,,,,,,,,,,,5429.134000143036,completion,,,,,,,low,high,,,,,,,false,,,,,true,316779.90000009537,316779.60000014305,311333.801,311541.2999999523,311350.466,316583.821,1,40,,
trial,html.Screen,8_9_0,2023-11-30T15:34:59.348Z,,,,2,-0.0198696495649504,0.0387952353063878,,0.04,true,hl,6804.079000095371,response,0.8034318937720549,0.9958881890881368,-1.15,-1.0024917298189338,1.15,-1.15,high,low,,ISIC_6735970.JPG,,ISIC_0032766.JPG,28,25,false,0.3200000000000002,hl,keypress(j),0,true,323387.90000009537,323387.90000009537,316566.966,316779.90000009537,316583.821,323183.807,1,40,10,
sequence,flow.Sequence,8_9,2023-11-30T15:34:59.348Z,,,,,,,,,,,6804.079000095371,completion,,,,,,,high,low,,,,,,,false,,,,,true,323388.10000014305,323387.90000009537,316566.966,316779.90000009537,316583.821,323183.807,1,40,,
trial,html.Screen,8_10_0,2023-11-30T15:35:02.755Z,,,,2,-0.0199950873045219,-0.0172506388509166,,0.04,true,hl,3611.9929999523447,response,1.0329549150636406,0.9958881890881368,-1.15,-1.01584100839286,1.15,-1.0999999999999999,high,low,,ISIC_0029906.JPG,,ISIC_0054670.JPG,28,29,false,0.31000000000000016,hl,keypress(j),0,true,326795.90000009537,326795.7999999523,323167.096,323388.2000000477,323183.807,326600.68,1,40,11,
sequence,flow.Sequence,8_10,2023-11-30T15:35:02.756Z,,,,,,,,,,,3611.9929999523447,completion,,,,,,,high,low,,,,,,,false,,,,,true,326796,326795.7999999523,323167.096,323388.2000000477,323183.807,326600.68,1,40,,
trial,html.Screen,8_11_0,2023-11-30T15:35:05.979Z,,,,2,0.0076984477620101,0.0069458408496562,,0.04,true,ll,3418.920000143058,response,-1.071312313440387,0.9458881890881368,-1.15,-1.0935391476164529,1.15,-1.0999999999999999,low,low,,ISIC_0000434.JPG,,ISIC_0063680.JPG,28,27,false,0.1,ll,keypress(f),0,true,330019.7000000477,330019.60000014305,326583.858,326796.10000014305,326600.68,329817.169,1,40,12,
sequence,flow.Sequence,8_11,2023-11-30T15:35:05.979Z,,,,,,,,,,,3418.920000143058,completion,,,,,,,low,low,,,,,,,false,,,,,true,330019.90000009537,330019.60000014305,326583.858,326796.10000014305,326600.68,329817.169,1,40,,
trial,html.Screen,8_12_0,2023-11-30T15:35:14.300Z,,,,2,0.0286056110007553,0.036125199756515,,0.04,true,ll,8522.831000000006,response,-1.0918237468930412,0.9458881890881368,-1.0046900780046564,-1.0199940959248062,1.15,-1.0046900780046564,low,low,,ISIC_6535558.JPG,,ISIC_0064120.JPG,28,38,false,0.1,ll,keypress(f),0,true,338340.10000014305,338340,329800.452,330019.90000009537,329817.169,338150.581,1,40,13,
sequence,flow.Sequence,8_12,2023-11-30T15:35:14.300Z,,,,,,,,,,,8522.831000000006,completion,,,,,,,low,low,,,,,,,false,,,,,true,338340.2999999523,338340,329800.452,330019.90000009537,329817.169,338150.581,1,40,,
trial,html.Screen,8_13_0,2023-11-30T15:35:19.740Z,,,,2,0.0258224118104549,-0.0029364553353019,,0.04,false,hh,5629.319000095362,response,0.9786113496628154,0.9458881890881368,-1.0046900780046564,1.040122402473425,1.15,-1.0046900780046564,high,high,,ISIC_8325226.JPG,,ISIC_8195528.JPG,28,29,false,0.12,lh,keypress(e),0,true,343780.10000014305,343779.90000009537,338133.751,338340.40000009537,338150.581,343583.884,1,40,14,
sequence,flow.Sequence,8_13,2023-11-30T15:35:19.740Z,,,,,,,,,,,5629.319000095362,completion,,,,,,,high,high,,,,,,,false,,,,,true,343780.2999999523,343779.90000009537,338133.751,338340.40000009537,338150.581,343583.884,1,40,,
trial,html.Screen,8_14_0,2023-11-30T15:35:25.747Z,,,,2,-0.0199950873045219,-0.0172506388509166,,0.04,false,hl,6203.915999952296,response,1.2362557973341337,0.9958881890881368,-1.0046900780046564,-1.2548266183352603,1.15,-1.0046900780046564,high,low,,ISIC_0029906.JPG,,ISIC_0033886.JPG,28,26,false,0.27000000000000013,hh,keypress(i),0,true,349787.90000009537,349787.7999999523,343566.996,343780.40000009537,343583.884,349583.862,1,40,15,
sequence,flow.Sequence,8_14,2023-11-30T15:35:25.748Z,,,,,,,,,,,6203.915999952296,completion,,,,,,,high,low,,,,,,,false,,,,,true,349788,349787.7999999523,343566.996,343780.40000009537,343583.884,349583.862,1,40,,
trial,html.Screen,8_15_0,2023-11-30T15:35:28.771Z,,,,2,-0.0241900387072296,0.0339955304424736,,0.04,true,ll,3227.5380000953446,response,-1.0333845898785206,0.9958881890881368,-1.0046900780046564,-0.998838774713298,1.15,-1.0546900780046564,low,low,,ISIC_0010789.JPG,,ISIC_0010486.JPG,28,47,false,0.1,ll,keypress(f),0,true,352811.60000014305,352811.40000009537,349567.005,349788,349583.862,352617.17,1,40,16,
sequence,flow.Sequence,8_15,2023-11-30T15:35:28.771Z,,,,,,,,,,,3227.5380000953446,completion,,,,,,,low,low,,,,,,,false,,,,,true,352811.7999999523,352811.40000009537,349567.005,349788,349583.862,352617.17,1,40,,
trial,html.Screen,8_16_0,2023-11-30T15:35:36.309Z,,,,2,0.0257631352671967,0.0202837002774028,,0.04,true,lh,7731.430000143067,response,-0.7714570894008278,0.9958881890881368,-0.9661116822959093,0.9113656554657036,1.15,-1.0546900780046564,low,high,,ISIC_0032797.JPG,,ISIC_4529092.JPG,28,27,false,0.29000000000000015,lh,keypress(e),0,true,360348.7000000477,360348.60000014305,352600.506,352811.90000009537,352617.17,360150.516,1,40,17,
sequence,flow.Sequence,8_16,2023-11-30T15:35:36.309Z,,,,,,,,,,,7731.430000143067,completion,,,,,,,low,high,,,,,,,false,,,,,true,360349.10000014305,360348.60000014305,352600.506,352811.90000009537,352617.17,360150.516,1,40,,
trial,html.Screen,8_17_0,2023-11-30T15:35:38.715Z,,,,2,-0.039520186367207,-0.0377961575607372,,0.04,false,hh,2604.9839999999967,response,1.0943527860463682,0.9958881890881368,-0.9661116822959093,1.124481746658104,1.0999999999999999,-1.0546900780046564,high,high,,ISIC_6356149.JPG,,ISIC_0438136.JPG,28,28,false,0.11,lh,keypress(e),0,true,362755.60000014305,362755.5,360133.593,360349.2999999523,360150.516,362568.384,1,40,18,
sequence,flow.Sequence,8_17,2023-11-30T15:35:38.716Z,,,,,,,,,,,2604.9839999999967,completion,,,,,,,high,high,,,,,,,false,,,,,true,362755.7000000477,362755.5,360133.593,360349.2000000477,360150.516,362568.384,1,40,,
trial,html.Screen,8_18_0,2023-11-30T15:35:45.517Z,,,,2,0.0367706518941078,-0.0161069838272154,,0.04,false,hh,6988.216000143031,response,1.0122348575830964,1.0458881890881369,-0.9661116822959093,1.007833368115011,1.0999999999999999,-1.0546900780046564,high,high,,ISIC_0033419.JPG,,ISIC_8145260.JPG,28,25,false,0.11,hl,keypress(j),0,true,369556.7999999523,369556.60000014305,362533.842,362755.7999999523,362568.384,369367.217,1,40,19,
sequence,flow.Sequence,8_18,2023-11-30T15:35:45.517Z,,,,,,,,,,,6988.216000143031,completion,,,,,,,high,high,,,,,,,false,,,,,true,369557.2000000477,369556.60000014305,362533.842,362755.7999999523,362568.384,369367.217,1,40,,
trial,html.Screen,8_19_0,2023-11-30T15:35:55.156Z,,,,2,0.0119001144851157,-0.0063430114540141,,0.04,false,hh,9828.98300004768,response,0.9263434229051783,1.0458881890881369,-0.9661116822959093,1.192320039362258,1.15,-1.0546900780046564,high,high,,ISIC_0003822.JPG,,ISIC_1091626.JPG,28,25,false,0.13,hl,keypress(j),0,true,379196.40000009537,379196.2000000477,369350.442,369557.40000009537,369367.217,379000.598,1,40,20,
sequence,flow.Sequence,8_19,2023-11-30T15:35:55.157Z,,,,,,,,,,,9828.98300004768,completion,,,,,,,high,high,,,,,,,false,,,,,true,379196.7000000477,379196.2000000477,369350.442,369557.40000009537,369367.217,379000.598,1,40,,
trial,html.Screen,8_20_0,2023-11-30T15:36:02.235Z,,,,2,-0.0388181790775959,0.0049623405709465,,0.04,true,ll,7274.802000095369,response,-1.061329542878903,0.9192891402441373,-0.9661116822959093,-1.0605755702127622,1.15,-1.0546900780046564,low,low,,ISIC_0061880.JPG,,ISIC_0065622.JPG,28,40,false,0.1,ll,keypress(f),0,true,386275.5,386275.40000009537,378983.565,379196.90000009537,379000.598,386083.909,1,40,21,
sequence,flow.Sequence,8_20,2023-11-30T15:36:02.236Z,,,,,,,,,,,7274.802000095369,completion,,,,,,,low,low,,,,,,,false,,,,,true,386275.60000014305,386275.40000009537,378983.565,379196.90000009537,379000.598,386083.909,1,40,,
trial,html.Screen,8_21_0,2023-11-30T15:36:06.396Z,,,,2,0.0076984477620101,0.0069458408496562,,0.04,false,ll,4352.491000095382,response,-0.8179322126045343,0.9192891402441373,-0.9161116822959092,-0.9445915945560848,1.15,-1.0046900780046564,low,low,,ISIC_0000434.JPG,,ISIC_0056364.JPG,28,36,false,0.1,hl,keypress(j),0,true,390436.5,390436.40000009537,386067.09,386275.60000014305,386083.909,390233.953,1,40,22,
sequence,flow.Sequence,8_21,2023-11-30T15:36:06.397Z,,,,,,,,,,,4352.491000095382,completion,,,,,,,low,low,,,,,,,false,,,,,true,390436.7999999523,390436.40000009537,386067.09,386275.60000014305,386083.909,390233.953,1,40,,
trial,html.Screen,8_22_0,2023-11-30T15:36:10.243Z,,,,2,-0.0088741920055285,-0.0058246074740588,,0.04,false,lh,4049.447000095388,response,-1.2020012168275056,0.9192891402441373,-0.9661116822959093,0.923753102263735,1.15,-1.0046900780046564,low,high,,ISIC_4136663.JPG,,ISIC_0000022.JPG,28,27,false,0.29000000000000015,hh,keypress(i),0,true,394283.60000014305,394283.40000009537,390217.082,390436.90000009537,390233.953,394083.915,1,40,23,
sequence,flow.Sequence,8_22,2023-11-30T15:36:10.244Z,,,,,,,,,,,4049.447000095388,completion,,,,,,,low,high,,,,,,,false,,,,,true,394283.7000000477,394283.40000009537,390217.082,390436.90000009537,390233.953,394083.915,1,40,,
trial,html.Screen,8_23_0,2023-11-30T15:36:16.932Z,,,,2,0.0118382036798625,0.0300588245877227,,0.04,false,lh,6887.585000000021,response,-0.7714570894008278,0.9192891402441373,-1.0161116822959093,0.9113656554657036,1.15,-1.0046900780046564,low,high,,ISIC_4748605.JPG,,ISIC_4529092.JPG,28,25,false,0.30000000000000016,hl,keypress(j),0,true,400971.60000014305,400971.5,394067.208,394283.7999999523,394083.915,400767.267,1,40,24,
sequence,flow.Sequence,8_23,2023-11-30T15:36:16.932Z,,,,,,,,,,,6887.585000000021,completion,,,,,,,low,high,,,,,,,false,,,,,true,400971.7999999523,400971.5,394067.208,394283.7000000477,394083.915,400767.267,1,40,,
trial,html.Screen,8_24_0,2023-11-30T15:36:20.548Z,,,,2,-0.0109416414475118,-0.005246498750811,,0.04,true,ll,3820.5329999523237,response,-1.1325407648058876,0.9192891402441373,-1.0661116822959094,-0.930000842576531,1.15,-1.0046900780046564,low,low,,ISIC_0064279.JPG,,ISIC_0062364.JPG,28,37,false,0.1,ll,keypress(f),0,true,404588,404587.7999999523,400750.484,400971.7999999523,400767.267,404383.931,1,40,25,
sequence,flow.Sequence,8_24,2023-11-30T15:36:20.548Z,,,,,,,,,,,3820.5329999523237,completion,,,,,,,low,low,,,,,,,false,,,,,true,404588.2000000477,404587.7999999523,400750.484,400971.7999999523,400767.267,404383.931,1,40,,
trial,html.Screen,8_25_0,2023-11-30T15:36:28.964Z,,,,2,0.0118382036798625,0.0300588245877227,,0.04,false,hh,8619.769000047701,response,0.9691635021928308,0.9192891402441373,-1.0661116822959094,1.0761216763182415,1.15,-0.9812708036912092,high,high,,ISIC_4748605.JPG,,ISIC_8169564.JPG,28,26,false,0.11,lh,keypress(e),0,true,413003.90000009537,413003.7000000477,404367.411,404588.2999999523,404383.931,412800.622,1,40,26,
sequence,flow.Sequence,8_25,2023-11-30T15:36:28.964Z,,,,,,,,,,,8619.769000047701,completion,,,,,,,high,high,,,,,,,false,,,,,true,413004,413003.7000000477,404367.411,404588.2999999523,404383.931,412800.622,1,40,,
trial,html.Screen,8_26_0,2023-11-30T15:36:35.164Z,,,,2,0.0257631352671967,0.0202837002774028,,0.04,false,hl,6403.478000143077,response,0.84290786638064,0.9692891402441374,-1.0661116822959094,-0.7332521189371746,1.15,-0.9812708036912092,high,low,,ISIC_0032797.JPG,,ISIC_4708642.JPG,28,27,false,0.2500000000000001,hh,keypress(i),0,true,419204.2999999523,419204.10000014305,412783.659,413004.10000014305,412800.622,419000.613,1,40,27,
sequence,flow.Sequence,8_26,2023-11-30T15:36:35.165Z,,,,,,,,,,,6403.478000143077,completion,,,,,,,high,low,,,,,,,false,,,,,true,419204.60000014305,419204.10000014305,412783.659,413004,412800.622,419000.613,1,40,,
trial,html.Screen,8_27_0,2023-11-30T15:36:38.524Z,,,,2,0,-0.0102871556606504,,0.04,true,ll,3563.2870000953553,response,-1.048482877784125,0.9692891402441374,-1.0661116822959094,-1.0716857765902368,1.15,-1.0312708036912093,low,low,,ISIC_1805163.JPG,,ISIC_0063961.JPG,28,38,false,0.1,ll,keypress(f),0,true,422564,422563.90000009537,418983.741,419204.60000014305,419000.613,422367.271,1,40,28,
sequence,flow.Sequence,8_27,2023-11-30T15:36:38.525Z,,,,,,,,,,,3563.2870000953553,completion,,,,,,,low,low,,,,,,,false,,,,,true,422564.2999999523,422563.90000009537,418983.741,419204.60000014305,419000.613,422367.271,1,40,,
trial,html.Screen,8_28_0,2023-11-30T15:36:44.469Z,,,,2,-0.0088741920055285,-0.0058246074740588,,0.04,false,lh,6141.329000143043,response,-0.8544507134472948,0.9692891402441374,-1.0100843271871809,0.9244388608707323,1.15,-1.0312708036912093,low,high,,ISIC_4136663.JPG,,ISIC_3565564.JPG,28,25,false,0.30000000000000016,ll,keypress(f),0,true,428508.7000000477,428508.60000014305,422350.569,422564.5,422367.271,428317.344,1,40,29,
sequence,flow.Sequence,8_28,2023-11-30T15:36:44.469Z,,,,,,,,,,,6141.329000143043,completion,,,,,,,low,high,,,,,,,false,,,,,true,428509.10000014305,428508.60000014305,422350.569,422564.40000009537,422367.271,428317.344,1,40,,
trial,html.Screen,8_29_0,2023-11-30T15:36:48.716Z,,,,2,0.0367706518941078,-0.0161069838272154,,0.04,false,lh,4438.4559999523335,response,-0.7271544837339796,0.9692891402441374,-1.0100843271871809,0.9127368834814228,1.15,-1.0312708036912093,low,high,,ISIC_0033419.JPG,,ISIC_4129321.JPG,28,25,false,0.30000000000000016,hl,keypress(j),0,true,432755.90000009537,432755.7999999523,428300.452,428509.2999999523,428317.344,432567.954,1,40,30,
sequence,flow.Sequence,8_29,2023-11-30T15:36:48.716Z,,,,,,,,,,,4438.4559999523335,completion,,,,,,,low,high,,,,,,,false,,,,,true,432756.10000014305,432755.7999999523,428300.452,428509.2999999523,428317.344,432567.954,1,40,,
trial,html.Screen,8_30_0,2023-11-30T15:36:51.452Z,,,,2,0.0367744112927588,0.0324865661712824,,0.04,false,hh,2923.7460000476567,response,0.9832288967264424,0.9692891402441374,-1.060084327187181,1.0898586098590013,1.15,-1.0312708036912093,high,high,,ISIC_4523565.JPG,,ISIC_2724529.JPG,28,26,false,0.12,hl,keypress(j),0,true,435491.90000009537,435491.7000000477,432533.812,432756.2000000477,432567.954,435300.723,1,40,31,
sequence,flow.Sequence,8_30,2023-11-30T15:36:51.452Z,,,,,,,,,,,2923.7460000476567,completion,,,,,,,high,high,,,,,,,false,,,,,true,435492,435491.7000000477,432533.812,432756.2000000477,432567.954,435300.723,1,40,,
trial,html.Screen,8_31_0,2023-11-30T15:36:59.469Z,,,,2,-0.001445457736793,-0.0165307427449982,,0.04,false,hl,8207.877000143053,response,0.6928402368686908,0.9192891402441373,-1.060084327187181,-0.8182069330979422,1.15,-1.0312708036912093,high,low,,ISIC_0027350.JPG,,ISIC_0046615.JPG,28,28,false,0.2500000000000001,lh,keypress(e),0,true,443508.7999999523,443508.60000014305,435283.96,435492.10000014305,435300.723,443317.509,1,40,32,
sequence,flow.Sequence,8_31,2023-11-30T15:36:59.469Z,,,,,,,,,,,8207.877000143053,completion,,,,,,,high,low,,,,,,,false,,,,,true,443509.10000014305,443508.60000014305,435283.96,435492.10000014305,435300.723,443317.509,1,40,,
trial,html.Screen,8_32_0,2023-11-30T15:37:03.837Z,,,,2,0.0118382036798625,0.0300588245877227,,0.04,false,ll,4558.790999952296,response,-0.9836672814341636,0.9692891402441374,-1.060084327187181,-1.0629122718286683,1.15,-1.0812708036912093,low,low,,ISIC_4748605.JPG,,ISIC_0062161.JPG,28,42,false,0.1,hl,keypress(j),0,true,447876.5,447876.2999999523,443300.38,443509.2999999523,443317.509,447684.015,1,40,33,
sequence,flow.Sequence,8_32,2023-11-30T15:37:03.837Z,,,,,,,,,,,4558.790999952296,completion,,,,,,,low,low,,,,,,,false,,,,,true,447876.90000009537,447876.2999999523,443300.38,443509.2999999523,443317.509,447684.015,1,40,,
trial,html.Screen,8_33_0,2023-11-30T15:37:07.580Z,,,,2,0.0009714874637896,-0.0174815595031679,,0.04,false,hl,3935.585000143037,response,0.7882758084023446,0.9692891402441374,-1.110084327187181,-0.8296405881378283,1.15,-1.0812708036912093,high,low,,ISIC_9848743.JPG,,ISIC_0065882.JPG,28,27,false,0.29000000000000015,hh,keypress(i),0,true,451619.7999999523,451619.60000014305,447667.211,447877,447684.015,451417.319,1,40,34,
sequence,flow.Sequence,8_33,2023-11-30T15:37:07.580Z,,,,,,,,,,,3935.585000143037,completion,,,,,,,high,low,,,,,,,false,,,,,true,451619.90000009537,451619.60000014305,447667.211,447876.90000009537,447684.015,451417.319,1,40,,
trial,html.Screen,8_34_0,2023-11-30T15:37:10.756Z,,,,2,0.0367706518941078,-0.0161069838272154,,0.04,false,ll,3378.6809999999823,response,-1.0581711446393522,0.9692891402441374,-1.110084327187181,-1.1376053597134304,1.15,-1.1312708036912094,low,low,,ISIC_0033419.JPG,,ISIC_0014987.JPG,28,32,false,0.1,hh,keypress(i),0,true,454796.2000000477,454796,451400.619,451619.90000009537,451417.319,454600.668,1,40,35,
sequence,flow.Sequence,8_34,2023-11-30T15:37:10.757Z,,,,,,,,,,,3378.6809999999823,completion,,,,,,,low,low,,,,,,,false,,,,,true,454796.5,454796,451400.619,451619.90000009537,451417.319,454600.668,1,40,,
trial,html.Screen,8_35_0,2023-11-30T15:37:12.996Z,,,,2,-0.0388334549081915,0.0303399972963369,,0.04,true,hh,2434.7320000953623,response,1.0659165756604234,0.9692891402441374,-1.160084327187181,1.0867497316848906,1.15,-1.1812708036912094,high,high,,ISIC_4961708.JPG,,ISIC_5807608.JPG,28,26,false,0.12,hh,keypress(i),0,true,457035.5,457035.40000009537,454584.038,454796.60000014305,454600.668,456834.014,1,40,36,
sequence,flow.Sequence,8_35,2023-11-30T15:37:12.996Z,,,,,,,,,,,2434.7320000953623,completion,,,,,,,high,high,,,,,,,false,,,,,true,457035.7000000477,457035.40000009537,454584.038,454796.60000014305,454600.668,456834.014,1,40,,
trial,html.Screen,8_36_0,2023-11-30T15:37:17.196Z,,,,2,0.0257631352671967,0.0202837002774028,,0.04,false,hl,4402.0860001430265,response,0.6761556401281956,1.026333153672657,-1.160084327187181,-0.9655386457143784,1.15,-1.1812708036912094,high,low,,ISIC_0032797.JPG,,ISIC_8268025.JPG,28,29,false,0.3600000000000002,hh,keypress(i),0,true,461236.2999999523,461236.10000014305,456817.478,457035.7000000477,456834.014,461050.694,1,40,37,
sequence,flow.Sequence,8_36,2023-11-30T15:37:17.197Z,,,,,,,,,,,4402.0860001430265,completion,,,,,,,high,low,,,,,,,false,,,,,true,461236.60000014305,461236.10000014305,456817.478,457035.7000000477,456834.014,461050.694,1,40,,
trial,html.Screen,8_37_0,2023-11-30T15:37:21.940Z,,,,2,0.0286056110007553,0.036125199756515,,0.04,true,hl,4929.305999999982,response,0.8828738626295417,1.026333153672657,-1.160084327187181,-0.8288177599439582,1.15,-1.1812708036912094,high,low,,ISIC_6535558.JPG,,ISIC_0056041.JPG,28,29,false,0.3600000000000002,hl,keypress(j),0,true,465980.2000000477,465980,461017.221,461236.7000000477,461050.694,465784.055,1,40,38,
sequence,flow.Sequence,8_37,2023-11-30T15:37:21.941Z,,,,,,,,,,,4929.305999999982,completion,,,,,,,high,low,,,,,,,false,,,,,true,465980.40000009537,465980,461017.221,461236.60000014305,461050.694,465784.055,1,40,,
trial,html.Screen,8_38_0,2023-11-30T15:37:31.884Z,,,,2,-0.0388181790775959,0.0049623405709465,,0.04,true,hl,10139.744999952323,response,0.9754077946987664,0.9763331536726569,-1.160084327187181,-1.1821868813141057,1.15,-1.1812708036912094,high,low,,ISIC_0061880.JPG,,ISIC_0024317.JPG,28,27,false,0.3400000000000002,hl,keypress(j),0,true,475924,475923.7999999523,465767.214,465980.40000009537,465784.055,475734.194,1,40,39,
sequence,flow.Sequence,8_38,2023-11-30T15:37:31.884Z,,,,,,,,,,,10139.744999952323,completion,,,,,,,high,low,,,,,,,false,,,,,true,475924.2000000477,475923.7999999523,465767.214,465980.40000009537,465784.055,475734.194,1,40,,
trial,html.Screen,8_39_0,2023-11-30T15:37:36.525Z,,,,2,0.0258224118104549,-0.0029364553353019,,0.04,false,ll,4830.006000047666,response,-1.1746004947382946,0.9763331536726569,-1.160084327187181,-1.2207657619249948,1.15,-1.1312708036912094,low,low,,ISIC_8325226.JPG,,ISIC_0012069.JPG,28,25,false,0.1,hh,keypress(i),0,true,480564.40000009537,480564.2000000477,475717.16,475924.2999999523,475734.194,480367.383,1,40,40,
sequence,flow.Sequence,8_39,2023-11-30T15:37:36.525Z,,,,,,,,,,,4830.006000047666,completion,,,,,,,low,low,,,,,,,false,,,,,true,480564.60000014305,480564.2000000477,475717.16,475924.2999999523,475734.194,480367.383,1,40,,
stair_loop,flow.Loop,8,2023-11-30T15:37:36.525Z,,,,,,,,,,,231497.15500004767,completion,,,,,,,,,,,,,,,false,,,,,true,480564.90000009537,480564.2000000477,249050.486,249267.70000004768,249067.045,480367.383,1,40,,
exp_instructions,html.Screen,9,2023-11-30T15:37:39.420Z,,,,,,,,,,,3091.9169999523438,response,,,,,,,,,,,,,,,,,continue,keypress(Space),,,483459.7000000477,483459.2999999523,480350.726,480564.90000009537,480367.383,483267.395,,,,
trial,html.Screen,10_0_0,2023-11-30T15:37:53.234Z,,,,1,-0.0065172941585523,0.0118857043117315,,0.04,false,hl,14005.505000095349,response,1.0369885917487718,0.9581979429298413,-1.0674952692306725,-0.8486937878412699,1.1499999999999997,-1.0671256222695709,high,low,,ISIC_6119202.JPG,9,ISIC_6917681.JPG,28,27,false,0.28000000000000014,hh,keypress(i),0,false,497273,497272.90000009537,483250.601,483459.7999999523,483267.395,497084.059,5,600,1,
break,html.Screen,10_0_1,2023-11-30T15:37:53.234Z,,,,,,,,,,,NaN,,,,,,,,high,low,,,,,,,false,,,,,false,497273.7999999523,497273.60000014305,,497273.2000000477,,497084.059,5,600,,
break_continue,html.Screen,10_0_2,2023-11-30T15:37:53.235Z,,,,,,,,,,,NaN,,,,,,,,high,low,,,,,,,false,,,,,false,497274.2999999523,497274.10000014305,,497273.90000009537,,497084.059,5,600,,
sequence,flow.Sequence,10_0,2023-11-30T15:37:53.235Z,,,,,,,,,,,14006.705000143033,completion,,,,,,,high,low,,,,,,,false,,,,,false,497274.5,497274.10000014305,483250.601,483459.7999999523,483267.395,497084.059,5,600,,
trial,html.Screen,10_1_0,2023-11-30T15:37:57.869Z,,,,1,-0.0109416414475118,-0.005246498750811,,0.04,false,hl,4824.541000143043,response,0.6928402368686908,0.9581979429298413,-1.0674952692306725,-0.8182069330979422,1.1499999999999997,-1.0671256222695709,high,low,,ISIC_0064279.JPG,8,ISIC_0046615.JPG,28,27,false,0.28000000000000014,lh,keypress(e),0,false,501908.7999999523,501908.60000014305,497066.982,497274.60000014305,497084.059,501717.441,5,600,2,
break,html.Screen,10_1_1,2023-11-30T15:37:57.871Z,,,,,,,,,,,NaN,,,,,,,,high,low,,,,,,,false,,,,,false,501910,501909.5,,501909,,501717.441,5,600,,
break_continue,html.Screen,10_1_2,2023-11-30T15:37:57.872Z,,,,,,,,,,,NaN,,,,,,,,high,low,,,,,,,false,,,,,false,501911,501910.7000000477,,501910.2999999523,,501717.441,5,600,,
sequence,flow.Sequence,10_1,2023-11-30T15:37:57.872Z,,,,,,,,,,,4826.641000047675,completion,,,,,,,high,low,,,,,,,false,,,,,false,501911.2000000477,501910.7000000477,497066.982,497274.60000014305,497084.059,501717.441,5,600,,
trial,html.Screen,10_2_0,2023-11-30T15:38:00.861Z,,,,1,0.0220026381002083,-0.0170756452911772,,0.04,false,hl,3182.8589999523247,response,0.989300717252516,0.9581979429298413,-1.0674952692306725,-0.7908280206937478,1.1499999999999997,-1.0671256222695709,high,low,,ISIC_5347806.JPG,9,ISIC_6416533.JPG,28,27,false,0.28000000000000014,hh,keypress(i),0,false,504900.5,504900.2999999523,501700.707,501911.40000009537,501717.441,504700.761,5,600,3,
break,html.Screen,10_2_1,2023-11-30T15:38:00.862Z,,,,,,,,,,,NaN,,,,,,,,high,low,,,,,,,false,,,,,false,504901.2999999523,504901.10000014305,,504900.7999999523,,504700.761,5,600,,
break_continue,html.Screen,10_2_2,2023-11-30T15:38:00.862Z,,,,,,,,,,,NaN,,,,,,,,high,low,,,,,,,false,,,,,false,504901.7999999523,504901.60000014305,,504901.40000009537,,504700.761,5,600,,
sequence,flow.Sequence,10_2,2023-11-30T15:38:00.863Z,,,,,,,,,,,3184.1590001430595,completion,,,,,,,high,low,,,,,,,false,,,,,false,504902,504901.60000014305,501700.707,501911.2999999523,501717.441,504700.761,5,600,,
trial,html.Screen,10_3_0,2023-11-30T15:38:05.276Z,,,,1,0.0076984477620101,0.0069458408496562,,0.04,false,hl,4614.639000095369,response,1.199471562817528,0.9581979429298413,-1.0674952692306725,-0.8631260534979347,1.1499999999999997,-1.0671256222695709,high,low,,ISIC_0000434.JPG,9,ISIC_0030754.JPG,28,27,false,0.28000000000000014,ll,keypress(f),0,false,509315.5,509315.40000009537,504683.973,504902.10000014305,504700.761,509117.488,5,600,4,
break,html.Screen,10_3_1,2023-11-30T15:38:05.276Z,,,,,,,,,,,NaN,,,,,,,,high,low,,,,,,,false,,,,,false,509315.7999999523,509315.7000000477,,509315.60000014305,,509117.488,5,600,,
break_continue,html.Screen,10_3_2,2023-11-30T15:38:05.277Z,,,,,,,,,,,NaN,,,,,,,,high,low,,,,,,,false,,,,,false,509316,509315.90000009537,,509315.7999999523,,509117.488,5,600,,
sequence,flow.Sequence,10_3,2023-11-30T15:38:05.277Z,,,,,,,,,,,4615.139000095369,completion,,,,,,,high,low,,,,,,,false,,,,,false,509316.10000014305,509315.90000009537,504683.973,504902.10000014305,504700.761,509117.488,5,600,,
trial,html.Screen,10_4_0,2023-11-30T15:38:07.621Z,,,,1,0,-0.0102871556606504,,0.04,true,hh,2542.9120000953553,response,0.8796516667961567,0.9581979429298413,-1.0674952692306725,1.1452798229083057,1.1499999999999997,-1.0671256222695709,high,high,,ISIC_1805163.JPG,8,ISIC_4808298.JPG,28,28,false,0.12,hh,keypress(i),0,false,511660.7000000477,511660.40000009537,509100.899,509316.10000014305,509117.488,511467.42,5,600,5,
break,html.Screen,10_4_1,2023-11-30T15:38:07.622Z,,,,,,,,,,,NaN,,,,,,,,high,high,,,,,,,false,,,,,false,511661.40000009537,511661.2999999523,,511660.90000009537,,511467.42,5,600,,
break_continue,html.Screen,10_4_2,2023-11-30T15:38:07.623Z,,,,,,,,,,,NaN,,,,,,,,high,high,,,,,,,false,,,,,false,511662.10000014305,511661.7999999523,,511661.60000014305,,511467.42,5,600,,
sequence,flow.Sequence,10_4,2023-11-30T15:38:07.623Z,,,,,,,,,,,2544.311999952304,completion,,,,,,,high,high,,,,,,,false,,,,,false,511662.2999999523,511661.7999999523,509100.899,509316.10000014305,509117.488,511467.42,5,600,,
trial,html.Screen,10_5_0,2023-11-30T15:38:12.212Z,,,,1,-0.001445457736793,-0.0165307427449982,,0.04,true,hl,4784.2800000477,response,1.0329549150636406,0.9581979429298413,-1.0674952692306725,-1.01584100839286,1.1499999999999997,-1.0671256222695709,high,low,,ISIC_0027350.JPG,10,ISIC_0054670.JPG,28,27,false,0.28000000000000014,hl,keypress(j),0,false,516251.90000009537,516251.7000000477,511450.775,511662.40000009537,511467.42,516050.726,5,600,6,
break,html.Screen,10_5_1,2023-11-30T15:38:12.213Z,,,,,,,,,,,NaN,,,,,,,,high,low,,,,,,,false,,,,,false,516252.2000000477,516252.10000014305,,516251.90000009537,,516050.726,5,600,,
break_continue,html.Screen,10_5_2,2023-11-30T15:38:12.213Z,,,,,,,,,,,NaN,,,,,,,,high,low,,,,,,,false,,,,,false,516252.40000009537,516252.40000009537,,516252.2000000477,,516050.726,5,600,,
sequence,flow.Sequence,10_5,2023-11-30T15:38:12.213Z,,,,,,,,,,,4784.980000095384,completion,,,,,,,high,low,,,,,,,false,,,,,false,516252.5,516252.40000009537,511450.775,511662.2999999523,511467.42,516050.726,5,600,,
trial,html.Screen,10_6_0,2023-11-30T15:38:21.780Z,,,,1,-0.0164027439304477,0.0082910758715273,,0.04,true,hl,9768.97400004766,response,0.9653573371180936,0.9581979429298413,-1.0674952692306725,-0.854766800381037,1.1499999999999997,-1.0671256222695709,high,low,,ISIC_7381224.JPG,9,ISIC_9640145.JPG,28,27,false,0.28000000000000014,hl,keypress(j),0,false,525820,525819.7000000477,516034.085,516252.60000014305,516050.726,525617.41,5,600,7,
break,html.Screen,10_6_1,2023-11-30T15:38:21.781Z,,,,,,,,,,,NaN,,,,,,,,high,low,,,,,,,false,,,,,false,525820.2999999523,525820.2000000477,,525820,,525617.41,5,600,,
break_continue,html.Screen,10_6_2,2023-11-30T15:38:21.781Z,,,,,,,,,,,NaN,,,,,,,,high,low,,,,,,,false,,,,,false,525820.600000143,525820.4000000954,,525820.2999999523,,525617.41,5,600,,
sequence,flow.Sequence,10_6,2023-11-30T15:38:21.781Z,,,,,,,,,,,9769.674000095343,completion,,,,,,,high,low,,,,,,,false,,,,,false,525820.600000143,525820.4000000954,516034.085,516252.5,516050.726,525617.41,5,600,,
trial,html.Screen,10_7_0,2023-11-30T15:38:28.524Z,,,,1,0.0367706518941078,-0.0161069838272154,,0.04,true,lh,6946.389999952284,response,-1.168911077628813,0.9581979429298413,-1.0674952692306725,1.2181838235193114,1.1499999999999997,-1.0671256222695709,low,high,,ISIC_0033419.JPG,9,ISIC_7358691.JPG,28,26,false,0.31000000000000016,lh,keypress(e),0,false,532563.9000000954,532563.7999999523,525600.798,525820.7000000477,525617.41,532367.413,5,600,8,
break,html.Screen,10_7_1,2023-11-30T15:38:28.525Z,,,,,,,,,,,NaN,,,,,,,,low,high,,,,,,,false,,,,,false,532564.2000000477,532564.2000000477,,532564,,532367.413,5,600,,
break_continue,html.Screen,10_7_2,2023-11-30T15:38:28.525Z,,,,,,,,,,,NaN,,,,,,,,low,high,,,,,,,false,,,,,false,532564.5,532564.4000000954,,532564.2999999523,,532367.413,5,600,,
sequence,flow.Sequence,10_7,2023-11-30T15:38:28.525Z,,,,,,,,,,,6946.990000095335,completion,,,,,,,low,high,,,,,,,false,,,,,false,532564.5,532564.4000000954,525600.798,525820.7000000477,525617.41,532367.413,5,600,,
trial,html.Screen,10_8_0,2023-11-30T15:38:32.100Z,,,,1,0.0200295718112167,0.0155559071275806,,0.04,true,hh,3772.187000143109,response,0.8801648637566495,0.9581979429298413,-1.0674952692306725,1.2145479345714805,1.1499999999999997,-1.0671256222695709,high,high,,ISIC_0061343.JPG,9,ISIC_4846741.JPG,28,28,false,0.12,hh,keypress(i),0,false,536139.7999999523,536139.600000143,532350.636,532564.5,532367.413,535950.997,5,600,9,
break,html.Screen,10_8_1,2023-11-30T15:38:32.101Z,,,,,,,,,,,NaN,,,,,,,,high,high,,,,,,,false,,,,,false,536140.2000000477,536140.100000143,,536139.9000000954,,535950.997,5,600,,
break_continue,html.Screen,10_8_2,2023-11-30T15:38:32.101Z,,,,,,,,,,,NaN,,,,,,,,high,high,,,,,,,false,,,,,false,536140.2999999523,536140.2999999523,,536140.2000000477,,535950.997,5,600,,
sequence,flow.Sequence,10_8,2023-11-30T15:38:32.101Z,,,,,,,,,,,3772.886999952374,completion,,,,,,,high,high,,,,,,,false,,,,,false,536140.4000000954,536140.2999999523,532350.636,532564.5,532367.413,535950.997,5,600,,
trial,html.Screen,10_9_0,2023-11-30T15:38:36.916Z,,,,1,0.0044063257337227,0.0172548282859886,,0.04,false,hh,5004.4030000953935,response,0.9282616082834076,0.9581979429298413,-1.0674952692306725,1.1969427784335605,1.1499999999999997,-1.0671256222695709,high,high,,ISIC_7413786.JPG,9,ISIC_6952773.JPG,28,28,false,0.12,ll,keypress(f),0,false,540955.5,540955.4000000954,535917.565,536140.4000000954,535950.997,540750.753,5,600,10,
break,html.Screen,10_9_1,2023-11-30T15:38:36.917Z,,,,,,,,,,,NaN,,,,,,,,high,high,,,,,,,false,,,,,false,540955.9000000954,540955.7999999523,,540955.600000143,,540750.753,5,600,,
break_continue,html.Screen,10_9_2,2023-11-30T15:38:36.917Z,,,,,,,,,,,NaN,,,,,,,,high,high,,,,,,,false,,,,,false,540956.100000143,540955.9000000954,,540955.9000000954,,540750.753,5,600,,
sequence,flow.Sequence,10_9,2023-11-30T15:38:36.917Z,,,,,,,,,,,5004.9030000953935,completion,,,,,,,high,high,,,,,,,false,,,,,false,540956.100000143,540955.9000000954,535917.565,536140.4000000954,535950.997,540750.753,5,600,,
trial,html.Screen,10_10_0,2023-11-30T15:38:39.805Z,,,,1,-0.0388334549081915,0.0303399972963369,,0.04,true,ll,3093.04699995229,response,-1.0879680624915455,0.9581979429298413,-1.0674952692306725,-0.9819300422707804,1.1499999999999997,-1.0671256222695709,low,low,,ISIC_4961708.JPG,10,ISIC_0011369.JPG,28,40,false,0.1,ll,keypress(f),0,false,543844.100000143,543843.7999999523,540733.957,540956.100000143,540750.753,543650.788,5,600,11,
break,html.Screen,10_10_1,2023-11-30T15:38:39.805Z,,,,,,,,,,,NaN,,,,,,,,low,low,,,,,,,false,,,,,false,543844.600000143,543844.5,,543844.2000000477,,543650.788,5,600,,
break_continue,html.Screen,10_10_2,2023-11-30T15:38:39.806Z,,,,,,,,,,,NaN,,,,,,,,low,low,,,,,,,false,,,,,false,543844.9000000954,543844.7999999523,,543844.7000000477,,543650.788,5,600,,
sequence,flow.Sequence,10_10,2023-11-30T15:38:39.806Z,,,,,,,,,,,3094.04699995229,completion,,,,,,,low,low,,,,,,,false,,,,,false,543845.100000143,543844.7999999523,540733.957,540956.100000143,540750.753,543650.788,5,600,,
trial,html.Screen,10_11_0,2023-11-30T15:38:44.477Z,,,,1,0.0257631352671967,0.0202837002774028,,0.04,false,hh,4865.511999952374,response,0.9048246926578776,0.9581979429298413,-1.0674952692306725,1.0392108946107133,1.1499999999999997,-1.0671256222695709,high,high,,ISIC_0032797.JPG,10,ISIC_0068544.JPG,28,28,false,0.12,hl,keypress(j),0,false,548516.600000143,548516.2999999523,543634.051,543845.100000143,543650.788,548317.468,5,600,12,
break,html.Screen,10_11_1,2023-11-30T15:38:44.478Z,,,,,,,,,,,NaN,,,,,,,,high,high,,,,,,,false,,,,,false,548517.5,548517.2000000477,,548516.9000000954,,548317.468,5,600,,
break_continue,html.Screen,10_11_2,2023-11-30T15:38:44.479Z,,,,,,,,,,,NaN,,,,,,,,high,high,,,,,,,false,,,,,false,548518.100000143,548517.9000000954,,548517.7000000477,,548317.468,5,600,,
sequence,flow.Sequence,10_11,2023-11-30T15:38:44.479Z,,,,,,,,,,,4867.112000095425,completion,,,,,,,high,high,,,,,,,false,,,,,false,548518.4000000954,548517.9000000954,543634.051,543845.100000143,543650.788,548317.468,5,600,,
trial,html.Screen,10_12_0,2023-11-30T15:38:47.373Z,,,,1,-0.001445457736793,-0.0165307427449982,,0.04,false,ll,3094.5320000000065,response,-1.0349570401423522,0.9581979429298413,-1.0674952692306725,-1.0363323665817852,1.1499999999999997,-1.0671256222695709,low,low,,ISIC_0027350.JPG,9,ISIC_0030107.JPG,28,40,false,0.1,hh,keypress(i),0,false,551412.100000143,551412,548300.655,548518.5,548317.468,551217.556,5,600,13,
break,html.Screen,10_12_1,2023-11-30T15:38:47.374Z,,,,,,,,,,,NaN,,,,,,,,low,low,,,,,,,false,,,,,false,551412.7999999523,551412.600000143,,551412.2999999523,,551217.556,5,600,,
break_continue,html.Screen,10_12_2,2023-11-30T15:38:47.374Z,,,,,,,,,,,NaN,,,,,,,,low,low,,,,,,,false,,,,,false,551413.2999999523,551413.100000143,,551412.9000000954,,551217.556,5,600,,
sequence,flow.Sequence,10_12,2023-11-30T15:38:47.374Z,,,,,,,,,,,3095.6320001430577,completion,,,,,,,low,low,,,,,,,false,,,,,false,551413.5,551413.100000143,548300.655,548518.5,548317.468,551217.556,5,600,,
trial,html.Screen,10_13_0,2023-11-30T15:38:52.132Z,,,,1,-0.001445457736793,-0.0165307427449982,,0.04,false,hh,4953.944000000018,response,1.001866590114321,0.9581979429298413,-1.0674952692306725,1.080719641270871,1.1499999999999997,-1.0671256222695709,high,high,,ISIC_0027350.JPG,8,ISIC_0663941.JPG,28,28,false,0.12,lh,keypress(e),0,false,556171.600000143,556171.5,551200.785,551413.600000143,551217.556,555967.463,5,600,14,
break,html.Screen,10_13_1,2023-11-30T15:38:52.133Z,,,,,,,,,,,NaN,,,,,,,,high,high,,,,,,,false,,,,,false,556171.9000000954,556171.7999999523,,556171.7000000477,,555967.463,5,600,,
break_continue,html.Screen,10_13_2,2023-11-30T15:38:52.133Z,,,,,,,,,,,NaN,,,,,,,,high,high,,,,,,,false,,,,,false,556172.100000143,556172.100000143,,556171.9000000954,,555967.463,5,600,,
sequence,flow.Sequence,10_13,2023-11-30T15:38:52.133Z,,,,,,,,,,,4954.544000143069,completion,,,,,,,high,high,,,,,,,false,,,,,false,556172.2000000477,556172.100000143,551200.785,551413.600000143,551217.556,555967.463,5,600,,
trial,html.Screen,10_14_0,2023-11-30T15:38:56.165Z,,,,1,-0.0374659946425444,-0.0086043094957617,,0.04,false,hh,4236.237000047695,response,0.9003340164453637,0.9581979429298413,-1.0674952692306725,1.1325150153239834,1.1499999999999997,-1.0671256222695709,high,high,,ISIC_0033051.JPG,8,ISIC_5287679.JPG,28,28,false,0.12,ll,keypress(f),0,false,560203.7999999523,560203.7000000477,555950.716,556172.2000000477,555967.463,560000.805,5,600,15,
break,html.Screen,10_14_1,2023-11-30T15:38:56.165Z,,,,,,,,,,,NaN,,,,,,,,high,high,,,,,,,false,,,,,false,560204.2000000477,560204.100000143,,560203.9000000954,,560000.805,5,600,,
break_continue,html.Screen,10_14_2,2023-11-30T15:38:56.165Z,,,,,,,,,,,NaN,,,,,,,,high,high,,,,,,,false,,,,,false,560204.2999999523,560204.2999999523,,560204.2000000477,,560000.805,5,600,,
sequence,flow.Sequence,10_14,2023-11-30T15:38:56.165Z,,,,,,,,,,,4236.8369999523275,completion,,,,,,,high,high,,,,,,,false,,,,,false,560204.4000000954,560204.2999999523,555950.716,556172.2000000477,555967.463,560000.805,5,600,,
trial,html.Screen,10_15_0,2023-11-30T15:39:05.398Z,,,,1,-0.0198696495649504,0.0387952353063878,,0.04,false,hl,9435.694999999949,response,1.199471562817528,0.9581979429298413,-1.0674952692306725,-0.8631260534979347,1.1499999999999997,-1.0671256222695709,high,low,,ISIC_6735970.JPG,9,ISIC_0030754.JPG,28,27,false,0.28000000000000014,hh,keypress(i),0,false,569436.7000000477,569436.5,559984.181,560204.5,560000.805,569234.189,5,600,16,
break,html.Screen,10_15_1,2023-11-30T15:39:05.398Z,,,,,,,,,,,NaN,,,,,,,,high,low,,,,,,,false,,,,,false,569437.4000000954,569437.2000000477,,569436.9000000954,,569234.189,5,600,,
break_continue,html.Screen,10_15_2,2023-11-30T15:39:05.399Z,,,,,,,,,,,NaN,,,,,,,,high,low,,,,,,,false,,,,,false,569437.9000000954,569437.7000000477,,569437.5,,569234.189,5,600,,
sequence,flow.Sequence,10_15,2023-11-30T15:39:05.399Z,,,,,,,,,,,9436.895000047632,completion,,,,,,,high,low,,,,,,,false,,,,,false,569438,569437.7000000477,559984.181,560204.5,560000.805,569234.189,5,600,,
trial,html.Screen,10_16_0,2023-11-30T15:39:07.549Z,,,,1,0.0308384937406319,-0.0038396364323947,,0.04,false,lh,2354.0110000476707,response,-0.90812608370647,0.9581979429298413,-1.0674952692306725,1.2720026872926935,1.1499999999999997,-1.0671256222695709,low,high,,ISIC_0029825.JPG,9,ISIC_0450295.JPG,28,26,false,0.31000000000000016,hh,keypress(i),0,false,571588.5,571588.2000000477,569217.594,569438.2000000477,569234.189,571384.189,5,600,17,
break,html.Screen,10_16_1,2023-11-30T15:39:07.550Z,,,,,,,,,,,NaN,,,,,,,,low,high,,,,,,,false,,,,,false,571589.2999999523,571589.100000143,,571588.7999999523,,571384.189,5,600,,
break_continue,html.Screen,10_16_2,2023-11-30T15:39:07.551Z,,,,,,,,,,,NaN,,,,,,,,low,high,,,,,,,false,,,,,false,571589.9000000954,571589.600000143,,571589.5,,571384.189,5,600,,
sequence,flow.Sequence,10_16,2023-11-30T15:39:07.551Z,,,,,,,,,,,2355.411000143038,completion,,,,,,,low,high,,,,,,,false,,,,,false,571590.2000000477,571589.600000143,569217.594,569438.100000143,569234.189,571384.189,5,600,,
trial,html.Screen,10_17_0,2023-11-30T15:39:09.726Z,,,,1,0.0308384937406319,-0.0038396364323947,,0.04,true,hh,2380.810999999987,response,0.8796516667961567,0.9581979429298413,-1.0674952692306725,1.1452798229083057,1.1499999999999997,-1.0671256222695709,high,high,,ISIC_0029825.JPG,9,ISIC_4808298.JPG,28,28,false,0.12,hh,keypress(i),0,false,573765.2999999523,573765,571367.535,571590.4000000954,571384.189,573567.467,5,600,18,
break,html.Screen,10_17_1,2023-11-30T15:39:09.727Z,,,,,,,,,,,NaN,,,,,,,,high,high,,,,,,,false,,,,,false,573766.5,573766.2000000477,,573765.7999999523,,573567.467,5,600,,
break_continue,html.Screen,10_17_2,2023-11-30T15:39:09.728Z,,,,,,,,,,,NaN,,,,,,,,high,high,,,,,,,false,,,,,false,573767.4000000954,573766.9000000954,,573766.7000000477,,573567.467,5,600,,
sequence,flow.Sequence,10_17,2023-11-30T15:39:09.729Z,,,,,,,,,,,2382.7110000953544,completion,,,,,,,high,high,,,,,,,false,,,,,false,573768.100000143,573766.9000000954,571367.535,571590.2999999523,571384.189,573567.467,5,600,,
trial,html.Screen,10_18_0,2023-11-30T15:39:13.765Z,,,,1,0.0367744112927588,0.0324865661712824,,0.04,true,hl,4236.533000000054,response,1.0369885917487718,0.9581979429298413,-1.0674952692306725,-0.8486937878412699,1.1499999999999997,-1.0671256222695709,high,low,,ISIC_4523565.JPG,8,ISIC_6917681.JPG,28,27,false,0.28000000000000014,hl,keypress(j),0,false,577804.100000143,577804,573550.874,573768.2999999523,573567.467,577600.862,5,600,19,
break,html.Screen,10_18_1,2023-11-30T15:39:13.765Z,,,,,,,,,,,NaN,,,,,,,,high,low,,,,,,,false,,,,,false,577804.600000143,577804.5,,577804.2999999523,,577600.862,5,600,,
break_continue,html.Screen,10_18_2,2023-11-30T15:39:13.766Z,,,,,,,,,,,NaN,,,,,,,,high,low,,,,,,,false,,,,,false,577805,577804.7999999523,,577804.7000000477,,577600.862,5,600,,
sequence,flow.Sequence,10_18,2023-11-30T15:39:13.766Z,,,,,,,,,,,4237.33299995237,completion,,,,,,,high,low,,,,,,,false,,,,,false,577805.2000000477,577804.7999999523,573550.874,573768.2999999523,573567.467,577600.862,5,600,,
trial,html.Screen,10_19_0,2023-11-30T15:39:17.949Z,,,,1,0.0220026381002083,-0.0170756452911772,,0.04,false,lh,4386.838000047719,response,-1.0153439398566937,0.9581979429298413,-1.0674952692306725,0.93001438372942,1.1499999999999997,-1.0671256222695709,low,high,,ISIC_5347806.JPG,9,ISIC_8211214.JPG,28,26,false,0.31000000000000016,hh,keypress(i),0,false,581987.7999999523,581987.7000000477,577584.178,577805.2999999523,577600.862,581784.157,5,600,20,
break,html.Screen,10_19_1,2023-11-30T15:39:17.949Z,,,,,,,,,,,NaN,,,,,,,,low,high,,,,,,,false,,,,,false,581988.2000000477,581988.100000143,,581987.9000000954,,581784.157,5,600,,
break_continue,html.Screen,10_19_2,2023-11-30T15:39:17.949Z,,,,,,,,,,,NaN,,,,,,,,low,high,,,,,,,false,,,,,false,581988.4000000954,581988.2999999523,,581988.2999999523,,581784.157,5,600,,
sequence,flow.Sequence,10_19,2023-11-30T15:39:17.949Z,,,,,,,,,,,4387.437999952352,completion,,,,,,,low,high,,,,,,,false,,,,,false,581988.5,581988.2999999523,577584.178,577805.2999999523,577600.862,581784.157,5,600,,
trial,html.Screen,10_20_0,2023-11-30T15:39:21.926Z,,,,1,0.0044063257337227,0.0172548282859886,,0.04,true,lh,4180.3429999999935,response,-0.8067116931297591,0.9581979429298413,-1.0674952692306725,1.215898074058027,1.1499999999999997,-1.0671256222695709,low,high,,ISIC_7413786.JPG,9,ISIC_1457687.JPG,28,26,false,0.31000000000000016,lh,keypress(e),0,false,585964.7000000477,585964.5,581767.658,581988.600000143,581784.157,585767.467,5,600,21,
break,html.Screen,10_20_1,2023-11-30T15:39:21.926Z,,,,,,,,,,,NaN,,,,,,,,low,high,,,,,,,false,,,,,false,585965.4000000954,585965.2999999523,,585964.9000000954,,585767.467,5,600,,
break_continue,html.Screen,10_20_2,2023-11-30T15:39:21.927Z,,,,,,,,,,,NaN,,,,,,,,low,high,,,,,,,false,,,,,false,585966,585965.7999999523,,585965.600000143,,585767.467,5,600,,
sequence,flow.Sequence,10_20,2023-11-30T15:39:21.927Z,,,,,,,,,,,4181.64299995231,completion,,,,,,,low,high,,,,,,,false,,,,,false,585966.2000000477,585965.7999999523,581767.658,581988.600000143,581784.157,585767.467,5,600,,
trial,html.Screen,10_21_0,2023-11-30T15:39:25.781Z,,,,1,-0.039520186367207,-0.0377961575607372,,0.04,false,lh,4052.2330000477377,response,-0.8544507134472948,0.9581979429298413,-1.0674952692306725,0.9244388608707323,1.1499999999999997,-1.0671256222695709,low,high,,ISIC_6356149.JPG,8,ISIC_3565564.JPG,28,26,false,0.31000000000000016,ll,keypress(f),0,false,589819.7000000477,589819.7000000477,585750.802,585966.2999999523,585767.467,589617.524,5,600,22,
break,html.Screen,10_21_1,2023-11-30T15:39:25.781Z,,,,,,,,,,,NaN,,,,,,,,low,high,,,,,,,false,,,,,false,589820.100000143,589820,,589819.7999999523,,589617.524,5,600,,
break_continue,html.Screen,10_21_2,2023-11-30T15:39:25.781Z,,,,,,,,,,,NaN,,,,,,,,low,high,,,,,,,false,,,,,false,589820.2000000477,589820.2000000477,,589820.100000143,,589617.524,5,600,,
sequence,flow.Sequence,10_21,2023-11-30T15:39:25.781Z,,,,,,,,,,,4052.7330000477377,completion,,,,,,,low,high,,,,,,,false,,,,,false,589820.2999999523,589820.2000000477,585750.802,585966.2999999523,585767.467,589617.524,5,600,,
trial,html.Screen,10_22_0,2023-11-30T15:39:27.725Z,,,,1,-0.039520186367207,-0.0377961575607372,,0.04,true,ll,2146.676000047708,response,-0.9866910776752168,0.9581979429298413,-1.0674952692306725,-0.9730788960408626,1.1499999999999997,-1.0671256222695709,low,low,,ISIC_6356149.JPG,9,ISIC_0070003.JPG,28,40,false,0.1,ll,keypress(f),0,false,591764.4000000954,591764.2000000477,589600.966,589820.2999999523,589617.524,591567.487,5,600,23,
break,html.Screen,10_22_1,2023-11-30T15:39:27.726Z,,,,,,,,,,,NaN,,,,,,,,low,low,,,,,,,false,,,,,false,591765,591764.7999999523,,591764.5,,591567.487,5,600,,
break_continue,html.Screen,10_22_2,2023-11-30T15:39:27.726Z,,,,,,,,,,,NaN,,,,,,,,low,low,,,,,,,false,,,,,false,591765.4000000954,591765.2000000477,,591765,,591567.487,5,600,,
sequence,flow.Sequence,10_22,2023-11-30T15:39:27.726Z,,,,,,,,,,,2147.676000047708,completion,,,,,,,low,low,,,,,,,false,,,,,false,591765.600000143,591765.2000000477,589600.966,589820.2999999523,589617.524,591567.487,5,600,,
trial,html.Screen,10_23_0,2023-11-30T15:39:34.014Z,,,,1,-0.001445457736793,-0.0165307427449982,,0.04,false,hh,6484.913000095403,response,0.8429329800778957,0.9581979429298413,-1.0674952692306725,1.2153707004941214,1.1499999999999997,-1.0671256222695709,high,high,,ISIC_0027350.JPG,8,ISIC_3439215.JPG,28,28,false,0.12,lh,keypress(e),0,false,598052.7000000477,598052.4000000954,591551.076,591765.7000000477,591567.487,597850.89,5,600,24,
break,html.Screen,10_23_1,2023-11-30T15:39:34.014Z,,,,,,,,,,,NaN,,,,,,,,high,high,,,,,,,false,,,,,false,598053.4000000954,598053.2999999523,,598052.9000000954,,597850.89,5,600,,
break_continue,html.Screen,10_23_2,2023-11-30T15:39:34.015Z,,,,,,,,,,,NaN,,,,,,,,high,high,,,,,,,false,,,,,false,598054.100000143,598053.7999999523,,598053.600000143,,597850.89,5,600,,
sequence,flow.Sequence,10_23,2023-11-30T15:39:34.015Z,,,,,,,,,,,6486.312999952352,completion,,,,,,,high,high,,,,,,,false,,,,,false,598054.2000000477,598053.7999999523,591551.076,591765.7000000477,591567.487,597850.89,5,600,,
trial,html.Screen,10_24_0,2023-11-30T15:39:37.253Z,,,,1,-0.0199950873045219,-0.0172506388509166,,0.04,true,ll,3441.210000143037,response,-0.9766645409582418,0.9581979429298413,-1.0674952692306725,-1.086167902767275,1.1499999999999997,-1.0671256222695709,low,low,,ISIC_0029906.JPG,8,ISIC_0011526.JPG,28,40,false,0.1,ll,keypress(f),0,false,601292.2000000477,601292.100000143,597834.227,598054.2999999523,597850.89,601100.888,5,600,25,
break,html.Screen,10_24_1,2023-11-30T15:39:37.254Z,,,,,,,,,,,NaN,,,,,,,,low,low,,,,,,,false,,,,,false,601292.7999999523,601292.7000000477,,601292.4000000954,,601100.888,5,600,,
break_continue,html.Screen,10_24_2,2023-11-30T15:39:37.254Z,,,,,,,,,,,NaN,,,,,,,,low,low,,,,,,,false,,,,,false,601293.2000000477,601293,,601292.7999999523,,601100.888,5,600,,
sequence,flow.Sequence,10_24,2023-11-30T15:39:37.254Z,,,,,,,,,,,3442.109999999986,completion,,,,,,,low,low,,,,,,,false,,,,,false,601293.2999999523,601293,597834.227,598054.2999999523,597850.89,601100.888,5,600,,
trial,html.Screen,10_25_0,2023-11-30T15:39:43.685Z,,,,1,0.0308384937406319,-0.0038396364323947,,0.04,false,lh,6622.712000143016,response,-0.9617893983965208,0.9581979429298413,-1.0674952692306725,0.9453006131304652,1.1499999999999997,-1.0671256222695709,low,high,,ISIC_0029825.JPG,9,ISIC_4229473.JPG,28,26,false,0.31000000000000016,hl,keypress(j),0,false,607723.7000000477,607723.600000143,601084.264,601293.4000000954,601100.888,607534.295,5,600,26,
break,html.Screen,10_25_1,2023-11-30T15:39:43.685Z,,,,,,,,,,,NaN,,,,,,,,low,high,,,,,,,false,,,,,false,607724.100000143,607724.100000143,,607723.9000000954,,607534.295,5,600,,
break_continue,html.Screen,10_25_2,2023-11-30T15:39:43.685Z,,,,,,,,,,,NaN,,,,,,,,low,high,,,,,,,false,,,,,false,607724.2999999523,607724.2000000477,,607724.100000143,,607534.295,5,600,,
sequence,flow.Sequence,10_25,2023-11-30T15:39:43.685Z,,,,,,,,,,,6623.312000047648,completion,,,,,,,low,high,,,,,,,false,,,,,false,607724.2999999523,607724.2000000477,601084.264,601293.4000000954,601100.888,607534.295,5,600,,
trial,html.Screen,10_26_0,2023-11-30T15:39:49.397Z,,,,1,0.0283578106329894,-0.0088840758711548,,0.04,false,lh,5901.405000047642,response,-0.9633172970727744,0.9581979429298413,-1.0674952692306725,0.8472659344792351,1.1499999999999997,-1.0671256222695709,low,high,,ISIC_0060707.JPG,10,ISIC_0067172.JPG,28,26,false,0.31000000000000016,hh,keypress(i),0,false,613435.7999999523,613435.7000000477,607517.516,607724.4000000954,607534.295,613234.222,5,600,27,
break,html.Screen,10_26_1,2023-11-30T15:39:49.397Z,,,,,,,,,,,NaN,,,,,,,,low,high,,,,,,,false,,,,,false,613436.100000143,613436.100000143,,613436,,613234.222,5,600,,
break_continue,html.Screen,10_26_2,2023-11-30T15:39:49.397Z,,,,,,,,,,,NaN,,,,,,,,low,high,,,,,,,false,,,,,false,613436.2000000477,613436.2000000477,,613436.100000143,,613234.222,5,600,,
sequence,flow.Sequence,10_26,2023-11-30T15:39:49.397Z,,,,,,,,,,,5901.905000047642,completion,,,,,,,low,high,,,,,,,false,,,,,false,613436.2999999523,613436.2000000477,607517.516,607724.4000000954,607534.295,613234.222,5,600,,
trial,html.Screen,10_27_0,2023-11-30T15:39:54.173Z,,,,1,-0.0374659946425444,-0.0086043094957617,,0.04,false,hh,4977.478000047733,response,1.0659165756604234,0.9581979429298413,-1.0674952692306725,1.0867497316848906,1.1499999999999997,-1.0671256222695709,high,high,,ISIC_0033051.JPG,9,ISIC_5807608.JPG,28,28,false,0.12,ll,keypress(f),0,false,618211.9000000954,618211.7000000477,613217.527,613436.4000000954,613234.222,618017.566,5,600,28,
break,html.Screen,10_27_1,2023-11-30T15:39:54.173Z,,,,,,,,,,,NaN,,,,,,,,high,high,,,,,,,false,,,,,false,618212.2999999523,618212.2000000477,,618212,,618017.566,5,600,,
break_continue,html.Screen,10_27_2,2023-11-30T15:39:54.174Z,,,,,,,,,,,NaN,,,,,,,,high,high,,,,,,,false,,,,,false,618212.600000143,618212.5,,618212.4000000954,,618017.566,5,600,,
sequence,flow.Sequence,10_27,2023-11-30T15:39:54.174Z,,,,,,,,,,,4978.278000000049,completion,,,,,,,high,high,,,,,,,false,,,,,false,618212.600000143,618212.5,613217.527,613436.4000000954,613234.222,618017.566,5,600,,
trial,html.Screen,10_28_0,2023-11-30T15:39:59.845Z,,,,1,-0.0388334549081915,0.0303399972963369,,0.04,false,lh,5866.334000095376,response,-1.2081146885025262,0.9581979429298413,-1.0674952692306725,1.195668832085049,1.1499999999999997,-1.0671256222695709,low,high,,ISIC_4961708.JPG,9,ISIC_7369690.JPG,28,26,false,0.31000000000000016,hh,keypress(i),0,false,623883.9000000954,623883.9000000954,618000.87,618212.7000000477,618017.566,623684.211,5,600,29,
break,html.Screen,10_28_1,2023-11-30T15:39:59.845Z,,,,,,,,,,,NaN,,,,,,,,low,high,,,,,,,false,,,,,false,623884.2999999523,623884.2000000477,,623884.100000143,,623684.211,5,600,,
break_continue,html.Screen,10_28_2,2023-11-30T15:39:59.846Z,,,,,,,,,,,NaN,,,,,,,,low,high,,,,,,,false,,,,,false,623884.5,623884.4000000954,,623884.4000000954,,623684.211,5,600,,
sequence,flow.Sequence,10_28,2023-11-30T15:39:59.846Z,,,,,,,,,,,5866.834000095376,completion,,,,,,,low,high,,,,,,,false,,,,,false,623884.600000143,623884.4000000954,618000.87,618212.7000000477,618017.566,623684.211,5,600,,
trial,html.Screen,10_29_0,2023-11-30T15:40:05.845Z,,,,1,-0.0109416414475118,-0.005246498750811,,0.04,false,hh,6199.389000143041,response,0.9000661178885296,0.9581979429298413,-1.0674952692306725,1.086658647698992,1.1499999999999997,-1.0671256222695709,high,high,,ISIC_0064279.JPG,8,ISIC_7407847.JPG,28,28,false,0.12,lh,keypress(e),0,false,629883.7000000477,629883.600000143,623667.573,623884.7000000477,623684.211,629684.255,5,600,30,
break,html.Screen,10_29_1,2023-11-30T15:40:05.845Z,,,,,,,,,,,NaN,,,,,,,,high,high,,,,,,,false,,,,,false,629884,629883.9000000954,,629883.7999999523,,629684.255,5,600,,
break_continue,html.Screen,10_29_2,2023-11-30T15:40:05.845Z,,,,,,,,,,,NaN,,,,,,,,high,high,,,,,,,false,,,,,false,629884.2000000477,629884.100000143,,629884,,629684.255,5,600,,
sequence,flow.Sequence,10_29,2023-11-30T15:40:05.845Z,,,,,,,,,,,6199.889000143041,completion,,,,,,,high,high,,,,,,,false,,,,,false,629884.2000000477,629884.100000143,623667.573,623884.7000000477,623684.211,629684.255,5,600,,
trial,html.Screen,10_30_0,2023-11-30T15:40:09.109Z,,,,1,0.0283578106329894,-0.0088840758711548,,0.04,false,hh,3463.3450001430465,response,0.9691635021928308,0.9581979429298413,-1.0674952692306725,1.0761216763182415,1.1499999999999997,-1.0671256222695709,high,high,,ISIC_0060707.JPG,9,ISIC_8169564.JPG,28,28,false,0.12,ll,keypress(f),0,false,633147.7000000477,633147.600000143,629667.537,629884.2999999523,629684.255,632950.908,5,600,31,
break,html.Screen,10_30_1,2023-11-30T15:40:09.109Z,,,,,,,,,,,NaN,,,,,,,,high,high,,,,,,,false,,,,,false,633148.100000143,633148.100000143,,633147.9000000954,,632950.908,5,600,,
break_continue,html.Screen,10_30_2,2023-11-30T15:40:09.110Z,,,,,,,,,,,NaN,,,,,,,,high,high,,,,,,,false,,,,,false,633148.2999999523,633148.2999999523,,633148.2000000477,,632950.908,5,600,,
sequence,flow.Sequence,10_30,2023-11-30T15:40:09.110Z,,,,,,,,,,,3464.0449999523116,completion,,,,,,,high,high,,,,,,,false,,,,,false,633148.4000000954,633148.2999999523,629667.537,629884.2000000477,629684.255,632950.908,5,600,,
trial,html.Screen,10_31_0,2023-11-30T15:40:13.358Z,,,,1,0.0367706518941078,-0.0161069838272154,,0.04,false,lh,4445.79200004763,response,-0.7714570894008278,0.9581979429298413,-1.0674952692306725,0.9113656554657036,1.1499999999999997,-1.0671256222695709,low,high,,ISIC_0033419.JPG,9,ISIC_4529092.JPG,28,26,false,0.31000000000000016,hl,keypress(j),0,false,637396.9000000954,637396.7000000477,632934.383,633148.5,632950.908,637200.911,5,600,32,
break,html.Screen,10_31_1,2023-11-30T15:40:13.359Z,,,,,,,,,,,NaN,,,,,,,,low,high,,,,,,,false,,,,,false,637397.7000000477,637397.5,,637397.2000000477,,637200.911,5,600,,
break_continue,html.Screen,10_31_2,2023-11-30T15:40:13.360Z,,,,,,,,,,,NaN,,,,,,,,low,high,,,,,,,false,,,,,false,637398.4000000954,637398,,637397.9000000954,,637200.911,5,600,,
sequence,flow.Sequence,10_31,2023-11-30T15:40:13.360Z,,,,,,,,,,,4447.091999999946,completion,,,,,,,low,high,,,,,,,false,,,,,false,637398.5,637398,632934.383,633148.5,632950.908,637200.911,5,600,,
trial,html.Screen,10_32_0,2023-11-30T15:40:17.245Z,,,,1,0.0257631352671967,0.0202837002774028,,0.04,false,hl,4082.78900004772,response,0.8830264383952469,0.9581979429298413,-1.0674952692306725,-0.8635562538060516,1.1499999999999997,-1.0671256222695709,high,low,,ISIC_0032797.JPG,9,ISIC_0032258.JPG,28,27,false,0.28000000000000014,hh,keypress(i),0,false,641283.9000000954,641283.7000000477,637184.253,637398.7000000477,637200.911,641084.284,5,600,33,
break,html.Screen,10_32_1,2023-11-30T15:40:17.245Z,,,,,,,,,,,NaN,,,,,,,,high,low,,,,,,,false,,,,,false,641284.2999999523,641284.2000000477,,641284,,641084.284,5,600,,
break_continue,html.Screen,10_32_2,2023-11-30T15:40:17.246Z,,,,,,,,,,,NaN,,,,,,,,high,low,,,,,,,false,,,,,false,641284.5,641284.4000000954,,641284.2999999523,,641084.284,5,600,,
sequence,flow.Sequence,10_32,2023-11-30T15:40:17.246Z,,,,,,,,,,,4083.4890000954038,completion,,,,,,,high,low,,,,,,,false,,,,,false,641284.600000143,641284.4000000954,637184.253,637398.7000000477,637200.911,641084.284,5,600,,
trial,html.Screen,10_33_0,2023-11-30T15:40:20.021Z,,,,1,-0.0164027439304477,0.0082910758715273,,0.04,false,lh,2975.316000143066,response,-0.9633172970727744,0.9581979429298413,-1.0674952692306725,0.8472659344792351,1.1499999999999997,-1.0671256222695709,low,high,,ISIC_7381224.JPG,10,ISIC_0067172.JPG,28,26,false,0.31000000000000016,hl,keypress(j),0,false,644059.7999999523,644059.600000143,641067.731,641284.7000000477,641084.284,643867.835,5,600,34,
break,html.Screen,10_33_1,2023-11-30T15:40:20.021Z,,,,,,,,,,,NaN,,,,,,,,low,high,,,,,,,false,,,,,false,644060.2000000477,644060.100000143,,644059.9000000954,,643867.835,5,600,,
break_continue,html.Screen,10_33_2,2023-11-30T15:40:20.022Z,,,,,,,,,,,NaN,,,,,,,,low,high,,,,,,,false,,,,,false,644060.4000000954,644060.2999999523,,644060.2000000477,,643867.835,5,600,,
sequence,flow.Sequence,10_33,2023-11-30T15:40:20.022Z,,,,,,,,,,,2976.015999952331,completion,,,,,,,low,high,,,,,,,false,,,,,false,644060.5,644060.2999999523,641067.731,641284.600000143,641084.284,643867.835,5,600,,
trial,html.Screen,10_34_0,2023-11-30T15:40:22.893Z,,,,1,0.0076984477620101,0.0069458408496562,,0.04,false,hh,3064.1650000000373,response,1.0659165756604234,0.9581979429298413,-1.0674952692306725,1.0867497316848906,1.1499999999999997,-1.0671256222695709,high,high,,ISIC_0000434.JPG,8,ISIC_5807608.JPG,28,28,false,0.12,ll,keypress(f),0,false,646932.2000000477,646932,643851.071,644060.600000143,643867.835,646734.266,5,600,35,
break,html.Screen,10_34_1,2023-11-30T15:40:22.894Z,,,,,,,,,,,NaN,,,,,,,,high,high,,,,,,,false,,,,,false,646932.7999999523,646932.7000000477,,646932.4000000954,,646734.266,5,600,,
break_continue,html.Screen,10_34_2,2023-11-30T15:40:22.895Z,,,,,,,,,,,NaN,,,,,,,,high,high,,,,,,,false,,,,,false,646933.2999999523,646933.100000143,,646933,,646734.266,5,600,,
sequence,flow.Sequence,10_34,2023-11-30T15:40:22.895Z,,,,,,,,,,,3065.2650001430884,completion,,,,,,,high,high,,,,,,,false,,,,,false,646933.5,646933.100000143,643851.071,644060.600000143,643867.835,646734.266,5,600,,
trial,html.Screen,10_35_0,2023-11-30T15:40:25.845Z,,,,1,0.0367706518941078,-0.0161069838272154,,0.04,false,lh,3149.5339999523712,response,-0.9662688541319592,0.9581979429298413,-1.0674952692306725,0.929746784178986,1.1499999999999997,-1.0671256222695709,low,high,,ISIC_0033419.JPG,9,ISIC_0011077.JPG,28,26,false,0.31000000000000016,ll,keypress(f),0,false,649883.9000000954,649883.7999999523,646717.483,646933.600000143,646734.266,649684.262,5,600,36,
break,html.Screen,10_35_1,2023-11-30T15:40:25.845Z,,,,,,,,,,,NaN,,,,,,,,low,high,,,,,,,false,,,,,false,649884.2000000477,649884.100000143,,649884,,649684.262,5,600,,
break_continue,html.Screen,10_35_2,2023-11-30T15:40:25.846Z,,,,,,,,,,,NaN,,,,,,,,low,high,,,,,,,false,,,,,false,649884.4000000954,649884.2999999523,,649884.2000000477,,649684.262,5,600,,
sequence,flow.Sequence,10_35,2023-11-30T15:40:25.846Z,,,,,,,,,,,3150.0339999523712,completion,,,,,,,low,high,,,,,,,false,,,,,false,649884.4000000954,649884.2999999523,646717.483,646933.600000143,646734.266,649684.262,5,600,,
trial,html.Screen,10_36_0,2023-11-30T15:40:31.629Z,,,,1,0.0257631352671967,0.0202837002774028,,0.04,false,hl,5983.537999952328,response,0.7010101889216934,0.9581979429298413,-1.0674952692306725,-0.9022783418178474,1.1499999999999997,-1.0671256222695709,high,low,,ISIC_0032797.JPG,9,ISIC_0057858.JPG,28,27,false,0.28000000000000014,lh,keypress(e),0,false,655668,655667.7999999523,649667.724,649884.4000000954,649684.262,655467.622,5,600,37,
break,html.Screen,10_36_1,2023-11-30T15:40:31.629Z,,,,,,,,,,,NaN,,,,,,,,high,low,,,,,,,false,,,,,false,655668.2999999523,655668.2000000477,,655668.100000143,,655467.622,5,600,,
break_continue,html.Screen,10_36_2,2023-11-30T15:40:31.630Z,,,,,,,,,,,NaN,,,,,,,,high,low,,,,,,,false,,,,,false,655668.600000143,655668.5,,655668.4000000954,,655467.622,5,600,,
sequence,flow.Sequence,10_36,2023-11-30T15:40:31.630Z,,,,,,,,,,,5984.238000000012,completion,,,,,,,high,low,,,,,,,false,,,,,false,655668.600000143,655668.5,649667.724,649884.4000000954,649684.262,655467.622,5,600,,
trial,html.Screen,10_37_0,2023-11-30T15:40:43.933Z,,,,1,-0.0241900387072296,0.0339955304424736,,0.04,true,hl,12504.177999952342,response,0.8513427412482127,0.9581979429298413,-1.0674952692306725,-0.9295303568095064,1.1499999999999997,-1.0671256222695709,high,low,,ISIC_0010789.JPG,10,ISIC_0034164.JPG,28,27,false,0.28000000000000014,hl,keypress(j),0,false,667971.9000000954,667971.7999999523,655450.989,655668.7000000477,655467.622,667767.628,5,600,38,
break,html.Screen,10_37_1,2023-11-30T15:40:43.934Z,,,,,,,,,,,NaN,,,,,,,,high,low,,,,,,,false,,,,,false,667972.2000000477,667972.2000000477,,667972,,667767.628,5,600,,
break_continue,html.Screen,10_37_2,2023-11-30T15:40:43.934Z,,,,,,,,,,,NaN,,,,,,,,high,low,,,,,,,false,,,,,false,667972.4000000954,667972.2999999523,,667972.2000000477,,667767.628,5,600,,
sequence,flow.Sequence,10_37,2023-11-30T15:40:43.934Z,,,,,,,,,,,12504.677999952342,completion,,,,,,,high,low,,,,,,,false,,,,,false,667972.5,667972.2999999523,655450.989,655668.7000000477,655467.622,667767.628,5,600,,
