sender,sender_type,sender_id,timestamp,meta,,age,blockNo,c1,c2,condition,control_tolerance,correct,correctResponse,duration,ended_on,f1,f1_high,f1_low,f2,f2_high,f2_low,feature_level1,feature_level2,gender,img_left,img_reveal,img_right,n_control_images,n_target_images,practice,range_tolerance,response,response_action,selection_duration,staircase,time_commit,time_end,time_render,time_run,time_show,time_switch,total_blocks,total_trials,trialNo,url
informed_consent,html.Screen,0,2023-11-30T16:27:55.845Z,"{""labjs_version"":""20.2.4"",""labjs_build"":{""flavor"":""development"",""commit"":""f5b4a49f956347addd546a832a3327688c2c0fef""},""location"":""https://labjs.felixhenninger.com/api/labjs_preview/index.html"",""userAgent"":""Mozilla/5.0 (Windows NT 10.0; Win64; x64) AppleWebKit/537.36 (KHTML, like Gecko) Chrome/119.0.0.0 Safari/537.36"",""platform"":""Win32"",""language"":""en-US"",""locale"":""en-US"",""timeZone"":""America/Chicago"",""timezoneOffset"":360,""screen_width"":1680,""screen_height"":1050,""scroll_width"":825,""scroll_height"":888,""window_innerWidth"":825,""window_innerHeight"":936,""devicePixelRatio"":1}",,,,,,,,,,20922.63100014305,response,,,,,,,,,,,,,,,,,consent,click button,,,21645.900000095367,21635.60000014305,696.274,683.2000000476837,712.969,21636.903,,,,{}
Demography form,html.Form,1,2023-11-30T16:28:08.076Z,,,18,,,,,,,,12239.797000047685,form submission,,,,,,,,,male,,,,,,,,,,,,33876.90000009537,33876.700000047684,21620.236,21646,21636.903,33894.324,,,,
Welcome,html.Screen,2,2023-11-30T16:28:35.564Z,,,,,,,"[""asym"",""col""]",,,,27469.476000190734,response,,,,,,,,,,,,,,,,,continue,click button,,,61364.40000009537,61363.800000190735,33877.369,33877.10000014305,33894.324,61364.149,,,,
demo_instructions,html.Screen,3,2023-11-30T16:28:47.340Z,,,,,,,,,,,11775.451000143054,response,,,,,,,,,,,,,,,,,continue,click button,,,73140.10000014305,73139.60000014305,61347.514,61364.60000014305,61364.149,73153.731,,,,
trial,html.Screen,4_0_0,2023-11-30T16:28:56.265Z,,,,0,-1.2315945866020412,-1.13226141421557,,,true,hh,8911.469000047684,response,1.301795918505203,1.2,-1.2,1.0518606632781424,1.2,-1.2,high,high,,ISIC_0033595.JPG,,ISIC_0027666.JPG,,25,true,0.15000000000000002,hh,keypress(i),100,false,82065.40000009537,82065.20000004768,73137.056,73140.20000004768,73153.731,82087.99,1,16,1,
sequence,flow.Sequence,4_0,2023-11-30T16:28:56.266Z,,,,,,,,,,,8911.469000047684,completion,,,,,,,high,high,,,,,,,true,,,,,false,82065.70000004768,82065.20000004768,73137.056,73140.20000004768,73153.731,82087.99,1,16,,
trial,html.Screen,4_1_0,2023-11-30T16:29:00.578Z,,,,0,-1.1671212908494544,-1.1286681796701683,,,true,hh,4289.509999999995,response,1.1217390688497193,1.2,-1.2,1.2276600934505035,1.2,-1.2,high,high,,ISIC_0065022.JPG,,ISIC_0026344.JPG,,25,true,0.15000000000000002,hh,keypress(i),100,false,86377.60000014305,86377.5,82071.102,82065.70000004768,82087.99,86396.418,1,16,2,
sequence,flow.Sequence,4_1,2023-11-30T16:29:00.578Z,,,,,,,,,,,4289.509999999995,completion,,,,,,,high,high,,,,,,,true,,,,,false,86377.90000009537,86377.5,82071.102,82065.70000004768,82087.99,86396.418,1,16,,
trial,html.Screen,4_2_0,2023-11-30T16:29:03.801Z,,,,0,-1.189469386514313,-1.3008582067137853,,,true,hh,3204.3820001907297,response,1.3045229691102764,1.2,-1.2,1.1781544075681951,1.2,-1.2,high,high,,ISIC_0010644.JPG,,ISIC_6148533.JPG,,25,true,0.15000000000000002,hh,keypress(i),100,false,89600.90000009537,89600.80000019073,86379.476,86378,86396.418,89619.291,1,16,3,
sequence,flow.Sequence,4_2,2023-11-30T16:29:03.801Z,,,,,,,,,,,3204.3820001907297,completion,,,,,,,high,high,,,,,,,true,,,,,false,89601.20000004768,89600.80000019073,86379.476,86378,86396.418,89619.291,1,16,,
trial,html.Screen,4_3_0,2023-11-30T16:29:06.099Z,,,,0,-1.1474466950560966,-1.173734476257662,,,true,hh,2280.0090001907374,response,1.0885984639975343,1.2,-1.2,1.2042618719491294,1.2,-1.2,high,high,,ISIC_5216586.JPG,,ISIC_0012740.JPG,,25,true,0.15000000000000002,hh,keypress(i),100,false,91899.5,91899.30000019073,89602.412,89601.30000019073,89619.291,91923.733,1,16,4,
sequence,flow.Sequence,4_3,2023-11-30T16:29:06.100Z,,,,,,,,,,,2280.0090001907374,completion,,,,,,,high,high,,,,,,,true,,,,,false,91899.90000009537,91899.30000019073,89602.412,89601.30000019073,89619.291,91923.733,1,16,,
trial,html.Screen,4_4_0,2023-11-30T16:29:13.773Z,,,,0,1.1363600109870835,1.295816345369928,,,true,ll,7649.467000047691,response,-1.1126049058422398,1.2,-1.2,-1.2305421124063929,1.2,-1.2,low,low,,ISIC_0026141.JPG,,ISIC_0071536.JPG,,27,true,0.12,ll,keypress(f),100,false,99573.40000009537,99573.20000004768,91906.945,91900,91923.733,99605.399,1,16,5,
sequence,flow.Sequence,4_4,2023-11-30T16:29:13.773Z,,,,,,,,,,,7649.467000047691,completion,,,,,,,low,low,,,,,,,true,,,,,false,99573.60000014305,99573.20000004768,91906.945,91899.90000009537,91923.733,99605.399,1,16,,
trial,html.Screen,4_5_0,2023-11-30T16:29:22.085Z,,,,0,1.0581281450494728,1.133169116569424,,,true,ll,8279.201000143046,response,-1.0570280672376675,1.2,-1.2,-1.0932046580095067,1.2,-1.2,low,low,,ISIC_5490352.JPG,,ISIC_0061320.JPG,,41,true,0.15000000000000002,ll,keypress(f),100,false,107884.80000019073,107884.60000014305,99588.664,99573.70000004768,99605.399,107904.857,1,16,6,
sequence,flow.Sequence,4_5,2023-11-30T16:29:22.086Z,,,,,,,,,,,8279.201000143046,completion,,,,,,,low,low,,,,,,,true,,,,,false,107885,107884.60000014305,99588.664,99573.70000004768,99605.399,107904.857,1,16,,
trial,html.Screen,4_6_0,2023-11-30T16:29:25.067Z,,,,0,1.1510001454240106,1.132540312667795,,,true,ll,2961.84300004768,response,-1.2974483548597415,1.2,-1.2,-1.2071506593281005,1.2,-1.2,low,low,,ISIC_0009959.JPG,,ISIC_0011007.JPG,,41,true,0.15000000000000002,ll,keypress(f),100,false,110866.90000009537,110866.70000004768,107888.004,107885,107904.857,110893.985,1,16,7,
sequence,flow.Sequence,4_6,2023-11-30T16:29:25.068Z,,,,,,,,,,,2961.84300004768,completion,,,,,,,low,low,,,,,,,true,,,,,false,110867,110866.70000004768,107888.004,107885,107904.857,110893.985,1,16,,
trial,html.Screen,4_7_0,2023-11-30T16:29:28.882Z,,,,0,1.301795918505203,1.0518606632781424,,,true,ll,3787.415000095367,response,-1.2040551955011098,1.2,-1.2,-1.2664651062241792,1.2,-1.2,low,low,,ISIC_0027666.JPG,,ISIC_0068886.JPG,,41,true,0.15000000000000002,ll,keypress(f),100,false,114681.60000014305,114681.40000009537,110877.151,110867.10000014305,110893.985,114701.196,1,16,8,
sequence,flow.Sequence,4_7,2023-11-30T16:29:28.882Z,,,,,,,,,,,3787.415000095367,completion,,,,,,,low,low,,,,,,,true,,,,,false,114681.70000004768,114681.40000009537,110877.151,110867.10000014305,110893.985,114701.196,1,16,,
trial,html.Screen,4_8_0,2023-11-30T16:29:32.053Z,,,,0,1.225025174430573,-0.8422679054456499,,,false,lh,3151.0040000476874,response,-1.2704198237183777,1.2,-1.2,1.138121072015301,1.2,-1.2,low,high,,ISIC_7503950.JPG,,ISIC_0501843.JPG,,26,true,0.3300000000000002,ll,keypress(f),100,false,117852.40000009537,117852.20000004768,114684.536,114681.80000019073,114701.196,117874.273,1,16,9,
sequence,flow.Sequence,4_8,2023-11-30T16:29:32.053Z,,,,,,,,,,,3151.0040000476874,completion,,,,,,,low,high,,,,,,,true,,,,,false,117852.40000009537,117852.20000004768,114684.536,114681.80000019073,114701.196,117874.273,1,16,,
trial,html.Screen,4_9_0,2023-11-30T16:29:37.039Z,,,,0,1.1890109863264902,-0.8867825318561365,,,true,lh,4963.527000190734,response,-0.887838744955182,1.2,-1.2,1.3716210719758812,1.2,-1.2,low,high,,ISIC_0072576.JPG,,ISIC_1488727.JPG,,33,true,0.3600000000000002,lh,keypress(e),100,false,122837.90000009537,122837.80000019073,117857.387,117852.60000014305,117874.273,122867.127,1,16,10,
sequence,flow.Sequence,4_9,2023-11-30T16:29:37.039Z,,,,,,,,,,,4963.527000190734,completion,,,,,,,low,high,,,,,,,true,,,,,false,122838.10000014305,122837.80000019073,117857.387,117852.60000014305,117874.273,122867.127,1,16,,
trial,html.Screen,4_10_0,2023-11-30T16:29:40.395Z,,,,0,1.1224745971429997,-0.8423270217438888,,,true,lh,3326.873000000007,response,-1.1592423187534993,1.2,-1.2,1.067128884093211,1.2,-1.2,low,high,,ISIC_0057032.JPG,,ISIC_6854940.JPG,,33,true,0.3600000000000002,lh,keypress(e),100,false,126194.20000004768,126194,122850.549,122838.20000004768,122867.127,126223.646,1,16,11,
sequence,flow.Sequence,4_10,2023-11-30T16:29:40.395Z,,,,,,,,,,,3326.873000000007,completion,,,,,,,low,high,,,,,,,true,,,,,false,126194.60000014305,126194,122850.549,122838.20000004768,122867.127,126223.646,1,16,,
trial,html.Screen,4_11_0,2023-11-30T16:29:46.383Z,,,,0,0.8779374983479176,-0.9745548032823428,,,true,lh,5959.05400004769,response,-0.8787496315223856,1.2,-1.2,1.3680901203013998,1.2,-1.2,low,high,,ISIC_2991354.JPG,,ISIC_0023811.JPG,,33,true,0.3600000000000002,lh,keypress(e),100,false,132182.80000019073,132182.70000004768,126206.968,126194.70000004768,126223.646,132201.907,1,16,12,
sequence,flow.Sequence,4_11,2023-11-30T16:29:46.384Z,,,,,,,,,,,5959.05400004769,completion,,,,,,,low,high,,,,,,,true,,,,,false,132183.10000014305,132182.70000004768,126206.968,126194.70000004768,126223.646,132201.907,1,16,,
trial,html.Screen,4_12_0,2023-11-30T16:29:55.090Z,,,,0,-0.8787496315223856,1.3680901203013998,,,true,hl,8687.393000190728,response,0.8479396253253069,1.2,-1.2,-1.011054319516718,1.2,-1.2,high,low,,ISIC_0023811.JPG,,ISIC_0063521.JPG,,29,true,0.3600000000000002,hl,keypress(j),100,false,140889.5,140889.30000019073,132185.235,132183.10000014305,132201.907,140919.119,1,16,13,
sequence,flow.Sequence,4_12,2023-11-30T16:29:55.090Z,,,,,,,,,,,8687.393000190728,completion,,,,,,,high,low,,,,,,,true,,,,,false,140889.80000019073,140889.30000019073,132185.235,132183.10000014305,132201.907,140919.119,1,16,,
trial,html.Screen,4_13_0,2023-11-30T16:30:02.004Z,,,,0,-0.9448560599810628,0.9099421612683488,,,true,hl,6884.281000095361,response,0.9039158082670506,1.2,-1.2,-1.0517562064343149,1.2,-1.2,high,low,,ISIC_9684318.JPG,,ISIC_0015411.JPG,,29,true,0.3600000000000002,hl,keypress(j),100,false,147803.70000004768,147803.40000009537,140902.211,140889.90000009537,140919.119,147832.416,1,16,14,
sequence,flow.Sequence,4_13,2023-11-30T16:30:02.005Z,,,,,,,,,,,6884.281000095361,completion,,,,,,,high,low,,,,,,,true,,,,,false,147803.90000009537,147803.40000009537,140902.211,140889.80000019073,140919.119,147832.416,1,16,,
trial,html.Screen,4_14_0,2023-11-30T16:30:05.436Z,,,,0,-1.1547137855907486,1.0185275168641534,,,true,hl,3402.8840001907374,response,0.8494721812820843,1.2,-1.2,-1.3435429139974266,1.2,-1.2,high,low,,ISIC_7604870.JPG,,ISIC_0033585.JPG,,29,true,0.3600000000000002,hl,keypress(j),100,false,151235.60000014305,151235.30000019073,147815.67,147804,147832.416,151255.66,1,16,15,
sequence,flow.Sequence,4_14,2023-11-30T16:30:05.436Z,,,,,,,,,,,3402.8840001907374,completion,,,,,,,high,low,,,,,,,true,,,,,false,151235.90000009537,151235.30000019073,147815.67,147804,147832.416,151255.66,1,16,,
trial,html.Screen,4_15_0,2023-11-30T16:30:09.634Z,,,,0,-1.296989496412063,1.1425074323097002,,,true,hl,4177.54000004768,response,0.8591294258188253,1.2,-1.2,-0.870797302150167,1.2,-1.2,high,low,,ISIC_6356803.JPG,,ISIC_0055841.JPG,,29,true,0.3600000000000002,hl,keypress(j),100,false,155433.5,155433.20000004768,151238.984,151236,151255.66,155463.881,1,16,16,
sequence,flow.Sequence,4_15,2023-11-30T16:30:09.635Z,,,,,,,,,,,4177.54000004768,completion,,,,,,,high,low,,,,,,,true,,,,,false,155434,155433.20000004768,151238.984,151236,151255.66,155463.881,1,16,,
demonstration_loop,flow.Loop,4,2023-11-30T16:30:09.635Z,,,,,,,,,,,82279.46900004768,completion,,,,,,,,,,,,,,,true,,,,,false,155434.5,155433.20000004768,73137.056,73140.20000004768,73153.731,155463.881,1,16,,
practice_instructions,html.Screen,5,2023-11-30T16:30:28.285Z,,,,,,,,,,,18611.619000000006,response,,,,,,,,,,,,,,,,,continue,click button,,,174083.30000019073,174075.5,155447.178,155434.70000004768,155463.881,174083.378,,,,
trial,html.Screen,6_0_0,2023-11-30T16:30:36.247Z,,,,1,-1.2435042401134029,-1.2939710463315144,,,true,hh,7962.0220000953705,response,1.204229955025689,1.2,-1.2,1.0874249761617445,1.2,-1.2,high,high,,ISIC_0056119.JPG,,ISIC_0056930.JPG,,25,true,0.15000000000000002,hh,keypress(i),0,false,182045.80000019073,182045.40000009537,174066.742,174083.40000009537,174083.378,182065.533,1,40,1,
sequence,flow.Sequence,6_0,2023-11-30T16:30:36.248Z,,,,,,,,,,,7962.0220000953705,completion,,,,,,,high,high,,,,,,,true,,,,,false,182046.30000019073,182045.40000009537,174066.742,174083.40000009537,174083.378,182065.533,1,40,,
trial,html.Screen,6_1_0,2023-11-30T16:30:42.013Z,,,,1,1.0143509683988825,-1.0281980567462463,,,true,lh,5746.267000190739,response,-0.887838744955182,1.2,-1.2,1.3716210719758812,1.2,-1.2,low,high,,ISIC_0062031.JPG,,ISIC_1488727.JPG,,26,true,0.3300000000000002,lh,keypress(e),0,false,187811.90000009537,187811.80000019073,182048.891,182046.5,182065.533,187826.754,1,40,2,
sequence,flow.Sequence,6_1,2023-11-30T16:30:42.013Z,,,,,,,,,,,5746.267000190739,completion,,,,,,,low,high,,,,,,,true,,,,,false,187812,187811.80000019073,182048.891,182046.40000009537,182065.533,187826.754,1,40,,
trial,html.Screen,6_2_0,2023-11-30T16:30:50.334Z,,,,1,-0.9448560599810628,0.9099421612683488,,,true,hl,8305.946000047697,response,0.849847885203758,1.2,-1.2,-0.973447384095442,1.2,-1.2,high,low,,ISIC_9684318.JPG,,ISIC_9612228.JPG,,29,true,0.3600000000000002,hl,keypress(j),0,false,196133,196132.70000004768,187810.221,187812,187826.754,196143.007,1,40,3,
sequence,flow.Sequence,6_2,2023-11-30T16:30:50.335Z,,,,,,,,,,,8305.946000047697,completion,,,,,,,high,low,,,,,,,true,,,,,false,196133.10000014305,196132.70000004768,187810.221,187812,187826.754,196143.007,1,40,,
trial,html.Screen,6_3_0,2023-11-30T16:30:56.629Z,,,,1,-1.1474466950560966,-1.173734476257662,,,true,hh,6284.7930001907225,response,1.1802887330422154,1.2,-1.2,1.0224375154810723,1.2,-1.2,high,high,,ISIC_5216586.JPG,,ISIC_9225640.JPG,,127,true,0.3300000000000002,hh,keypress(i),0,false,202428,202427.80000019073,196126.429,196133.20000004768,196143.007,202455.23,1,40,4,
sequence,flow.Sequence,6_3,2023-11-30T16:30:56.630Z,,,,,,,,,,,6284.7930001907225,completion,,,,,,,high,high,,,,,,,true,,,,,false,202428.10000014305,202427.80000019073,196126.429,196133.20000004768,196143.007,202455.23,1,40,,
trial,html.Screen,6_4_0,2023-11-30T16:31:01.238Z,,,,1,-0.9046170303418553,1.0063426986460375,,,true,hl,4580.7699999999895,response,0.9445114955578736,1.2,-1.2,-1.0054210059625863,1.2,-1.2,high,low,,ISIC_0055759.JPG,,ISIC_0033807.JPG,,29,true,0.3600000000000002,hl,keypress(j),0,false,207036.10000014305,207036,202421.883,202428.30000019073,202455.23,207047.49,1,40,5,
sequence,flow.Sequence,6_4,2023-11-30T16:31:01.238Z,,,,,,,,,,,4580.7699999999895,completion,,,,,,,high,low,,,,,,,true,,,,,false,207036.30000019073,207036,202421.883,202428.20000004768,202455.23,207047.49,1,40,,
trial,html.Screen,6_5_0,2023-11-30T16:31:12.974Z,,,,1,-1.2609895831255231,1.0687377724194886,,,true,hl,11725.310000190744,response,0.9087169856594104,1.2,-1.2,-0.8835647084207277,1.2,-1.2,high,low,,ISIC_1367610.JPG,,ISIC_0000349.JPG,,29,true,0.3600000000000002,hl,keypress(j),0,false,218773.10000014305,218772.80000019073,207030.821,207036.40000009537,207047.49,218787.111,1,40,6,
sequence,flow.Sequence,6_5,2023-11-30T16:31:12.975Z,,,,,,,,,,,11725.310000190744,completion,,,,,,,high,low,,,,,,,true,,,,,false,218773.30000019073,218772.80000019073,207030.821,207036.40000009537,207047.49,218787.111,1,40,,
trial,html.Screen,6_6_0,2023-11-30T16:31:19.966Z,,,,1,-1.194799101954455,-1.2071632388858642,,,true,hh,6977.289000095363,response,1.337727324390105,1.2,-1.2,0.991130212635482,1.2,-1.2,high,high,,ISIC_4347535.JPG,,ISIC_9596388.JPG,,127,true,0.3300000000000002,hh,keypress(i),0,false,225764.60000014305,225764.40000009537,218770.414,218773.40000009537,218787.111,225783.93,1,40,7,
sequence,flow.Sequence,6_6,2023-11-30T16:31:19.966Z,,,,,,,,,,,6977.289000095363,completion,,,,,,,high,high,,,,,,,true,,,,,false,225764.90000009537,225764.40000009537,218770.414,218773.40000009537,218787.111,225783.93,1,40,,
trial,html.Screen,6_7_0,2023-11-30T16:31:24.702Z,,,,1,1.3411487193830047,-1.198640448317381,,,true,lh,4716.670000143058,response,-0.9670240379618178,1.2,-1.2,1.1806404773220665,1.2,-1.2,low,high,,ISIC_3093026.JPG,,ISIC_0002288.JPG,,26,true,0.3300000000000002,lh,keypress(e),0,false,230500.80000019073,230500.60000014305,225750.667,225765,225783.93,230509.768,1,40,8,
sequence,flow.Sequence,6_7,2023-11-30T16:31:24.702Z,,,,,,,,,,,4716.670000143058,completion,,,,,,,low,high,,,,,,,true,,,,,false,230501,230500.60000014305,225750.667,225765,225783.93,230509.768,1,40,,
trial,html.Screen,6_8_0,2023-11-30T16:31:33.799Z,,,,1,1.073296525451802,1.3454282740421717,,,true,ll,9086.532000190724,response,-1.4757481022428036,1.2,-1.2,-1.208510423375335,1.2,-1.2,low,low,,ISIC_5787312.JPG,,ISIC_0046526.JPG,,249,true,0.3600000000000002,ll,keypress(f),0,false,239596.40000009537,239596.30000019073,230493.104,230501.10000014305,230509.768,239610.902,1,40,9,
sequence,flow.Sequence,6_8,2023-11-30T16:31:33.799Z,,,,,,,,,,,9086.532000190724,completion,,,,,,,low,low,,,,,,,true,,,,,false,239596.80000019073,239596.30000019073,230493.104,230501.10000014305,230509.768,239610.902,1,40,,
trial,html.Screen,6_9_0,2023-11-30T16:31:39.447Z,,,,1,-1.2289750544294995,-1.3003764624334877,,,true,hh,5633.498000095366,response,1.1168199061753437,1.2,-1.2,1.212287319329914,1.2,-1.2,high,high,,ISIC_0054167.JPG,,ISIC_5919355.JPG,,25,true,0.15000000000000002,hh,keypress(i),0,false,245244.60000014305,245244.40000009537,239594.221,239596.90000009537,239610.902,245255.129,1,40,10,
sequence,flow.Sequence,6_9,2023-11-30T16:31:39.447Z,,,,,,,,,,,5633.498000095366,completion,,,,,,,high,high,,,,,,,true,,,,,false,245244.70000004768,245244.40000009537,239594.221,239596.90000009537,239610.902,245255.129,1,40,,
trial,html.Screen,6_10_0,2023-11-30T16:31:48.854Z,,,,1,-0.9212323139676136,0.9882196642247332,,,true,hl,9396.771000095381,response,1.0143509683988825,1.2,-1.2,-1.0281980567462463,1.2,-1.2,high,low,,ISIC_0014255.JPG,,ISIC_0062031.JPG,,29,true,0.3600000000000002,hl,keypress(j),0,false,254652,254651.90000009537,245238.515,245244.80000019073,245255.129,254656.739,1,40,11,
sequence,flow.Sequence,6_10,2023-11-30T16:31:48.854Z,,,,,,,,,,,9396.771000095381,completion,,,,,,,high,low,,,,,,,true,,,,,false,254652.20000004768,254651.90000009537,245238.515,245244.70000004768,245255.129,254656.739,1,40,,
trial,html.Screen,6_11_0,2023-11-30T16:31:55.134Z,,,,1,0.9445114955578736,-1.0054210059625863,,,true,lh,6275.36100014305,response,-1.0748728054622358,1.2,-1.2,1.2840853987892311,1.2,-1.2,low,high,,ISIC_0033807.JPG,,ISIC_0059219.JPG,,26,true,0.3300000000000002,lh,keypress(e),0,false,260932.30000019073,260932.10000014305,254639.931,254652.20000004768,254656.739,260935.617,1,40,12,
sequence,flow.Sequence,6_11,2023-11-30T16:31:55.135Z,,,,,,,,,,,6275.36100014305,completion,,,,,,,low,high,,,,,,,true,,,,,false,260932.40000009537,260932.10000014305,254639.931,254652.20000004768,254656.739,260935.617,1,40,,
trial,html.Screen,6_12_0,2023-11-30T16:32:02.646Z,,,,1,0.9445114955578736,-1.0054210059625863,,,true,lh,7508.483000143053,response,-0.9873794329144926,1.2,-1.2,0.9500689037516484,1.2,-1.2,low,high,,ISIC_0033807.JPG,,ISIC_0013498.JPG,,33,true,0.3600000000000002,lh,keypress(e),0,false,268444.2000000477,268444.10000014305,260919.093,260932.5,260935.617,268450.246,1,40,13,
sequence,flow.Sequence,6_12,2023-11-30T16:32:02.646Z,,,,,,,,,,,7508.483000143053,completion,,,,,,,low,high,,,,,,,true,,,,,false,268444.40000009537,268444.10000014305,260919.093,260932.5,260935.617,268450.246,1,40,,
trial,html.Screen,6_13_0,2023-11-30T16:32:06.798Z,,,,1,-1.2872758518949912,-1.313723254903214,,,true,hh,4145.754000000015,response,0.8529242055711017,1.2,-1.2,1.0761216763182415,1.2,-1.2,high,high,,ISIC_0064376.JPG,,ISIC_8169564.JPG,,157,true,0.3600000000000002,hh,keypress(i),0,false,272596.10000014305,272596,268433.703,268444.5,268450.246,272608.337,1,40,14,
sequence,flow.Sequence,6_13,2023-11-30T16:32:06.798Z,,,,,,,,,,,4145.754000000015,completion,,,,,,,high,high,,,,,,,true,,,,,false,272596.2000000477,272596,268433.703,268444.5,268450.246,272608.337,1,40,,
trial,html.Screen,6_14_0,2023-11-30T16:32:11.998Z,,,,1,-1.1392234684115472,-1.3198277407683998,,,true,hh,5187.363000047684,response,1.1168199061753437,1.2,-1.2,1.212287319329914,1.2,-1.2,high,high,,ISIC_0071875.JPG,,ISIC_5919355.JPG,,25,true,0.15000000000000002,hh,keypress(i),0,false,277795.80000019073,277795.7000000477,272591.839,272596.30000019073,272608.337,277818.462,1,40,15,
sequence,flow.Sequence,6_14,2023-11-30T16:32:11.998Z,,,,,,,,,,,5187.363000047684,completion,,,,,,,high,high,,,,,,,true,,,,,false,277795.90000009537,277795.7000000477,272591.839,272596.30000019073,272608.337,277818.462,1,40,,
trial,html.Screen,6_15_0,2023-11-30T16:32:18.886Z,,,,1,1.411763789273233,-1.0057734478347988,,,true,lh,6865.5380000000005,response,-1.082730232773217,1.2,-1.2,0.8833175387485132,1.2,-1.2,low,high,,ISIC_0027235.JPG,,ISIC_0011933.JPG,,26,true,0.3300000000000002,lh,keypress(e),0,false,284684.2000000477,284684,277785.14,277796,277818.462,284698.518,1,40,16,
sequence,flow.Sequence,6_15,2023-11-30T16:32:18.886Z,,,,,,,,,,,6865.5380000000005,completion,,,,,,,low,high,,,,,,,true,,,,,false,284684.30000019073,284684,277785.14,277795.90000009537,277818.462,284698.518,1,40,,
trial,html.Screen,6_16_0,2023-11-30T16:32:24.246Z,,,,1,1.3045229691102764,1.1781544075681951,,,true,ll,5345.482000000018,response,-0.9304005163834584,1.2,-1.2,-0.9903292668457988,1.2,-1.2,low,low,,ISIC_6148533.JPG,,ISIC_3485482.JPG,,249,true,0.3600000000000002,ll,keypress(f),0,false,290044.10000014305,290044,284682.02,284684.40000009537,284698.518,290059.167,1,40,17,
sequence,flow.Sequence,6_16,2023-11-30T16:32:24.246Z,,,,,,,,,,,5345.482000000018,completion,,,,,,,low,low,,,,,,,true,,,,,false,290044.30000019073,290044,284682.02,284684.40000009537,284698.518,290059.167,1,40,,
trial,html.Screen,6_17_0,2023-11-30T16:32:28.943Z,,,,1,-1.1711612520017805,-1.191169949562454,,,true,hh,4680.733000095352,response,1.204229955025689,1.2,-1.2,1.0874249761617445,1.2,-1.2,high,high,,ISIC_0061936.JPG,,ISIC_0056930.JPG,,25,true,0.15000000000000002,hh,keypress(i),0,false,294740.10000014305,294739.90000009537,290042.418,290044.40000009537,290059.167,294751.543,1,40,18,
sequence,flow.Sequence,6_17,2023-11-30T16:32:28.943Z,,,,,,,,,,,4680.733000095352,completion,,,,,,,high,high,,,,,,,true,,,,,false,294740.2000000477,294739.90000009537,290042.418,290044.40000009537,290059.167,294751.543,1,40,,
trial,html.Screen,6_18_0,2023-11-30T16:32:36.887Z,,,,1,1.2200968917423711,1.3183466064109373,,,true,ll,7932.357000095362,response,-1.189469386514313,1.2,-1.2,-1.3008582067137853,1.2,-1.2,low,low,,ISIC_3624318.JPG,,ISIC_0010644.JPG,,27,true,0.12,ll,keypress(f),0,false,302683.90000009537,302683.90000009537,294734.877,294740.30000019073,294751.543,302700.379,1,40,19,
sequence,flow.Sequence,6_18,2023-11-30T16:32:36.887Z,,,,,,,,,,,7932.357000095362,completion,,,,,,,low,low,,,,,,,true,,,,,false,302684.10000014305,302683.90000009537,294734.877,294740.2000000477,294751.543,302700.379,1,40,,
trial,html.Screen,6_19_0,2023-11-30T16:32:52.885Z,,,,1,-1.1894733304494307,-1.1169761866204877,,,,,16014.451000000001,timeout,1.1217390688497193,1.2,-1.2,1.2276600934505035,1.2,-1.2,high,high,,ISIC_0033813.JPG,,ISIC_0026344.JPG,,25,true,0.15000000000000002,,,0,false,318682.2000000477,318681.90000009537,302683.424,302684.10000014305,302700.379,318714.83,1,40,20,
sequence,flow.Sequence,6_19,2023-11-30T16:32:52.885Z,,,,,,,,,,,15981.521000095352,completion,,,,,,,high,high,,,,,,,true,,,,,false,318682.5,318681.90000009537,302683.424,302684.10000014305,302700.379,318714.83,1,40,,
trial,html.Screen,6_20_0,2023-11-30T16:33:01.287Z,,,,1,1.1727618800748076,1.0636787813411093,,,true,ll,8369.169999999984,response,-1.1474466950560966,1.2,-1.2,-1.173734476257662,1.2,-1.2,low,low,,ISIC_9690371.JPG,,ISIC_5216586.JPG,,27,true,0.12,ll,keypress(f),0,false,327084.10000014305,327084,318697.994,318682.60000014305,318714.83,327097.629,1,40,21,
sequence,flow.Sequence,6_20,2023-11-30T16:33:01.287Z,,,,,,,,,,,8369.169999999984,completion,,,,,,,low,low,,,,,,,true,,,,,false,327084.2000000477,327084,318697.994,318682.60000014305,318714.83,327097.629,1,40,,
trial,html.Screen,6_21_0,2023-11-30T16:33:08.719Z,,,,1,1.2838089642212804,-0.8550527900640753,,,true,lh,7418.471000143036,response,-0.9873794329144926,1.2,-1.2,0.9500689037516484,1.2,-1.2,low,high,,ISIC_0034187.JPG,,ISIC_0013498.JPG,,26,true,0.3300000000000002,lh,keypress(e),0,false,334516.2000000477,334516.10000014305,327080.972,327084.30000019073,327097.629,334528.763,1,40,22,
sequence,flow.Sequence,6_21,2023-11-30T16:33:08.719Z,,,,,,,,,,,7418.471000143036,completion,,,,,,,low,high,,,,,,,true,,,,,false,334516.40000009537,334516.10000014305,327080.972,327084.30000019073,327097.629,334528.763,1,40,,
trial,html.Screen,6_22_0,2023-11-30T16:33:14.552Z,,,,1,1.1642596483638106,1.091507924157762,,,true,ll,5820.13700009539,response,-1.295560104927772,1.2,-1.2,-0.9897645979422992,1.2,-1.2,low,low,,ISIC_0765584.JPG,,ISIC_0280912.JPG,,249,true,0.3600000000000002,ll,keypress(f),0,false,340349.2000000477,340348.90000009537,334511.994,334516.40000009537,334528.763,340390.161,1,40,23,
sequence,flow.Sequence,6_22,2023-11-30T16:33:14.552Z,,,,,,,,,,,5820.13700009539,completion,,,,,,,low,low,,,,,,,true,,,,,false,340349.7000000477,340348.90000009537,334511.994,334516.40000009537,334528.763,340390.161,1,40,,
trial,html.Screen,6_23_0,2023-11-30T16:33:19.423Z,,,,1,-1.1592423187534993,1.067128884093211,,,true,hl,4829.838999999978,response,1.0143509683988825,1.2,-1.2,-1.0281980567462463,1.2,-1.2,high,low,,ISIC_6854940.JPG,,ISIC_0062031.JPG,,29,true,0.3600000000000002,hl,keypress(j),0,false,345220,345220,340340.2,340349.90000009537,340390.161,345232.886,1,40,24,
sequence,flow.Sequence,6_23,2023-11-30T16:33:19.423Z,,,,,,,,,,,4829.838999999978,completion,,,,,,,high,low,,,,,,,true,,,,,false,345220.2000000477,345220,340340.2,340349.80000019073,340390.161,345232.886,1,40,,
trial,html.Screen,6_24_0,2023-11-30T16:33:25.399Z,,,,1,-1.082730232773217,0.8833175387485132,,,true,hl,5963.614000000001,response,0.9445114955578736,1.2,-1.2,-1.0054210059625863,1.2,-1.2,high,low,,ISIC_0011933.JPG,,ISIC_0033807.JPG,,29,true,0.3600000000000002,hl,keypress(j),0,false,351196.7000000477,351196.5,345216.381,345220.2000000477,345232.886,351211.201,1,40,25,
sequence,flow.Sequence,6_24,2023-11-30T16:33:25.400Z,,,,,,,,,,,5963.614000000001,completion,,,,,,,high,low,,,,,,,true,,,,,false,351197.40000009537,351196.5,345216.381,345220.2000000477,345232.886,351211.201,1,40,,
trial,html.Screen,6_25_0,2023-11-30T16:33:32.655Z,,,,1,-0.8709576717420565,1.2795156779072283,,,true,hl,7240.798999999999,response,1.3515962101204746,1.2,-1.2,-0.8414583575292955,1.2,-1.2,high,low,,ISIC_1925632.JPG,,ISIC_0274382.JPG,,29,true,0.3600000000000002,hl,keypress(j),0,false,358452.2000000477,358452,351194.595,351197.5,351211.201,358458.627,1,40,26,
sequence,flow.Sequence,6_25,2023-11-30T16:33:32.655Z,,,,,,,,,,,7240.798999999999,completion,,,,,,,high,low,,,,,,,true,,,,,false,358452.30000019073,358452,351194.595,351197.5,351211.201,358458.627,1,40,,
trial,html.Screen,6_26_0,2023-11-30T16:33:37.807Z,,,,1,-0.8709576717420565,1.2795156779072283,,,true,hl,5145.673000190756,response,1.1890109863264902,1.2,-1.2,-0.8867825318561365,1.2,-1.2,high,low,,ISIC_1925632.JPG,,ISIC_0072576.JPG,,29,true,0.3600000000000002,hl,keypress(j),0,false,363604.5,363604.30000019073,358442,358452.40000009537,358458.627,363618.829,1,40,27,
sequence,flow.Sequence,6_26,2023-11-30T16:33:37.807Z,,,,,,,,,,,5145.673000190756,completion,,,,,,,high,low,,,,,,,true,,,,,false,363604.7000000477,363604.30000019073,358442,358452.30000019073,358458.627,363618.829,1,40,,
trial,html.Screen,6_27_0,2023-11-30T16:33:43.343Z,,,,1,1.1363600109870835,1.295816345369928,,,true,ll,5521.271000143024,response,-1.1715181192107684,1.2,-1.2,-1.2251845559044463,1.2,-1.2,low,low,,ISIC_0026141.JPG,,ISIC_0011957.JPG,,211,true,0.3300000000000002,ll,keypress(f),0,false,369140.2000000477,369140.10000014305,363602.04,363604.90000009537,363618.829,369146.075,1,40,28,
sequence,flow.Sequence,6_27,2023-11-30T16:33:43.343Z,,,,,,,,,,,5521.271000143024,completion,,,,,,,low,low,,,,,,,true,,,,,false,369140.30000019073,369140.10000014305,363602.04,363604.90000009537,363618.829,369146.075,1,40,,
trial,html.Screen,6_28_0,2023-11-30T16:33:49.174Z,,,,1,1.294521945180264,1.3078626540563885,,,true,ll,5825.625000047672,response,-1.2974483548597415,1.2,-1.2,-1.2071506593281005,1.2,-1.2,low,low,,ISIC_3601224.JPG,,ISIC_0011007.JPG,,41,true,0.15000000000000002,ll,keypress(f),0,false,374971.80000019073,374971.7000000477,369129.393,369140.40000009537,369146.075,374974.084,1,40,29,
sequence,flow.Sequence,6_28,2023-11-30T16:33:49.175Z,,,,,,,,,,,5825.625000047672,completion,,,,,,,low,low,,,,,,,true,,,,,false,374971.90000009537,374971.7000000477,369129.393,369140.40000009537,369146.075,374974.084,1,40,,
trial,html.Screen,6_29_0,2023-11-30T16:33:53.672Z,,,,1,1.1168199061753437,1.212287319329914,,,true,ll,4494.716000190761,response,-1.1320017221158485,1.2,-1.2,-1.065213496692536,1.2,-1.2,low,low,,ISIC_5919355.JPG,,ISIC_0030597.JPG,,41,true,0.15000000000000002,ll,keypress(f),0,false,379469.10000014305,379468.80000019073,374957.407,374971.90000009537,374974.084,379482.985,1,40,30,
sequence,flow.Sequence,6_29,2023-11-30T16:33:53.672Z,,,,,,,,,,,4494.716000190761,completion,,,,,,,low,low,,,,,,,true,,,,,false,379469.5,379468.80000019073,374957.407,374971.90000009537,374974.084,379482.985,1,40,,
trial,html.Screen,6_30_0,2023-11-30T16:34:04.880Z,,,,1,-1.2059606637811695,-1.214966446488752,,,true,hh,11193.415000095381,response,1.1655508270784471,1.2,-1.2,1.1162776063248168,1.2,-1.2,high,high,,ISIC_0013334.JPG,,ISIC_5509946.JPG,,25,true,0.15000000000000002,hh,keypress(i),0,false,390676.7000000477,390676.40000009537,379466.332,379469.60000014305,379482.985,390687.976,1,40,31,
sequence,flow.Sequence,6_30,2023-11-30T16:34:04.880Z,,,,,,,,,,,11193.415000095381,completion,,,,,,,high,high,,,,,,,true,,,,,false,390677.2000000477,390676.40000009537,379466.332,379469.60000014305,379482.985,390687.976,1,40,,
trial,html.Screen,6_31_0,2023-11-30T16:34:11.687Z,,,,1,1.00615481805876,-0.8428903771195875,,,true,lh,6796.523999999976,response,-1.052305774554686,1.2,-1.2,1.3940181224717798,1.2,-1.2,low,high,,ISIC_0069970.JPG,,ISIC_4175400.JPG,,26,true,0.3300000000000002,lh,keypress(e),0,false,397484.60000014305,397484.5,390671.413,390677.30000019073,390687.976,397501.192,1,40,32,
sequence,flow.Sequence,6_31,2023-11-30T16:34:11.688Z,,,,,,,,,,,6796.523999999976,completion,,,,,,,low,high,,,,,,,true,,,,,false,397484.90000009537,397484.5,390671.413,390677.30000019073,390687.976,397501.192,1,40,,
trial,html.Screen,6_32_0,2023-11-30T16:34:16.855Z,,,,1,-1.2609895831255231,1.0687377724194886,,,true,hl,5150.808000000019,response,1.3411487193830047,1.2,-1.2,-1.198640448317381,1.2,-1.2,high,low,,ISIC_1367610.JPG,,ISIC_3093026.JPG,,29,true,0.3600000000000002,hl,keypress(j),0,false,402652,402652,397484.568,397485,397501.192,402661.328,1,40,33,
sequence,flow.Sequence,6_32,2023-11-30T16:34:16.855Z,,,,,,,,,,,5150.808000000019,completion,,,,,,,high,low,,,,,,,true,,,,,false,402652.2000000477,402652,397484.568,397485,397501.192,402661.328,1,40,,
trial,html.Screen,6_33_0,2023-11-30T16:34:23.055Z,,,,1,1.301795918505203,1.0518606632781424,,,true,ll,6190.772000143072,response,-1.02958055269592,1.2,-1.2,-1.159278377691306,1.2,-1.2,low,low,,ISIC_0027666.JPG,,ISIC_0027190.JPG,,211,true,0.3300000000000002,ll,keypress(f),0,false,408852.2000000477,408852.10000014305,402644.768,402652.30000019073,402661.328,408856.676,1,40,34,
sequence,flow.Sequence,6_33,2023-11-30T16:34:23.055Z,,,,,,,,,,,6190.772000143072,completion,,,,,,,low,low,,,,,,,true,,,,,false,408852.5,408852.10000014305,402644.768,402652.30000019073,402661.328,408856.676,1,40,,
trial,html.Screen,6_34_0,2023-11-30T16:34:27.544Z,,,,1,1.0581281450494728,1.133169116569424,,,true,ll,4483.72400009539,response,-1.1671212908494544,1.2,-1.2,-1.1286681796701683,1.2,-1.2,low,low,,ISIC_5490352.JPG,,ISIC_0065022.JPG,,41,true,0.15000000000000002,ll,keypress(f),0,false,413340.60000014305,413340.40000009537,408840.042,408852.7000000477,408856.676,413348.756,1,40,35,
sequence,flow.Sequence,6_34,2023-11-30T16:34:27.545Z,,,,,,,,,,,4483.72400009539,completion,,,,,,,low,low,,,,,,,true,,,,,false,413341,413340.40000009537,408840.042,408852.60000014305,408856.676,413348.756,1,40,,
trial,html.Screen,6_35_0,2023-11-30T16:34:29.761Z,,,,1,-1.238264833797662,-1.176099940770289,,,true,hh,2207.6440000953735,response,1.294521945180264,1.2,-1.2,1.3078626540563885,1.2,-1.2,high,high,,ISIC_0032861.JPG,,ISIC_3601224.JPG,,25,true,0.15000000000000002,hh,keypress(i),0,false,415556.7000000477,415556.40000009537,413332.103,413341.10000014305,413348.756,415603.101,1,40,36,
sequence,flow.Sequence,6_35,2023-11-30T16:34:29.761Z,,,,,,,,,,,2207.6440000953735,completion,,,,,,,high,high,,,,,,,true,,,,,false,415557.10000014305,415556.40000009537,413332.103,413341,413348.756,415603.101,1,40,,
trial,html.Screen,6_36_0,2023-11-30T16:34:38.784Z,,,,1,1.11329866545753,-1.2155631217348757,,,true,lh,8976.898999999976,response,-0.9225524349657857,1.2,-1.2,0.929746784178986,1.2,-1.2,low,high,,ISIC_0032610.JPG,,ISIC_0011077.JPG,,26,true,0.3300000000000002,lh,keypress(e),0,false,424580.10000014305,424580,415553.134,415557.30000019073,415603.101,424587.229,1,40,37,
sequence,flow.Sequence,6_36,2023-11-30T16:34:38.784Z,,,,,,,,,,,8976.898999999976,completion,,,,,,,low,high,,,,,,,true,,,,,false,424580.30000019073,424580,415553.134,415557.30000019073,415603.101,424587.229,1,40,,
trial,html.Screen,6_37_0,2023-11-30T16:34:43.785Z,,,,1,1.2838089642212804,-0.8550527900640753,,,true,lh,4993.371000143059,response,-0.8561946552009824,1.2,-1.2,0.9282171889213044,1.2,-1.2,low,high,,ISIC_0034187.JPG,,ISIC_3065032.JPG,,33,true,0.3600000000000002,lh,keypress(e),0,false,429580.80000019073,429580.60000014305,424570.496,424580.30000019073,424587.229,429596.987,1,40,38,
sequence,flow.Sequence,6_37,2023-11-30T16:34:43.785Z,,,,,,,,,,,4993.371000143059,completion,,,,,,,low,high,,,,,,,true,,,,,false,429581.10000014305,429580.60000014305,424570.496,424580.30000019073,424587.229,429596.987,1,40,,
trial,html.Screen,6_38_0,2023-11-30T16:34:49.608Z,,,,1,-1.0961318727760048,1.2134960228256146,,,true,hl,5806.913000095345,response,1.3559315773956395,1.2,-1.2,-0.924768326187701,1.2,-1.2,high,low,,ISIC_9768421.JPG,,ISIC_5101111.JPG,,29,true,0.3600000000000002,hl,keypress(j),0,false,435404.10000014305,435403.90000009537,429580.439,429581.30000019073,429596.987,435408.274,1,40,39,
sequence,flow.Sequence,6_38,2023-11-30T16:34:49.608Z,,,,,,,,,,,5806.913000095345,completion,,,,,,,high,low,,,,,,,true,,,,,false,435404.2000000477,435403.90000009537,429580.439,429581.2000000477,429596.987,435408.274,1,40,,
trial,html.Screen,6_39_0,2023-11-30T16:34:54.416Z,,,,1,0.8534691366511764,-1.276663727068437,,,true,lh,4803.426000047708,response,-1.0700930503975157,1.2,-1.2,0.923753102263735,1.2,-1.2,low,high,,ISIC_0056788.JPG,,ISIC_0000022.JPG,,26,true,0.3300000000000002,lh,keypress(e),0,false,440211.80000019073,440211.7000000477,435391.769,435404.2000000477,435408.274,440217.635,1,40,40,
sequence,flow.Sequence,6_39,2023-11-30T16:34:54.416Z,,,,,,,,,,,4803.426000047708,completion,,,,,,,low,high,,,,,,,true,,,,,false,440211.90000009537,440211.7000000477,435391.769,435404.2000000477,435408.274,440217.635,1,40,,
practice_loop,flow.Loop,6,2023-11-30T16:34:54.416Z,,,,,,,,,,,266128.32200004766,completion,,,,,,,,,,,,,,,true,,,,,false,440212,440211.7000000477,174066.742,174083.40000009537,174083.378,440217.635,1,40,,
stair_instructions,html.Screen,7,2023-11-30T16:35:33.976Z,,,,,,,,,,,39553.565000047674,response,,,,,,,,,,,,,,,,,continue,click button,,,479771.60000014305,479771.2000000477,440200.96,440212.10000014305,440217.635,479777.904,,,,
trial,html.Screen,8_0_0,2023-11-30T16:35:44.216Z,,,,2,-0.0050679133050021,-0.0174815595031679,,0.04,true,ll,10233.996000095387,response,-0.934130994804294,1.2,-1.2,-1.110086733022912,1.2,-1.2,low,low,,ISIC_9848743.JPG,,ISIC_0053916.JPG,28,249,false,0.3600000000000002,ll,keypress(f),0,true,490012,490011.90000009537,479761.203,479771.80000019073,479777.904,490031.13,1,40,1,
sequence,flow.Sequence,8_0,2023-11-30T16:35:44.216Z,,,,,,,,,,,10233.996000095387,completion,,,,,,,low,low,,,,,,,false,,,,,true,490012.2000000477,490011.90000009537,479761.203,479771.80000019073,479777.904,490031.13,1,40,,
trial,html.Screen,8_1_0,2023-11-30T16:35:49.041Z,,,,2,0.0199897690678184,0.0312486875504497,,0.04,true,hl,4805.570000047679,response,1.2838089642212804,1.15,-1.15,-0.8550527900640753,1.15,-1.15,high,low,,ISIC_5482426.JPG,,ISIC_0034187.JPG,28,27,false,0.31000000000000016,hl,keypress(j),0,true,494836.90000009537,494836.7000000477,490014.48,490012.2000000477,490031.13,494840.585,1,40,2,
sequence,flow.Sequence,8_1,2023-11-30T16:35:49.041Z,,,,,,,,,,,4805.570000047679,completion,,,,,,,high,low,,,,,,,false,,,,,true,494837.2000000477,494836.7000000477,490014.48,490012.2000000477,490031.13,494840.585,1,40,,
trial,html.Screen,8_2_0,2023-11-30T16:35:52.073Z,,,,2,-0.0050679133050021,-0.0174815595031679,,0.04,true,hh,3028.1150000476628,response,1.1638334638021437,1.15,-1.15,1.0846635401396965,1.15,-1.0999999999999999,high,high,,ISIC_9848743.JPG,,ISIC_4718313.JPG,28,26,false,0.14,hh,keypress(i),0,true,497868.80000019073,497868.7000000477,494823.912,494837.40000009537,494840.585,497879.802,1,40,3,
sequence,flow.Sequence,8_2,2023-11-30T16:35:52.073Z,,,,,,,,,,,3028.1150000476628,completion,,,,,,,high,high,,,,,,,false,,,,,true,497869.2000000477,497868.7000000477,494823.912,494837.30000019073,494840.585,497879.802,1,40,,
trial,html.Screen,8_3_0,2023-11-30T16:35:56.689Z,,,,2,-0.0350697500805515,-0.0166617848231997,,0.04,true,hh,4604.398000047659,response,1.0730492496332733,1.07424850197092,-1.15,1.0252626598876022,1.15,-1.0999999999999999,high,high,,ISIC_0024423.JPG,,ISIC_0007029.JPG,28,31,false,0.13,hh,keypress(i),0,true,502484.30000019073,502484.2000000477,497863.19,497869.2000000477,497879.802,502488.758,1,40,4,
sequence,flow.Sequence,8_3,2023-11-30T16:35:56.689Z,,,,,,,,,,,4604.398000047659,completion,,,,,,,high,high,,,,,,,false,,,,,true,502484.5,502484.2000000477,497863.19,497869.2000000477,497879.802,502488.758,1,40,,
trial,html.Screen,8_4_0,2023-11-30T16:36:01.984Z,,,,2,-0.0050679133050021,-0.0174815595031679,,0.04,true,hl,5291.042000190762,response,0.8494721812820843,1.07424850197092,-1.15,-1.3435429139974266,0.9991559547604376,-1.0999999999999999,high,low,,ISIC_9848743.JPG,,ISIC_0033585.JPG,28,25,false,0.2600000000000001,hl,keypress(j),0,true,507779.90000009537,507779.80000019073,502472.254,502484.7000000477,502488.758,507782.358,1,40,5,
sequence,flow.Sequence,8_4,2023-11-30T16:36:01.984Z,,,,,,,,,,,5291.042000190762,completion,,,,,,,high,low,,,,,,,false,,,,,true,507780.10000014305,507779.80000019073,502472.254,502484.60000014305,502488.758,507782.358,1,40,,
trial,html.Screen,8_5_0,2023-11-30T16:36:07.016Z,,,,2,0.0367218428225813,-0.0026956749740767,,0.04,true,hl,5029.54200009536,response,0.8644465729542988,1.02424850197092,-1.15,-0.8679598285079457,0.9991559547604376,-1.0999999999999999,high,low,,ISIC_7212271.JPG,,ISIC_6718969.JPG,28,25,false,0.2500000000000001,hl,keypress(j),0,true,512812,512811.90000009537,507765.644,507780.10000014305,507782.358,512825.516,1,40,6,
sequence,flow.Sequence,8_5,2023-11-30T16:36:07.016Z,,,,,,,,,,,5029.54200009536,completion,,,,,,,high,low,,,,,,,false,,,,,true,512812.2000000477,512811.90000009537,507765.644,507780.10000014305,507782.358,512825.516,1,40,,
trial,html.Screen,8_6_0,2023-11-30T16:36:12.768Z,,,,2,-0.0166849894750452,0.0371614812368835,,0.04,true,hl,5738.483999999997,response,0.8129823105338526,1.02424850197092,-1.15,-0.9655386457143784,0.9991559547604376,-1.0499999999999998,high,low,,ISIC_6231450.JPG,,ISIC_8268025.JPG,28,25,false,0.22000000000000008,hl,keypress(j),0,true,518564.2000000477,518564,512808.949,512812.30000019073,512825.516,518570.021,1,40,7,
sequence,flow.Sequence,8_6,2023-11-30T16:36:12.769Z,,,,,,,,,,,5738.483999999997,completion,,,,,,,high,low,,,,,,,false,,,,,true,518564.30000019073,518564,512808.949,512812.2000000477,512825.516,518570.021,1,40,,
trial,html.Screen,8_7_0,2023-11-30T16:36:18.568Z,,,,2,-0.0057914759495055,0.018500200317654,,0.04,true,hh,5793.978999999992,response,0.8854665385930431,0.97424850197092,-1.15,0.9330258572707198,0.9991559547604376,-1.0499999999999998,high,high,,ISIC_0058723.JPG,,ISIC_0026889.JPG,28,27,false,0.1,hh,keypress(i),0,true,524364.100000143,524364,518553.369,518564.40000009537,518570.021,524381.526,1,40,8,
sequence,flow.Sequence,8_7,2023-11-30T16:36:18.568Z,,,,,,,,,,,5793.978999999992,completion,,,,,,,high,high,,,,,,,false,,,,,true,524364.3000001907,524364,518553.369,518564.40000009537,518570.021,524381.526,1,40,,
trial,html.Screen,8_8_0,2023-11-30T16:36:25.448Z,,,,2,0.0189295602385628,0.0128812415435153,,0.04,false,hl,6861.874000095413,response,0.7785184841253222,0.97424850197092,-1.15,-0.8564302235174217,0.9991559547604376,-1.0499999999999998,high,low,,ISIC_0010372.JPG,,ISIC_6529073.JPG,28,29,false,0.22000000000000008,hh,keypress(i),0,true,531243.5,531243.4000000954,524348.107,524364.3000001907,524381.526,531262.044,1,40,9,
sequence,flow.Sequence,8_8,2023-11-30T16:36:25.448Z,,,,,,,,,,,6861.874000095413,completion,,,,,,,high,low,,,,,,,false,,,,,true,531243.600000143,531243.4000000954,524348.107,524364.3000001907,524381.526,531262.044,1,40,,
trial,html.Screen,8_9_0,2023-11-30T16:36:35.561Z,,,,2,0.0189295602385628,0.0128812415435153,,0.04,false,hl,10094.056000143057,response,0.622483341819462,0.805772170698021,-1.15,-1.0756568667434558,0.9991559547604376,-1.0999999999999999,high,low,,ISIC_0010372.JPG,,ISIC_0033333.JPG,28,26,false,0.19000000000000006,ll,keypress(f),0,true,541356.2000000477,541356.100000143,531227.981,531243.600000143,531262.044,541364.348,1,40,10,
sequence,flow.Sequence,8_9,2023-11-30T16:36:35.561Z,,,,,,,,,,,10094.056000143057,completion,,,,,,,high,low,,,,,,,false,,,,,true,541356.3000001907,541356.100000143,531227.981,531243.600000143,531262.044,541364.348,1,40,,
trial,html.Screen,8_10_0,2023-11-30T16:36:38.953Z,,,,2,-0.0050679133050021,-0.0174815595031679,,0.04,true,hh,3383.3520000476856,response,0.8093178584833343,0.855772170698021,-1.15,1.0139833925057518,0.9991559547604376,-1.0999999999999999,high,high,,ISIC_9848743.JPG,,ISIC_6171084.JPG,28,38,false,0.1,hh,keypress(i),0,true,544747.7000000477,544747.7000000477,541347.716,541356.4000000954,541364.348,544754.291,1,40,11,
sequence,flow.Sequence,8_10,2023-11-30T16:36:38.953Z,,,,,,,,,,,3383.3520000476856,completion,,,,,,,high,high,,,,,,,false,,,,,true,544747.9000000954,544747.7000000477,541347.716,541356.3000001907,541364.348,544754.291,1,40,,
trial,html.Screen,8_11_0,2023-11-30T16:36:52.866Z,,,,2,-0.0399381815506136,-0.0177751789152893,,0.04,true,ll,13906.209000000032,response,-1.0441672988386008,0.855772170698021,-1.15,-1.108916716139547,0.861650625494543,-1.0999999999999999,low,low,,ISIC_3981425.JPG,,ISIC_0063243.JPG,28,27,false,0.11,ll,keypress(f),0,true,558660.7000000477,558660.5,544737.69,544747.9000000954,544754.291,558664.689,1,40,12,
sequence,flow.Sequence,8_11,2023-11-30T16:36:52.866Z,,,,,,,,,,,13906.209000000032,completion,,,,,,,low,low,,,,,,,false,,,,,true,558661,558660.5,544737.69,544747.9000000954,544754.291,558664.689,1,40,,
trial,html.Screen,8_12_0,2023-11-30T16:36:58.809Z,,,,2,0.0063515208248796,0.0194177605767913,,0.04,false,hh,5939.011000047671,response,0.7971151140014712,0.855772170698021,-1.0999999999999999,0.8237482453602493,0.861650625494543,-1.0499999999999998,high,high,,ISIC_5281908.JPG,,ISIC_6362735.JPG,28,56,false,0.1,lh,keypress(e),0,true,564603.8000001907,564603.7000000477,558647.98,558661.100000143,558664.689,564609.548,1,40,13,
sequence,flow.Sequence,8_12,2023-11-30T16:36:58.809Z,,,,,,,,,,,5939.011000047671,completion,,,,,,,high,high,,,,,,,false,,,,,true,564603.9000000954,564603.7000000477,558647.98,558661.100000143,558664.689,564609.548,1,40,,
trial,html.Screen,8_13_0,2023-11-30T16:37:03.321Z,,,,2,-0.0377791839943904,0.0227626648172468,,0.04,true,lh,4506.452000000048,response,-0.9254898763900528,0.9057721706980211,-1.0999999999999999,0.6729642430400987,0.861650625494543,-1.0499999999999998,low,high,,ISIC_7167479.JPG,,ISIC_0862745.JPG,28,26,false,0.19000000000000006,lh,keypress(e),0,true,569116.100000143,569116,564592.913,564603.9000000954,564609.548,569118.328,1,40,14,
sequence,flow.Sequence,8_13,2023-11-30T16:37:03.321Z,,,,,,,,,,,4506.452000000048,completion,,,,,,,low,high,,,,,,,false,,,,,true,569116.4000000954,569116,564592.913,564603.9000000954,564609.548,569118.328,1,40,,
trial,html.Screen,8_14_0,2023-11-30T16:37:09.450Z,,,,2,0.0189295602385628,0.0128812415435153,,0.04,true,ll,6125.972000190755,response,-1.000067575413479,0.9057721706980211,-1.0999999999999999,-0.963498103069642,0.8116506254945429,-1.0499999999999998,low,low,,ISIC_0010372.JPG,,ISIC_0061531.JPG,28,28,false,0.1,ll,keypress(f),0,true,575244.5,575244.3000001907,569101.741,569116.4000000954,569118.328,575246.965,1,40,15,
sequence,flow.Sequence,8_14,2023-11-30T16:37:09.450Z,,,,,,,,,,,6125.972000190755,completion,,,,,,,low,low,,,,,,,false,,,,,true,575244.9000000954,575244.3000001907,569101.741,569116.4000000954,569118.328,575246.965,1,40,,
trial,html.Screen,8_15_0,2023-11-30T16:37:14.793Z,,,,2,0.0127320821962457,-0.0315308940184827,,0.04,true,ll,5340.735000047716,response,-0.8330105500669435,0.9057721706980211,-0.9317828392415604,-1.0795444519180726,0.8116506254945429,-1.0499999999999998,low,low,,ISIC_8156101.JPG,,ISIC_0030921.JPG,28,39,false,0.1,ll,keypress(f),0,true,580587.9000000954,580587.7000000477,575230.397,575245.100000143,575246.965,580590.626,1,40,16,
sequence,flow.Sequence,8_15,2023-11-30T16:37:14.793Z,,,,,,,,,,,5340.735000047716,completion,,,,,,,low,low,,,,,,,false,,,,,true,580588,580587.7000000477,575230.397,575245.100000143,575246.965,580590.626,1,40,,
trial,html.Screen,8_16_0,2023-11-30T16:37:18.554Z,,,,2,-0.00126575685933,-0.0325046559638838,,0.04,true,ll,3757.6740001906874,response,-0.9286162906661966,0.9057721706980211,-0.9317828392415604,-0.8993115431771105,0.8116506254945429,-0.9062775009925079,low,low,,ISIC_5682259.JPG,,ISIC_0011857.JPG,28,54,false,0.1,ll,keypress(f),0,true,584348.5,584348.3000001907,580574.128,580588,580590.626,584364.708,1,40,17,
sequence,flow.Sequence,8_16,2023-11-30T16:37:18.554Z,,,,,,,,,,,3757.6740001906874,completion,,,,,,,low,low,,,,,,,false,,,,,true,584348.7000000477,584348.3000001907,580574.128,580588,580590.626,584364.708,1,40,,
trial,html.Screen,8_17_0,2023-11-30T16:37:23.345Z,,,,2,0.0321039635696159,0.020496766286318,,0.04,false,lh,4775.092000190751,response,-0.9128554359750156,0.9057721706980211,-0.8639639169216535,0.739303798149096,0.8116506254945429,-0.9062775009925079,low,high,,ISIC_0058063.JPG,,ISIC_0030985.JPG,28,26,false,0.13,hh,keypress(i),0,true,589139.9000000954,589139.8000001907,584348.016,584348.9000000954,584364.708,589157.973,1,40,18,
sequence,flow.Sequence,8_17,2023-11-30T16:37:23.345Z,,,,,,,,,,,4775.092000190751,completion,,,,,,,low,high,,,,,,,false,,,,,true,589140.100000143,589139.8000001907,584348.016,584348.9000000954,584364.708,589157.973,1,40,,
trial,html.Screen,8_18_0,2023-11-30T16:37:29.642Z,,,,2,-0.0057914759495055,0.018500200317654,,0.04,true,hh,6277.927000095369,response,0.914718178652523,0.9057721706980211,-0.9139639169216536,0.7628803787481286,0.8116506254945429,-0.9062775009925079,high,high,,ISIC_0058723.JPG,,ISIC_0025001.JPG,28,42,false,0.1,hh,keypress(i),0,true,595436,595435.9000000954,589124.086,589140.100000143,589157.973,595453.128,1,40,19,
sequence,flow.Sequence,8_18,2023-11-30T16:37:29.642Z,,,,,,,,,,,6277.927000095369,completion,,,,,,,high,high,,,,,,,false,,,,,true,595436.2000000477,595435.9000000954,589124.086,589140.100000143,589157.973,595453.128,1,40,,
trial,html.Screen,8_19_0,2023-11-30T16:37:33.954Z,,,,2,-0.012810673904807,0.00400964452501,,0.04,true,ll,4294.871999999974,response,-0.8542403401067127,0.9057721706980211,-0.9139639169216536,-0.8471646801526567,0.7887992787003257,-0.9062775009925079,low,low,,ISIC_0064656.JPG,,ISIC_0010140.JPG,28,52,false,0.1,ll,keypress(f),0,true,599748.2000000477,599748,595436.345,595436.2000000477,595453.128,599761.305,1,40,20,
sequence,flow.Sequence,8_19,2023-11-30T16:37:33.954Z,,,,,,,,,,,4294.871999999974,completion,,,,,,,low,low,,,,,,,false,,,,,true,599748.600000143,599748,595436.345,595436.2000000477,595453.128,599761.305,1,40,,
trial,html.Screen,8_20_0,2023-11-30T16:37:41.394Z,,,,2,-0.0057914759495055,0.018500200317654,,0.04,true,hh,7426.595000095316,response,0.8409658634318444,0.9057721706980211,-0.9139639169216536,0.8422553783328103,0.7887992787003257,-0.8007025101296846,high,high,,ISIC_0058723.JPG,,ISIC_2731621.JPG,28,50,false,0.1,hh,keypress(i),0,true,607188,607187.9000000954,599744.59,599748.600000143,599761.305,607192.368,1,40,21,
sequence,flow.Sequence,8_20,2023-11-30T16:37:41.394Z,,,,,,,,,,,7426.595000095316,completion,,,,,,,high,high,,,,,,,false,,,,,true,607188.100000143,607187.9000000954,599744.59,599748.600000143,599761.305,607192.368,1,40,,
trial,html.Screen,8_21_0,2023-11-30T16:37:44.730Z,,,,2,-0.0350697500805515,-0.0166617848231997,,0.04,false,hl,3331.6319999999832,response,0.8069690440362255,0.7916106208823273,-0.9139639169216536,-0.8262727717500657,0.7887992787003257,-0.8007025101296846,high,low,,ISIC_0024423.JPG,,ISIC_0028469.JPG,28,25,false,0.11,hh,keypress(i),0,true,610524.100000143,610524,607175.722,607188.2000000477,607192.368,610532.221,1,40,22,
sequence,flow.Sequence,8_21,2023-11-30T16:37:44.730Z,,,,,,,,,,,3331.6319999999832,completion,,,,,,,high,low,,,,,,,false,,,,,true,610524.3000001907,610524,607175.722,607188.2000000477,607192.368,610532.221,1,40,,
trial,html.Screen,8_22_0,2023-11-30T16:37:52.713Z,,,,2,-0.0158987717472563,-0.0292472192292015,,0.04,true,hl,7975.479000047664,response,0.7401156491866404,0.7916106208823273,-0.9139639169216536,-0.8169638598102704,0.7887992787003257,-0.8507025101296847,high,low,,ISIC_1366765.JPG,,ISIC_0072429.JPG,28,27,false,0.13,hl,keypress(j),0,true,618507.9000000954,618507.7000000477,610515.492,610524.5,610532.221,618514.396,1,40,23,
sequence,flow.Sequence,8_22,2023-11-30T16:37:52.714Z,,,,,,,,,,,7975.479000047664,completion,,,,,,,high,low,,,,,,,false,,,,,true,618508,618507.7000000477,610515.492,610524.4000000954,610532.221,618514.396,1,40,,
trial,html.Screen,8_23_0,2023-11-30T16:37:57.426Z,,,,2,0.0367218428225813,-0.0026956749740767,,0.04,true,ll,4705.504000095418,response,-0.9900831889164324,0.7416106208823272,-0.9139639169216536,-0.9119933515639294,0.7887992787003257,-0.8507025101296847,low,low,,ISIC_7212271.JPG,,ISIC_0058033.JPG,28,52,false,0.1,ll,keypress(f),0,true,623220,623219.9000000954,618497.82,618508.100000143,618514.396,623223.545,1,40,24,
sequence,flow.Sequence,8_23,2023-11-30T16:37:57.426Z,,,,,,,,,,,4705.504000095418,completion,,,,,,,low,low,,,,,,,false,,,,,true,623220.100000143,623219.9000000954,618497.82,618508.100000143,618514.396,623223.545,1,40,,
trial,html.Screen,8_24_0,2023-11-30T16:38:04.538Z,,,,2,0.0189295602385628,0.0128812415435153,,0.04,false,lh,7108.3550000953255,response,-0.8200962008791046,0.7416106208823272,-0.8144786056870998,0.7963514435349658,0.7887992787003257,-0.8144786056870998,low,high,,ISIC_0010372.JPG,,ISIC_0027031.JPG,28,31,false,0.11,hl,keypress(j),0,true,630332,630331.9000000954,623206.879,623220.3000001907,623223.545,630337.37,1,40,25,
sequence,flow.Sequence,8_24,2023-11-30T16:38:04.538Z,,,,,,,,,,,7108.3550000953255,completion,,,,,,,low,high,,,,,,,false,,,,,true,630332.2000000477,630331.9000000954,623206.879,623220.2000000477,623223.545,630337.37,1,40,,
trial,html.Screen,8_25_0,2023-11-30T16:38:10.273Z,,,,2,-0.0399381815506136,-0.0177751789152893,,0.04,true,ll,5730.230000143056,response,-0.8189159620098805,0.7416106208823272,-0.8644786056870999,-0.8194695407784734,0.8387992787003258,-0.8144786056870998,low,low,,ISIC_3981425.JPG,,ISIC_0034101.JPG,28,57,false,0.1,ll,keypress(f),0,true,636067.8000001907,636067.600000143,630320.762,630332.3000001907,630337.37,636081.936,1,40,26,
sequence,flow.Sequence,8_25,2023-11-30T16:38:10.274Z,,,,,,,,,,,5730.230000143056,completion,,,,,,,low,low,,,,,,,false,,,,,true,636067.9000000954,636067.600000143,630320.762,630332.3000001907,630337.37,636081.936,1,40,,
trial,html.Screen,8_26_0,2023-11-30T16:38:21.618Z,,,,2,-0.0060934073440827,-0.0279108145883031,,0.04,true,lh,11330.664000143064,response,-0.7651385778471405,0.7416106208823272,-0.8644786056870999,0.7399318914516048,0.8387992787003258,-0.8144786056870998,low,high,,ISIC_0032604.JPG,,ISIC_1495793.JPG,28,25,false,0.13,lh,keypress(e),0,true,647412.8000001907,647412.600000143,636065.383,636068.100000143,636081.936,647420.593,1,40,27,
sequence,flow.Sequence,8_26,2023-11-30T16:38:21.619Z,,,,,,,,,,,11330.664000143064,completion,,,,,,,low,high,,,,,,,false,,,,,true,647413.2000000477,647412.600000143,636065.383,636068.100000143,636081.936,647420.593,1,40,,
trial,html.Screen,8_27_0,2023-11-30T16:38:33.363Z,,,,2,-0.0071892445601978,0.0246015408628738,,0.04,true,lh,11736.207000190741,response,-0.9225524349657857,0.7416106208823272,-0.8144786056870998,0.929746784178986,0.8387992787003258,-0.8144786056870998,low,high,,ISIC_0014133.JPG,,ISIC_0011077.JPG,28,29,false,0.12,lh,keypress(e),0,true,659156.9000000954,659156.8000001907,647403.925,647413.3000001907,647420.593,659160.157,1,40,28,
sequence,flow.Sequence,8_27,2023-11-30T16:38:33.363Z,,,,,,,,,,,11736.207000190741,completion,,,,,,,low,high,,,,,,,false,,,,,true,659157.4000000954,659156.8000001907,647403.925,647413.3000001907,647420.593,659160.157,1,40,,
trial,html.Screen,8_28_0,2023-11-30T16:38:38.146Z,,,,2,-0.0350697500805515,-0.0166617848231997,,0.04,true,ll,4779.643000190728,response,-0.8299064093289698,0.7416106208823272,-0.8144786056870998,-0.8788083232111502,0.7887992787003257,-0.8144786056870998,low,low,,ISIC_0024423.JPG,,ISIC_0000398.JPG,28,64,false,0.1,ll,keypress(f),0,true,663939.9000000954,663939.8000001907,659143.412,659157.5,659160.157,663952.74,1,40,29,
sequence,flow.Sequence,8_28,2023-11-30T16:38:38.146Z,,,,,,,,,,,4779.643000190728,completion,,,,,,,low,low,,,,,,,false,,,,,true,663940.100000143,663939.8000001907,659143.412,659157.4000000954,659160.157,663952.74,1,40,,
trial,html.Screen,8_29_0,2023-11-30T16:38:44.066Z,,,,2,-0.0057914759495055,0.018500200317654,,0.04,true,lh,5907.060000190744,response,-0.9147541456900236,0.7416106208823272,-0.8506803790884678,0.7003745893096066,0.7887992787003257,-0.8506803790884678,low,high,,ISIC_0058723.JPG,,ISIC_0000394.JPG,28,28,false,0.12,lh,keypress(e),0,true,669859.9000000954,669859.8000001907,663936.136,663940.3000001907,663952.74,669864.246,1,40,30,
sequence,flow.Sequence,8_29,2023-11-30T16:38:44.066Z,,,,,,,,,,,5907.060000190744,completion,,,,,,,low,high,,,,,,,false,,,,,true,669860.100000143,669859.8000001907,663936.136,663940.2000000477,663952.74,669864.246,1,40,,
trial,html.Screen,8_30_0,2023-11-30T16:38:47.843Z,,,,2,0.0367218428225813,-0.0026956749740767,,0.04,true,lh,3772.1540000953246,response,-0.9254369922344792,0.7416106208823272,-0.8506803790884678,0.7020073261471239,0.7887992787003257,-0.8506803790884678,low,high,,ISIC_7212271.JPG,,ISIC_3236964.JPG,28,28,false,0.12,lh,keypress(e),0,true,673636.7000000477,673636.4000000954,669847.637,669860.100000143,669864.246,673656.238,1,40,31,
sequence,flow.Sequence,8_30,2023-11-30T16:38:47.843Z,,,,,,,,,,,3772.1540000953246,completion,,,,,,,low,high,,,,,,,false,,,,,true,673637,673636.4000000954,669847.637,669860.100000143,669864.246,673656.238,1,40,,
trial,html.Screen,8_31_0,2023-11-30T16:38:51.937Z,,,,2,-0.0377791839943904,0.0227626648172468,,0.04,true,ll,4074.9620000476716,response,-0.756093304599422,0.7416106208823272,-0.8006803790884678,-0.8378294871233868,0.6511909577283652,-0.8506803790884678,low,low,,ISIC_7167479.JPG,,ISIC_0026167.JPG,28,58,false,0.1,ll,keypress(f),0,true,677731.3000001907,677731.2000000477,673621.565,673637.100000143,673656.238,677746.195,1,40,32,
sequence,flow.Sequence,8_31,2023-11-30T16:38:51.938Z,,,,,,,,,,,4074.9620000476716,completion,,,,,,,low,low,,,,,,,false,,,,,true,677731.5,677731.2000000477,673621.565,673637.100000143,673656.238,677746.195,1,40,,
trial,html.Screen,8_32_0,2023-11-30T16:38:56.242Z,,,,2,-0.0050679133050021,-0.0174815595031679,,0.04,false,lh,4289.705000095419,response,-0.7647481222824377,0.7416106208823272,-0.8006803790884678,0.5757819575674104,0.6511909577283652,-0.8506803790884678,low,high,,ISIC_9848743.JPG,,ISIC_9727132.JPG,28,27,false,0.11,hh,keypress(i),0,true,682035.9000000954,682035.9000000954,677729.529,677731.600000143,677746.195,682037.937,1,40,33,
sequence,flow.Sequence,8_32,2023-11-30T16:38:56.242Z,,,,,,,,,,,4289.705000095419,completion,,,,,,,low,high,,,,,,,false,,,,,true,682036.100000143,682035.9000000954,677729.529,677731.600000143,677746.195,682037.937,1,40,,
trial,html.Screen,8_33_0,2023-11-30T16:39:00.618Z,,,,2,0.0321039635696159,0.020496766286318,,0.04,true,hl,4373.963000095333,response,0.717897378657649,0.7416106208823272,-0.8506803790884678,-0.8788356736457825,0.6511909577283652,-0.8506803790884678,high,low,,ISIC_0058063.JPG,,ISIC_3963183.JPG,28,26,false,0.12,hl,keypress(j),0,true,686412,686411.9000000954,682021.216,682036.100000143,682037.937,686431.075,1,40,34,
sequence,flow.Sequence,8_33,2023-11-30T16:39:00.618Z,,,,,,,,,,,4373.963000095333,completion,,,,,,,high,low,,,,,,,false,,,,,true,686412.2000000477,686411.9000000954,682021.216,682036.100000143,682037.937,686431.075,1,40,,
trial,html.Screen,8_34_0,2023-11-30T16:39:02.858Z,,,,2,-0.0071892445601978,0.0246015408628738,,0.04,true,hh,2220.5250001430977,response,0.7100518437254124,0.7416106208823272,-0.8506803790884678,0.6133789948098034,0.6511909577283652,-0.8006803790884678,high,high,,ISIC_0014133.JPG,,ISIC_3886458.JPG,28,85,false,0.1,hh,keypress(i),0,true,688651.7000000477,688651.600000143,686396.667,686412.3000001907,686431.075,688667.641,1,40,35,
sequence,flow.Sequence,8_34,2023-11-30T16:39:02.858Z,,,,,,,,,,,2220.5250001430977,completion,,,,,,,high,high,,,,,,,false,,,,,true,688651.9000000954,688651.600000143,686396.667,686412.3000001907,686431.075,688667.641,1,40,,
trial,html.Screen,8_35_0,2023-11-30T16:39:11.234Z,,,,2,-0.0050679133050021,-0.0174815595031679,,0.04,false,hl,8360.059000047739,response,0.6925812978807568,0.6156381867337262,-0.8506803790884678,-0.8080600569333839,0.6156381867337262,-0.8006803790884678,high,low,,ISIC_9848743.JPG,,ISIC_9244047.JPG,28,31,false,0.1,hh,keypress(i),0,true,697027.9000000954,697027.7000000477,688650.776,688652,688667.641,697033.776,1,40,36,
sequence,flow.Sequence,8_35,2023-11-30T16:39:11.234Z,,,,,,,,,,,8360.059000047739,completion,,,,,,,high,low,,,,,,,false,,,,,true,697028,697027.7000000477,688650.776,688652,688667.641,697033.776,1,40,,
trial,html.Screen,8_36_0,2023-11-30T16:39:14.178Z,,,,2,-0.0166849894750452,0.0371614812368835,,0.04,true,hh,2938.0240001907805,response,0.6192875004891427,0.6156381867337262,-0.8506803790884678,0.675332620173563,0.6156381867337262,-0.8506803790884678,high,high,,ISIC_6231450.JPG,,ISIC_9828053.JPG,28,91,false,0.1,hh,keypress(i),0,true,699972,699971.8000001907,697017.212,697028.100000143,697033.776,699989.587,1,40,37,
sequence,flow.Sequence,8_36,2023-11-30T16:39:14.178Z,,,,,,,,,,,2938.0240001907805,completion,,,,,,,high,high,,,,,,,false,,,,,true,699972.2000000477,699971.8000001907,697017.212,697028.100000143,697033.776,699989.587,1,40,,
trial,html.Screen,8_37_0,2023-11-30T16:39:18.034Z,,,,2,-0.0158987717472563,-0.0292472192292015,,0.04,false,lh,3837.9129999999423,response,-0.7647481222824377,0.5973100603313528,-0.8506803790884678,0.5757819575674104,0.6156381867337262,-0.8506803790884678,low,high,,ISIC_1366765.JPG,,ISIC_9727132.JPG,28,28,false,0.12,hh,keypress(i),0,true,703827.7000000477,703827.5,699956.24,699972.2000000477,699989.587,703830.282,1,40,38,
sequence,flow.Sequence,8_37,2023-11-30T16:39:18.034Z,,,,,,,,,,,3837.9129999999423,completion,,,,,,,low,high,,,,,,,false,,,,,true,703827.8000001907,703827.5,699956.24,699972.2000000477,699989.587,703830.282,1,40,,
trial,html.Screen,8_38_0,2023-11-30T16:39:21.938Z,,,,2,-0.00126575685933,-0.0325046559638838,,0.04,false,lh,3901.918000047677,response,-0.8878814182006727,0.5973100603313528,-0.9006803790884679,0.5643945346492624,0.5755572888704866,-0.8506803790884678,low,high,,ISIC_5682259.JPG,,ISIC_0010555.JPG,28,25,false,0.12,ll,keypress(f),0,true,707732.3000001907,707732.2000000477,703813.627,703827.9000000954,703830.282,707737.945,1,40,39,
sequence,flow.Sequence,8_38,2023-11-30T16:39:21.939Z,,,,,,,,,,,3901.918000047677,completion,,,,,,,low,high,,,,,,,false,,,,,true,707732.600000143,707732.2000000477,703813.627,703827.9000000954,703830.282,707737.945,1,40,,
trial,html.Screen,8_39_0,2023-11-30T16:39:26.282Z,,,,2,-0.0118555311043871,-0.0087774532070196,,0.04,true,hh,4337.955000095419,response,0.5807831084534488,0.5973100603313528,-0.9006803790884679,0.6458078806198705,0.6255572888704867,-0.8506803790884678,high,high,,ISIC_6488658.JPG,,ISIC_0010861.JPG,28,92,false,0.1,hh,keypress(i),0,true,712076.2000000477,712075.9000000954,707721.448,707732.8000001907,707737.945,712079.694,1,40,40,
sequence,flow.Sequence,8_39,2023-11-30T16:39:26.283Z,,,,,,,,,,,4337.955000095419,completion,,,,,,,high,high,,,,,,,false,,,,,true,712076.4000000954,712075.9000000954,707721.448,707732.8000001907,707737.945,712079.694,1,40,,
stair_loop,flow.Loop,8,2023-11-30T16:39:26.283Z,,,,,,,,,,,232297.9960000954,completion,,,,,,,,,,,,,,,false,,,,,true,712076.600000143,712075.9000000954,479761.203,479771.80000019073,479777.904,712079.694,1,40,,
exp_instructions,html.Screen,9,2023-11-30T16:39:44.259Z,,,,,,,,,,,17971.70600009535,response,,,,,,,,,,,,,,,,,continue,keypress(Space),,,730052,730051.4000000954,712063.099,712076.7000000477,712079.694,730064.637,,,,
trial,html.Screen,10_0_0,2023-11-30T16:39:53.538Z,,,,1,-0.0057914759495055,0.018500200317654,,0.04,false,hh,9266.76300009538,response,0.6999553584615837,0.7205763708756054,-0.8592866433047629,0.7060610872895672,0.72397925172796,-0.8316343619463691,high,high,,ISIC_0058723.JPG,10,ISIC_0084086.JPG,28,90,false,0.1,hl,keypress(j),0,false,739331.7000000477,739331.4000000954,730047.815,730052.100000143,730064.637,739350.572,5,600,1,
break,html.Screen,10_0_1,2023-11-30T16:39:53.539Z,,,,,,,,,,,NaN,,,,,,,,high,high,,,,,,,false,,,,,false,739332.2000000477,739332,,739331.8000001907,,739350.572,5,600,,
break_continue,html.Screen,10_0_2,2023-11-30T16:39:53.539Z,,,,,,,,,,,NaN,,,,,,,,high,high,,,,,,,false,,,,,false,739332.4000000954,739332.3000001907,,739332.2000000477,,739350.572,5,600,,
sequence,flow.Sequence,10_0,2023-11-30T16:39:53.539Z,,,,,,,,,,,9267.663000190747,completion,,,,,,,high,high,,,,,,,false,,,,,false,739332.5,739332.3000001907,730047.815,730052.100000143,730064.637,739350.572,5,600,,
trial,html.Screen,10_1_0,2023-11-30T16:39:57.339Z,,,,1,-0.0377791839943904,0.0227626648172468,,0.04,false,hh,3781.228000190691,response,0.6321471322168797,0.7205763708756054,-0.8592866433047629,0.691993042343718,0.72397925172796,-0.8316343619463691,high,high,,ISIC_7167479.JPG,9,ISIC_0025595.JPG,28,90,false,0.1,hl,keypress(j),0,false,743132,743131.8000001907,739315.94,739332.5,739350.572,743140.122,5,600,2,
break,html.Screen,10_1_1,2023-11-30T16:39:57.339Z,,,,,,,,,,,NaN,,,,,,,,high,high,,,,,,,false,,,,,false,743132.600000143,743132.5,,743132.2000000477,,743140.122,5,600,,
break_continue,html.Screen,10_1_2,2023-11-30T16:39:57.340Z,,,,,,,,,,,NaN,,,,,,,,high,high,,,,,,,false,,,,,false,743132.9000000954,743132.8000001907,,743132.7000000477,,743140.122,5,600,,
sequence,flow.Sequence,10_1,2023-11-30T16:39:57.340Z,,,,,,,,,,,3782.228000190691,completion,,,,,,,high,high,,,,,,,false,,,,,false,743133,743132.8000001907,739315.94,739332.5,739350.572,743140.122,5,600,,
trial,html.Screen,10_2_0,2023-11-30T16:40:02.026Z,,,,1,-0.0399381815506136,-0.0177751789152893,,0.04,false,hl,4679.178000190761,response,0.8070820195894357,0.7205763708756054,-0.8592866433047629,-0.8958120092147633,0.72397925172796,-0.8316343619463691,high,low,,ISIC_3981425.JPG,8,ISIC_0060585.JPG,28,27,false,0.11,ll,keypress(f),0,false,747819.3000001907,747819.3000001907,743123.376,743133.2000000477,743140.122,747832.573,5,600,3,
break,html.Screen,10_2_1,2023-11-30T16:40:02.026Z,,,,,,,,,,,NaN,,,,,,,,high,low,,,,,,,false,,,,,false,747819.600000143,747819.5,,747819.5,,747832.573,5,600,,
break_continue,html.Screen,10_2_2,2023-11-30T16:40:02.026Z,,,,,,,,,,,NaN,,,,,,,,high,low,,,,,,,false,,,,,false,747819.8000001907,747819.8000001907,,747819.600000143,,747832.573,5,600,,
sequence,flow.Sequence,10_2,2023-11-30T16:40:02.027Z,,,,,,,,,,,4679.678000190761,completion,,,,,,,high,low,,,,,,,false,,,,,false,747819.8000001907,747819.8000001907,743123.376,743133.100000143,743140.122,747832.573,5,600,,
trial,html.Screen,10_3_0,2023-11-30T16:40:06.418Z,,,,1,-0.0166849894750452,0.0371614812368835,,0.04,true,lh,4378.72700019076,response,-0.7651385778471405,0.7205763708756054,-0.8592866433047629,0.7399318914516048,0.72397925172796,-0.8316343619463691,low,high,,ISIC_6231450.JPG,9,ISIC_1495793.JPG,28,25,false,0.11,lh,keypress(e),0,false,752211.4000000954,752211.3000001907,747816.078,747819.9000000954,747832.573,752224.449,5,600,4,
break,html.Screen,10_3_1,2023-11-30T16:40:06.418Z,,,,,,,,,,,NaN,,,,,,,,low,high,,,,,,,false,,,,,false,752211.7000000477,752211.600000143,,752211.4000000954,,752224.449,5,600,,
break_continue,html.Screen,10_3_2,2023-11-30T16:40:06.419Z,,,,,,,,,,,NaN,,,,,,,,low,high,,,,,,,false,,,,,false,752211.9000000954,752211.8000001907,,752211.8000001907,,752224.449,5,600,,
sequence,flow.Sequence,10_3,2023-11-30T16:40:06.419Z,,,,,,,,,,,4379.22700019076,completion,,,,,,,low,high,,,,,,,false,,,,,false,752211.9000000954,752211.8000001907,747816.078,747819.9000000954,747832.573,752224.449,5,600,,
trial,html.Screen,10_4_0,2023-11-30T16:40:10.594Z,,,,1,-0.0377791839943904,0.0227626648172468,,0.04,true,ll,4163.050999999978,response,-0.9199666100426928,0.7205763708756054,-0.8592866433047629,-0.7619801980055347,0.72397925172796,-0.8316343619463691,low,low,,ISIC_7167479.JPG,9,ISIC_0009905.JPG,28,54,false,0.1,ll,keypress(f),0,false,756387.600000143,756387.5,752207.703,752212,752224.449,756399.415,5,600,5,
break,html.Screen,10_4_1,2023-11-30T16:40:10.595Z,,,,,,,,,,,NaN,,,,,,,,low,low,,,,,,,false,,,,,false,756388,756387.9000000954,,756387.8000001907,,756399.415,5,600,,
break_continue,html.Screen,10_4_2,2023-11-30T16:40:10.595Z,,,,,,,,,,,NaN,,,,,,,,low,low,,,,,,,false,,,,,false,756388.100000143,756388.100000143,,756388,,756399.415,5,600,,
sequence,flow.Sequence,10_4,2023-11-30T16:40:10.595Z,,,,,,,,,,,4163.651000143029,completion,,,,,,,low,low,,,,,,,false,,,,,false,756388.100000143,756388.100000143,752207.703,752212,752224.449,756399.415,5,600,,
trial,html.Screen,10_5_0,2023-11-30T16:40:15.179Z,,,,1,-0.0071892445601978,0.0246015408628738,,0.04,false,hl,4572.584999999963,response,0.72754684739632,0.7205763708756054,-0.8592866433047629,-0.840335750071074,0.72397925172796,-0.8316343619463691,high,low,,ISIC_0014133.JPG,9,ISIC_2936321.JPG,28,27,false,0.11,ll,keypress(f),0,false,760972.100000143,760972,756382.726,756388.2000000477,756399.415,760974.806,5,600,6,
break,html.Screen,10_5_1,2023-11-30T16:40:15.179Z,,,,,,,,,,,NaN,,,,,,,,high,low,,,,,,,false,,,,,false,760972.600000143,760972.5,,760972.3000001907,,760974.806,5,600,,
break_continue,html.Screen,10_5_2,2023-11-30T16:40:15.180Z,,,,,,,,,,,NaN,,,,,,,,high,low,,,,,,,false,,,,,false,760972.9000000954,760972.8000001907,,760972.7000000477,,760974.806,5,600,,
sequence,flow.Sequence,10_5,2023-11-30T16:40:15.180Z,,,,,,,,,,,4573.385000190698,completion,,,,,,,high,low,,,,,,,false,,,,,false,760973.100000143,760972.8000001907,756382.726,756388.2000000477,756399.415,760974.806,5,600,,
trial,html.Screen,10_6_0,2023-11-30T16:40:20.323Z,,,,1,-0.0399381815506136,-0.0177751789152893,,0.04,false,hl,5140.894000047701,response,0.6612337808810415,0.7205763708756054,-0.8592866433047629,-0.858757640533531,0.72397925172796,-0.8316343619463691,high,low,,ISIC_3981425.JPG,9,ISIC_0069698.JPG,28,27,false,0.11,lh,keypress(e),0,false,766115.9000000954,766115.7000000477,760958.207,760973.2000000477,760974.806,766118.121,5,600,7,
break,html.Screen,10_6_1,2023-11-30T16:40:20.323Z,,,,,,,,,,,NaN,,,,,,,,high,low,,,,,,,false,,,,,false,766116.4000000954,766116.4000000954,,766116.100000143,,766118.121,5,600,,
break_continue,html.Screen,10_6_2,2023-11-30T16:40:20.324Z,,,,,,,,,,,NaN,,,,,,,,high,low,,,,,,,false,,,,,false,766116.8000001907,766116.7000000477,,766116.5,,766118.121,5,600,,
sequence,flow.Sequence,10_6,2023-11-30T16:40:20.324Z,,,,,,,,,,,5141.894000047701,completion,,,,,,,high,low,,,,,,,false,,,,,false,766116.9000000954,766116.7000000477,760958.207,760973.2000000477,760974.806,766118.121,5,600,,
trial,html.Screen,10_7_0,2023-11-30T16:40:26.306Z,,,,1,-0.0071892445601978,0.0246015408628738,,0.04,false,hl,5981.378999999957,response,0.6925812978807568,0.7205763708756054,-0.8592866433047629,-0.8080600569333839,0.72397925172796,-0.8316343619463691,high,low,,ISIC_0014133.JPG,9,ISIC_9244047.JPG,28,27,false,0.11,lh,keypress(e),0,false,772099.7000000477,772099.5,766101.643,766117.100000143,766118.121,772113.261,5,600,8,
break,html.Screen,10_7_1,2023-11-30T16:40:26.307Z,,,,,,,,,,,NaN,,,,,,,,high,low,,,,,,,false,,,,,false,772100,772099.9000000954,,772099.7000000477,,772113.261,5,600,,
break_continue,html.Screen,10_7_2,2023-11-30T16:40:26.307Z,,,,,,,,,,,NaN,,,,,,,,high,low,,,,,,,false,,,,,false,772100.2000000477,772100.2000000477,,772100.100000143,,772113.261,5,600,,
sequence,flow.Sequence,10_7,2023-11-30T16:40:26.307Z,,,,,,,,,,,5982.079000047641,completion,,,,,,,high,low,,,,,,,false,,,,,false,772100.3000001907,772100.2000000477,766101.643,766117.100000143,766118.121,772113.261,5,600,,
trial,html.Screen,10_8_0,2023-11-30T16:40:29.603Z,,,,1,-0.0158987717472563,-0.0292472192292015,,0.04,true,ll,3282.539000190678,response,-0.8052466281778704,0.7205763708756054,-0.8592866433047629,-0.8895194627589205,0.72397925172796,-0.8316343619463691,low,low,,ISIC_1366765.JPG,9,ISIC_0025814.JPG,28,54,false,0.1,ll,keypress(f),0,false,775396.100000143,775395.8000001907,772096.626,772100.4000000954,772113.261,775402.888,5,600,9,
break,html.Screen,10_8_1,2023-11-30T16:40:29.603Z,,,,,,,,,,,NaN,,,,,,,,low,low,,,,,,,false,,,,,false,775396.7000000477,775396.5,,775396.3000001907,,775402.888,5,600,,
break_continue,html.Screen,10_8_2,2023-11-30T16:40:29.604Z,,,,,,,,,,,NaN,,,,,,,,low,low,,,,,,,false,,,,,false,775397.2000000477,775397,,775396.9000000954,,775402.888,5,600,,
sequence,flow.Sequence,10_8,2023-11-30T16:40:29.604Z,,,,,,,,,,,3283.738999999943,completion,,,,,,,low,low,,,,,,,false,,,,,false,775397.3000001907,775397,772096.626,772100.4000000954,772113.261,775402.888,5,600,,
trial,html.Screen,10_9_0,2023-11-30T16:40:38.347Z,,,,1,-0.00126575685933,-0.0325046559638838,,0.04,false,hh,8736.9120001907,response,0.7074334726878371,0.7205763708756054,-0.8592866433047629,0.6792859365548365,0.72397925172796,-0.8316343619463691,high,high,,ISIC_5682259.JPG,10,ISIC_0001875.JPG,28,90,false,0.1,hl,keypress(j),0,false,784140,784139.8000001907,775386.094,775397.5,775402.888,784153.336,5,600,10,
break,html.Screen,10_9_1,2023-11-30T16:40:38.347Z,,,,,,,,,,,NaN,,,,,,,,high,high,,,,,,,false,,,,,false,784140.600000143,784140.4000000954,,784140.2000000477,,784153.336,5,600,,
break_continue,html.Screen,10_9_2,2023-11-30T16:40:38.348Z,,,,,,,,,,,NaN,,,,,,,,high,high,,,,,,,false,,,,,false,784141,784140.9000000954,,784140.8000001907,,784153.336,5,600,,
sequence,flow.Sequence,10_9,2023-11-30T16:40:38.348Z,,,,,,,,,,,8738.012000095332,completion,,,,,,,high,high,,,,,,,false,,,,,false,784141.2000000477,784140.9000000954,775386.094,775397.4000000954,775402.888,784153.336,5,600,,
trial,html.Screen,10_10_0,2023-11-30T16:40:48.339Z,,,,1,-0.0158987717472563,-0.0292472192292015,,0.04,false,lh,9978.364000047673,response,-0.7915712344154743,0.7205763708756054,-0.8592866433047629,0.746213696971686,0.72397925172796,-0.8316343619463691,low,high,,ISIC_1366765.JPG,9,ISIC_0027641.JPG,28,25,false,0.11,ll,keypress(f),0,false,794131.9000000954,794131.7000000477,784136.468,784141.3000001907,784153.336,794156.054,5,600,11,
break,html.Screen,10_10_1,2023-11-30T16:40:48.340Z,,,,,,,,,,,NaN,,,,,,,,low,high,,,,,,,false,,,,,false,794132.5,794132.4000000954,,794132.2000000477,,794156.054,5,600,,
break_continue,html.Screen,10_10_2,2023-11-30T16:40:48.340Z,,,,,,,,,,,NaN,,,,,,,,low,high,,,,,,,false,,,,,false,794132.9000000954,794132.8000001907,,794132.600000143,,794156.054,5,600,,
sequence,flow.Sequence,10_10,2023-11-30T16:40:48.340Z,,,,,,,,,,,9979.464000190725,completion,,,,,,,low,high,,,,,,,false,,,,,false,794133,794132.8000001907,784136.468,784141.2000000477,784153.336,794156.054,5,600,,
trial,html.Screen,10_11_0,2023-11-30T16:40:53.276Z,,,,1,0.0127320821962457,-0.0315308940184827,,0.04,false,lh,4912.346000095364,response,-0.8863456605894133,0.7205763708756054,-0.8592866433047629,0.669235829566599,0.72397925172796,-0.8316343619463691,low,high,,ISIC_8156101.JPG,9,ISIC_0057815.JPG,28,25,false,0.11,ll,keypress(f),0,false,799068.7000000477,799068.4000000954,794139.317,794133.100000143,794156.054,799082.27,5,600,12,
break,html.Screen,10_11_1,2023-11-30T16:40:53.277Z,,,,,,,,,,,NaN,,,,,,,,low,high,,,,,,,false,,,,,false,799069.600000143,799069.4000000954,,799069,,799082.27,5,600,,
break_continue,html.Screen,10_11_2,2023-11-30T16:40:53.278Z,,,,,,,,,,,NaN,,,,,,,,low,high,,,,,,,false,,,,,false,799070.2000000477,799070,,799069.8000001907,,799082.27,5,600,,
sequence,flow.Sequence,10_11,2023-11-30T16:40:53.278Z,,,,,,,,,,,4913.945999999996,completion,,,,,,,low,high,,,,,,,false,,,,,false,799070.4000000954,799070,794139.317,794133.100000143,794156.054,799082.27,5,600,,
trial,html.Screen,10_12_0,2023-11-30T16:40:56.155Z,,,,1,0.0051046740562181,-0.0178832721027728,,0.04,false,lh,2864.8300001430325,response,-0.7770090828713646,0.7205763708756054,-0.8592866433047629,0.8312841515328998,0.72397925172796,-0.8316343619463691,low,high,,ISIC_9545819.JPG,9,ISIC_9072034.JPG,28,25,false,0.11,hh,keypress(i),0,false,801947.3000001907,801947.100000143,799065.646,799070.600000143,799082.27,801954.511,5,600,13,
break,html.Screen,10_12_1,2023-11-30T16:40:56.155Z,,,,,,,,,,,NaN,,,,,,,,low,high,,,,,,,false,,,,,false,801947.600000143,801947.600000143,,801947.4000000954,,801954.511,5,600,,
break_continue,html.Screen,10_12_2,2023-11-30T16:40:56.155Z,,,,,,,,,,,NaN,,,,,,,,low,high,,,,,,,false,,,,,false,801947.7000000477,801947.7000000477,,801947.600000143,,801954.511,5,600,,
sequence,flow.Sequence,10_12,2023-11-30T16:40:56.155Z,,,,,,,,,,,2865.430000047665,completion,,,,,,,low,high,,,,,,,false,,,,,false,801947.8000001907,801947.7000000477,799065.646,799070.600000143,799082.27,801954.511,5,600,,
trial,html.Screen,10_13_0,2023-11-30T16:41:00.819Z,,,,1,0.0189295602385628,0.0128812415435153,,0.04,false,lh,4657.289000190678,response,-0.8946880006769797,0.7205763708756054,-0.8592866433047629,0.7754915110667046,0.72397925172796,-0.8316343619463691,low,high,,ISIC_0010372.JPG,8,ISIC_7840728.JPG,28,25,false,0.11,ll,keypress(f),0,false,806612.100000143,806611.8000001907,801937.78,801947.8000001907,801954.511,806630.625,5,600,14,
break,html.Screen,10_13_1,2023-11-30T16:41:00.820Z,,,,,,,,,,,NaN,,,,,,,,low,high,,,,,,,false,,,,,false,806612.7000000477,806612.5,,806612.2000000477,,806630.625,5,600,,
break_continue,html.Screen,10_13_2,2023-11-30T16:41:00.820Z,,,,,,,,,,,NaN,,,,,,,,low,high,,,,,,,false,,,,,false,806612.9000000954,806612.9000000954,,806612.8000001907,,806630.625,5,600,,
sequence,flow.Sequence,10_13,2023-11-30T16:41:00.821Z,,,,,,,,,,,4658.389000095311,completion,,,,,,,low,high,,,,,,,false,,,,,false,806613.2000000477,806612.9000000954,801937.78,801947.8000001907,801954.511,806630.625,5,600,,
trial,html.Screen,10_14_0,2023-11-30T16:41:03.748Z,,,,1,-0.0071892445601978,0.0246015408628738,,0.04,true,hh,2909.7750000953674,response,0.781790419748954,0.7205763708756054,-0.8592866433047629,0.8127849324654722,0.72397925172796,-0.8316343619463691,high,high,,ISIC_0014133.JPG,10,ISIC_0008423.JPG,28,90,false,0.1,hh,keypress(i),0,false,809540.600000143,809540.4000000954,806597.043,806613.3000001907,806630.625,809552.826,5,600,15,
break,html.Screen,10_14_1,2023-11-30T16:41:03.749Z,,,,,,,,,,,NaN,,,,,,,,high,high,,,,,,,false,,,,,false,809541.600000143,809541.3000001907,,809540.9000000954,,809552.826,5,600,,
break_continue,html.Screen,10_14_2,2023-11-30T16:41:03.750Z,,,,,,,,,,,NaN,,,,,,,,high,high,,,,,,,false,,,,,false,809542.100000143,809542,,809541.8000001907,,809552.826,5,600,,
sequence,flow.Sequence,10_14,2023-11-30T16:41:03.750Z,,,,,,,,,,,2911.375,completion,,,,,,,high,high,,,,,,,false,,,,,false,809542.4000000954,809542,806597.043,806613.2000000477,806630.625,809552.826,5,600,,
trial,html.Screen,10_15_0,2023-11-30T16:41:11.339Z,,,,1,-0.0350697500805515,-0.0166617848231997,,0.04,false,lh,7579.0740000953665,response,-0.9235571765207048,0.7205763708756054,-0.8592866433047629,0.7832040253954599,0.72397925172796,-0.8316343619463691,low,high,,ISIC_0024423.JPG,9,ISIC_8796632.JPG,28,25,false,0.11,hh,keypress(i),0,false,817132.100000143,817131.9000000954,809536.122,809542.5,809552.826,817134.024,5,600,16,
break,html.Screen,10_15_1,2023-11-30T16:41:11.340Z,,,,,,,,,,,NaN,,,,,,,,low,high,,,,,,,false,,,,,false,817132.600000143,817132.4000000954,,817132.2000000477,,817134.024,5,600,,
break_continue,html.Screen,10_15_2,2023-11-30T16:41:11.340Z,,,,,,,,,,,NaN,,,,,,,,low,high,,,,,,,false,,,,,false,817132.8000001907,817132.7000000477,,817132.600000143,,817134.024,5,600,,
sequence,flow.Sequence,10_15,2023-11-30T16:41:11.340Z,,,,,,,,,,,7579.874000047683,completion,,,,,,,low,high,,,,,,,false,,,,,false,817133,817132.7000000477,809536.122,809542.5,809552.826,817134.024,5,600,,
trial,html.Screen,10_16_0,2023-11-30T16:41:16.843Z,,,,1,0.0367218428225813,-0.0026956749740767,,0.04,true,lh,5501.476000000024,response,-0.9254369922344792,0.7205763708756054,-0.8592866433047629,0.7020073261471239,0.72397925172796,-0.8316343619463691,low,high,,ISIC_7212271.JPG,8,ISIC_3236964.JPG,28,25,false,0.11,lh,keypress(e),0,false,822635.5,822635.5,817117.457,817133,817134.024,822644.717,5,600,17,
break,html.Screen,10_16_1,2023-11-30T16:41:16.843Z,,,,,,,,,,,NaN,,,,,,,,low,high,,,,,,,false,,,,,false,822636,822635.9000000954,,822635.7000000477,,822644.717,5,600,,
break_continue,html.Screen,10_16_2,2023-11-30T16:41:16.844Z,,,,,,,,,,,NaN,,,,,,,,low,high,,,,,,,false,,,,,false,822636.2000000477,822636.2000000477,,822636,,822644.717,5,600,,
sequence,flow.Sequence,10_16,2023-11-30T16:41:16.844Z,,,,,,,,,,,5502.176000047708,completion,,,,,,,low,high,,,,,,,false,,,,,false,822636.3000001907,822636.2000000477,817117.457,817133,817134.024,822644.717,5,600,,
trial,html.Screen,10_17_0,2023-11-30T16:41:21.683Z,,,,1,0.010035581303589,-0.0100711721396864,,0.04,false,lh,4830.683000095421,response,-0.755448735026571,0.7205763708756054,-0.8592866433047629,0.6826298758999687,0.72397925172796,-0.8316343619463691,low,high,,ISIC_0030592.JPG,8,ISIC_3026660.JPG,28,25,false,0.11,hh,keypress(i),0,false,827475.5,827475.4000000954,822628.003,822636.4000000954,822644.717,827487.61,5,600,18,
break,html.Screen,10_17_1,2023-11-30T16:41:21.683Z,,,,,,,,,,,NaN,,,,,,,,low,high,,,,,,,false,,,,,false,827475.9000000954,827475.8000001907,,827475.600000143,,827487.61,5,600,,
break_continue,html.Screen,10_17_2,2023-11-30T16:41:21.684Z,,,,,,,,,,,NaN,,,,,,,,low,high,,,,,,,false,,,,,false,827476.100000143,827476.100000143,,827476,,827487.61,5,600,,
sequence,flow.Sequence,10_17,2023-11-30T16:41:21.684Z,,,,,,,,,,,4831.383000143105,completion,,,,,,,low,high,,,,,,,false,,,,,false,827476.2000000477,827476.100000143,822628.003,822636.3000001907,822644.717,827487.61,5,600,,
trial,html.Screen,10_18_0,2023-11-30T16:41:29.828Z,,,,1,-0.0166849894750452,0.0371614812368835,,0.04,false,hh,8132.290000095381,response,0.7729330860069953,0.7205763708756054,-0.8592866433047629,0.6859504297723743,0.72397925172796,-0.8316343619463691,high,high,,ISIC_6231450.JPG,9,ISIC_6548734.JPG,28,90,false,0.1,ll,keypress(f),0,false,835620.100000143,835619.9000000954,827470.951,827476.3000001907,827487.61,835636.88,5,600,19,
break,html.Screen,10_18_1,2023-11-30T16:41:29.828Z,,,,,,,,,,,NaN,,,,,,,,high,high,,,,,,,false,,,,,false,835620.7000000477,835620.600000143,,835620.3000001907,,835636.88,5,600,,
break_continue,html.Screen,10_18_2,2023-11-30T16:41:29.828Z,,,,,,,,,,,NaN,,,,,,,,high,high,,,,,,,false,,,,,false,835621.100000143,835621,,835620.9000000954,,835636.88,5,600,,
sequence,flow.Sequence,10_18,2023-11-30T16:41:29.829Z,,,,,,,,,,,8133.390000000014,completion,,,,,,,high,high,,,,,,,false,,,,,false,835621.2000000477,835621,827470.951,827476.3000001907,827487.61,835636.88,5,600,,
trial,html.Screen,10_19_0,2023-11-30T16:41:41.996Z,,,,1,-0.0158987717472563,-0.0292472192292015,,0.04,false,lh,12151.320000047679,response,-0.7643647580358989,0.7205763708756054,-0.8592866433047629,0.6630207180203901,0.72397925172796,-0.8316343619463691,low,high,,ISIC_1366765.JPG,9,ISIC_0028886.JPG,28,25,false,0.11,hl,keypress(j),0,false,847788.3000001907,847788.2000000477,835620.182,835621.3000001907,835636.88,847793.652,5,600,20,
break,html.Screen,10_19_1,2023-11-30T16:41:41.997Z,,,,,,,,,,,NaN,,,,,,,,low,high,,,,,,,false,,,,,false,847789.100000143,847788.9000000954,,847788.600000143,,847793.652,5,600,,
break_continue,html.Screen,10_19_2,2023-11-30T16:41:41.997Z,,,,,,,,,,,NaN,,,,,,,,low,high,,,,,,,false,,,,,false,847789.5,847789.4000000954,,847789.3000001907,,847793.652,5,600,,
sequence,flow.Sequence,10_19,2023-11-30T16:41:41.997Z,,,,,,,,,,,12152.520000095363,completion,,,,,,,low,high,,,,,,,false,,,,,false,847789.7000000477,847789.4000000954,835620.182,835621.3000001907,835636.88,847793.652,5,600,,
trial,html.Screen,10_20_0,2023-11-30T16:41:45.420Z,,,,1,-0.0071892445601978,0.0246015408628738,,0.04,false,hl,3417.9480001430493,response,0.8069562753553525,0.7205763708756054,-0.8592866433047629,-0.9101764190105358,0.72397925172796,-0.8316343619463691,high,low,,ISIC_0014133.JPG,8,ISIC_0046596.JPG,28,27,false,0.11,ll,keypress(f),0,false,851211.8000001907,851211.600000143,847777.01,847789.9000000954,847793.652,851216.97,5,600,21,
break,html.Screen,10_20_1,2023-11-30T16:41:45.420Z,,,,,,,,,,,NaN,,,,,,,,high,low,,,,,,,false,,,,,false,851212.100000143,851212,,851211.9000000954,,851216.97,5,600,,
break_continue,html.Screen,10_20_2,2023-11-30T16:41:45.420Z,,,,,,,,,,,NaN,,,,,,,,high,low,,,,,,,false,,,,,false,851212.3000001907,851212.2000000477,,851212.2000000477,,851216.97,5,600,,
sequence,flow.Sequence,10_20,2023-11-30T16:41:45.420Z,,,,,,,,,,,3418.548000047682,completion,,,,,,,high,low,,,,,,,false,,,,,false,851212.4000000954,851212.2000000477,847777.01,847789.8000001907,847793.652,851216.97,5,600,,
trial,html.Screen,10_21_0,2023-11-30T16:41:53.380Z,,,,1,0.0063515208248796,0.0194177605767913,,0.04,false,ll,7955.130000143079,response,-0.8085595413214888,0.7205763708756054,-0.8592866433047629,-0.8518108559233278,0.72397925172796,-0.8316343619463691,low,low,,ISIC_5281908.JPG,9,ISIC_0011728.JPG,28,54,false,0.1,lh,keypress(e),0,false,859172.3000001907,859172.100000143,851200.447,851212.4000000954,851216.97,859182.429,5,600,22,
break,html.Screen,10_21_1,2023-11-30T16:41:53.381Z,,,,,,,,,,,NaN,,,,,,,,low,low,,,,,,,false,,,,,false,859173.2000000477,859173,,859172.600000143,,859182.429,5,600,,
break_continue,html.Screen,10_21_2,2023-11-30T16:41:53.382Z,,,,,,,,,,,NaN,,,,,,,,low,low,,,,,,,false,,,,,false,859173.600000143,859173.5,,859173.3000001907,,859182.429,5,600,,
sequence,flow.Sequence,10_21,2023-11-30T16:41:53.382Z,,,,,,,,,,,7956.530000000028,completion,,,,,,,low,low,,,,,,,false,,,,,false,859173.9000000954,859173.5,851200.447,851212.4000000954,851216.97,859182.429,5,600,,
trial,html.Screen,10_22_0,2023-11-30T16:41:59.484Z,,,,1,-0.0118555311043871,-0.0087774532070196,,0.04,false,hl,6093.471000095364,response,0.6994073698329565,0.7205763708756054,-0.8592866433047629,-0.7326891894107508,0.72397925172796,-0.8316343619463691,high,low,,ISIC_6488658.JPG,10,ISIC_3428523.JPG,28,27,false,0.11,hh,keypress(i),0,false,865276,865275.9000000954,859165.934,859174,859182.429,865294.858,5,600,23,
break,html.Screen,10_22_1,2023-11-30T16:41:59.485Z,,,,,,,,,,,NaN,,,,,,,,high,low,,,,,,,false,,,,,false,865276.600000143,865276.5,,865276.3000001907,,865294.858,5,600,,
break_continue,html.Screen,10_22_2,2023-11-30T16:41:59.485Z,,,,,,,,,,,NaN,,,,,,,,high,low,,,,,,,false,,,,,false,865277,865277,,865276.8000001907,,865294.858,5,600,,
sequence,flow.Sequence,10_22,2023-11-30T16:41:59.485Z,,,,,,,,,,,6094.570999999996,completion,,,,,,,high,low,,,,,,,false,,,,,false,865277.2000000477,865277,859165.934,859174,859182.429,865294.858,5,600,,
trial,html.Screen,10_23_0,2023-11-30T16:42:08.828Z,,,,1,0.0189295602385628,0.0128812415435153,,0.04,false,ll,9324.742000143044,response,-0.7683530797100027,0.7205763708756054,-0.8592866433047629,-0.830154015861423,0.72397925172796,-0.8316343619463691,low,low,,ISIC_0010372.JPG,8,ISIC_0029092.JPG,28,54,false,0.1,lh,keypress(e),0,false,874619.8000001907,874619.600000143,865260.882,865277.3000001907,865294.858,874629.165,5,600,24,
break,html.Screen,10_23_1,2023-11-30T16:42:08.828Z,,,,,,,,,,,NaN,,,,,,,,low,low,,,,,,,false,,,,,false,874620.3000001907,874620.2000000477,,874619.9000000954,,874629.165,5,600,,
break_continue,html.Screen,10_23_2,2023-11-30T16:42:08.829Z,,,,,,,,,,,NaN,,,,,,,,low,low,,,,,,,false,,,,,false,874620.600000143,874620.5,,874620.4000000954,,874629.165,5,600,,
sequence,flow.Sequence,10_23,2023-11-30T16:42:08.829Z,,,,,,,,,,,9325.641999999993,completion,,,,,,,low,low,,,,,,,false,,,,,false,874620.8000001907,874620.5,865260.882,865277.3000001907,865294.858,874629.165,5,600,,
trial,html.Screen,10_24_0,2023-11-30T16:42:14.163Z,,,,1,-0.0399381815506136,-0.0177751789152893,,0.04,true,hl,5326.23500009533,response,0.7216350243859598,0.7205763708756054,-0.8592866433047629,-0.7246516545871774,0.72397925172796,-0.8316343619463691,high,low,,ISIC_3981425.JPG,9,ISIC_0254447.JPG,28,27,false,0.11,hl,keypress(j),0,false,879955.5,879955.4000000954,874612.59,874620.8000001907,874629.165,879973.272,5,600,25,
break,html.Screen,10_24_1,2023-11-30T16:42:14.164Z,,,,,,,,,,,NaN,,,,,,,,high,low,,,,,,,false,,,,,false,879955.8000001907,879955.7000000477,,879955.600000143,,879973.272,5,600,,
break_continue,html.Screen,10_24_2,2023-11-30T16:42:14.164Z,,,,,,,,,,,NaN,,,,,,,,high,low,,,,,,,false,,,,,false,879956,879956,,879955.8000001907,,879973.272,5,600,,
sequence,flow.Sequence,10_24,2023-11-30T16:42:14.164Z,,,,,,,,,,,5326.834999999963,completion,,,,,,,high,low,,,,,,,false,,,,,false,879956.100000143,879956,874612.59,874620.8000001907,874629.165,879973.272,5,600,,
trial,html.Screen,10_25_0,2023-11-30T16:42:18.060Z,,,,1,-0.0399381815506136,-0.0177751789152893,,0.04,false,hl,3878.4280000476865,response,0.6666088363970417,0.7205763708756054,-0.8592866433047629,-0.8570193019308756,0.72397925172796,-0.8316343619463691,high,low,,ISIC_3981425.JPG,9,ISIC_1306790.JPG,28,27,false,0.11,hh,keypress(i),0,false,883851.8000001907,883851.7000000477,879939.726,879956.2000000477,879973.272,883863.912,5,600,26,
break,html.Screen,10_25_1,2023-11-30T16:42:18.060Z,,,,,,,,,,,NaN,,,,,,,,high,low,,,,,,,false,,,,,false,883852.3000001907,883852.2000000477,,883852,,883863.912,5,600,,
break_continue,html.Screen,10_25_2,2023-11-30T16:42:18.060Z,,,,,,,,,,,NaN,,,,,,,,high,low,,,,,,,false,,,,,false,883852.600000143,883852.5,,883852.3000001907,,883863.912,5,600,,
sequence,flow.Sequence,10_25,2023-11-30T16:42:18.061Z,,,,,,,,,,,3879.228000000003,completion,,,,,,,high,low,,,,,,,false,,,,,false,883852.7000000477,883852.5,879939.726,879956.2000000477,879973.272,883863.912,5,600,,
trial,html.Screen,10_26_0,2023-11-30T16:42:25.012Z,,,,1,-0.0071892445601978,0.0246015408628738,,0.04,true,ll,6940.2880000476725,response,-0.8989536012553516,0.7205763708756054,-0.8592866433047629,-0.7316945136423088,0.72397925172796,-0.8316343619463691,low,low,,ISIC_0014133.JPG,9,ISIC_0032903.JPG,28,54,false,0.1,ll,keypress(f),0,false,890804.4000000954,890804.2000000477,883847.256,883852.7000000477,883863.912,890810.627,5,600,27,
break,html.Screen,10_26_1,2023-11-30T16:42:25.013Z,,,,,,,,,,,NaN,,,,,,,,low,low,,,,,,,false,,,,,false,890805.100000143,890804.9000000954,,890804.600000143,,890810.627,5,600,,
break_continue,html.Screen,10_26_2,2023-11-30T16:42:25.014Z,,,,,,,,,,,NaN,,,,,,,,low,low,,,,,,,false,,,,,false,890805.600000143,890805.4000000954,,890805.3000001907,,890810.627,5,600,,
sequence,flow.Sequence,10_26,2023-11-30T16:42:25.014Z,,,,,,,,,,,6941.488000095356,completion,,,,,,,low,low,,,,,,,false,,,,,false,890805.8000001907,890805.4000000954,883847.256,883852.7000000477,883863.912,890810.627,5,600,,
trial,html.Screen,10_27_0,2023-11-30T16:42:34.660Z,,,,1,0.0367218428225813,-0.0026956749740767,,0.04,true,hl,9641.173000190756,response,0.7785184841253222,0.7205763708756054,-0.8592866433047629,-0.8564302235174217,0.72397925172796,-0.8316343619463691,high,low,,ISIC_7212271.JPG,8,ISIC_6529073.JPG,28,27,false,0.11,hl,keypress(j),0,false,900451.9000000954,900451.8000001907,890794.131,890806,890810.627,900462.766,5,600,28,
break,html.Screen,10_27_1,2023-11-30T16:42:34.660Z,,,,,,,,,,,NaN,,,,,,,,high,low,,,,,,,false,,,,,false,900452.4000000954,900452.3000001907,,900452.100000143,,900462.766,5,600,,
break_continue,html.Screen,10_27_2,2023-11-30T16:42:34.661Z,,,,,,,,,,,NaN,,,,,,,,high,low,,,,,,,false,,,,,false,900452.8000001907,900452.600000143,,900452.5,,900462.766,5,600,,
sequence,flow.Sequence,10_27,2023-11-30T16:42:34.661Z,,,,,,,,,,,9641.973000143073,completion,,,,,,,high,low,,,,,,,false,,,,,false,900452.9000000954,900452.600000143,890794.131,890806,890810.627,900462.766,5,600,,
trial,html.Screen,10_28_0,2023-11-30T16:42:41.500Z,,,,1,-0.0071892445601978,0.0246015408628738,,0.04,true,hh,6829.434000047739,response,0.7707486723916182,0.7205763708756054,-0.8592866433047629,0.6799283093967085,0.72397925172796,-0.8316343619463691,high,high,,ISIC_0014133.JPG,9,ISIC_2680640.JPG,28,90,false,0.1,hh,keypress(i),0,false,907292.4000000954,907292.2000000477,900446.099,900453,900462.766,907309.398,5,600,29,
break,html.Screen,10_28_1,2023-11-30T16:42:41.501Z,,,,,,,,,,,NaN,,,,,,,,high,high,,,,,,,false,,,,,false,907293.2000000477,907293,,907292.600000143,,907309.398,5,600,,
break_continue,html.Screen,10_28_2,2023-11-30T16:42:41.502Z,,,,,,,,,,,NaN,,,,,,,,high,high,,,,,,,false,,,,,false,907293.600000143,907293.5,,907293.3000001907,,907309.398,5,600,,
sequence,flow.Sequence,10_28,2023-11-30T16:42:41.502Z,,,,,,,,,,,6830.734000000055,completion,,,,,,,high,high,,,,,,,false,,,,,false,907293.8000001907,907293.5,900446.099,900453,900462.766,907309.398,5,600,,
trial,html.Screen,10_29_0,2023-11-30T16:42:51.308Z,,,,1,-0.0377791839943904,0.0227626648172468,,0.04,false,hh,9790.202000143006,response,0.717362412628732,0.7205763708756054,-0.8592866433047629,0.6309238187263897,0.72397925172796,-0.8316343619463691,high,high,,ISIC_7167479.JPG,9,ISIC_8959928.JPG,28,90,false,0.1,lh,keypress(e),0,false,917099.7000000477,917099.600000143,907292.73,907293.9000000954,907309.398,917111.786,5,600,30,
break,html.Screen,10_29_1,2023-11-30T16:42:51.309Z,,,,,,,,,,,NaN,,,,,,,,high,high,,,,,,,false,,,,,false,917100.100000143,917100,,917099.8000001907,,917111.786,5,600,,
break_continue,html.Screen,10_29_2,2023-11-30T16:42:51.309Z,,,,,,,,,,,NaN,,,,,,,,high,high,,,,,,,false,,,,,false,917100.4000000954,917100.3000001907,,917100.2000000477,,917111.786,5,600,,
sequence,flow.Sequence,10_29,2023-11-30T16:42:51.309Z,,,,,,,,,,,9790.90200019069,completion,,,,,,,high,high,,,,,,,false,,,,,false,917100.4000000954,917100.3000001907,907292.73,907293.8000001907,907309.398,917111.786,5,600,,
trial,html.Screen,10_30_0,2023-11-30T16:42:55.717Z,,,,1,-0.0023664502831079,-0.0252784582169994,,0.04,false,hh,4396.714000000036,response,0.6861075085202738,0.7205763708756054,-0.8592866433047629,0.6556597935656793,0.72397925172796,-0.8316343619463691,high,high,,ISIC_4156010.JPG,10,ISIC_0058199.JPG,28,90,false,0.1,ll,keypress(f),0,false,921508.8000001907,921508.5,917095.278,917100.4000000954,917111.786,921520.384,5,600,31,
break,html.Screen,10_30_1,2023-11-30T16:42:55.718Z,,,,,,,,,,,NaN,,,,,,,,high,high,,,,,,,false,,,,,false,921510,921509.7000000477,,921509.2000000477,,921520.384,5,600,,
break_continue,html.Screen,10_30_2,2023-11-30T16:42:55.719Z,,,,,,,,,,,NaN,,,,,,,,high,high,,,,,,,false,,,,,false,921510.5,921510.4000000954,,921510.100000143,,921520.384,5,600,,
sequence,flow.Sequence,10_30,2023-11-30T16:42:55.719Z,,,,,,,,,,,4398.614000095404,completion,,,,,,,high,high,,,,,,,false,,,,,false,921510.7000000477,921510.4000000954,917095.278,917100.4000000954,917111.786,921520.384,5,600,,
trial,html.Screen,10_31_0,2023-11-30T16:43:00.804Z,,,,1,0.0051046740562181,-0.0178832721027728,,0.04,false,lh,5075.116000000038,response,-0.8946880006769797,0.7205763708756054,-0.8592866433047629,0.7754915110667046,0.72397925172796,-0.8316343619463691,low,high,,ISIC_9545819.JPG,8,ISIC_7840728.JPG,28,25,false,0.11,ll,keypress(f),0,false,926595.7000000477,926595.5,921503.732,921510.9000000954,921520.384,926615.095,5,600,32,
break,html.Screen,10_31_1,2023-11-30T16:43:00.805Z,,,,,,,,,,,NaN,,,,,,,,low,high,,,,,,,false,,,,,false,926596.100000143,926596,,926595.8000001907,,926615.095,5,600,,
break_continue,html.Screen,10_31_2,2023-11-30T16:43:00.805Z,,,,,,,,,,,NaN,,,,,,,,low,high,,,,,,,false,,,,,false,926596.2000000477,926596.100000143,,926596.100000143,,926615.095,5,600,,
sequence,flow.Sequence,10_31,2023-11-30T16:43:00.805Z,,,,,,,,,,,5075.716000143089,completion,,,,,,,low,high,,,,,,,false,,,,,false,926596.3000001907,926596.100000143,921503.732,921510.9000000954,921520.384,926615.095,5,600,,
trial,html.Screen,10_32_0,2023-11-30T16:43:06.820Z,,,,1,-0.0350697500805515,-0.0166617848231997,,0.04,false,hh,5996.705000190763,response,0.7707486723916182,0.7205763708756054,-0.8592866433047629,0.6799283093967085,0.72397925172796,-0.8316343619463691,high,high,,ISIC_0024423.JPG,9,ISIC_2680640.JPG,28,90,false,0.1,lh,keypress(e),0,false,932611.9000000954,932611.8000001907,926580.259,926596.4000000954,926615.095,932625.491,5,600,33,
break,html.Screen,10_32_1,2023-11-30T16:43:06.821Z,,,,,,,,,,,NaN,,,,,,,,high,high,,,,,,,false,,,,,false,932612.5,932612.4000000954,,932612.2000000477,,932625.491,5,600,,
break_continue,html.Screen,10_32_2,2023-11-30T16:43:06.821Z,,,,,,,,,,,NaN,,,,,,,,high,high,,,,,,,false,,,,,false,932612.8000001907,932612.7000000477,,932612.600000143,,932625.491,5,600,,
sequence,flow.Sequence,10_32,2023-11-30T16:43:06.821Z,,,,,,,,,,,5997.605000047712,completion,,,,,,,high,high,,,,,,,false,,,,,false,932612.9000000954,932612.7000000477,926580.259,926596.3000001907,926615.095,932625.491,5,600,,
trial,html.Screen,10_33_0,2023-11-30T16:43:10.021Z,,,,1,-0.012810673904807,0.00400964452501,,0.04,true,ll,3186.7090000476455,response,-0.9286162906661966,0.7205763708756054,-0.8592866433047629,-0.8993115431771105,0.72397925172796,-0.8316343619463691,low,low,,ISIC_0064656.JPG,9,ISIC_0011857.JPG,28,54,false,0.1,ll,keypress(f),0,false,935812.4000000954,935812.2000000477,932608.589,932613,932625.491,935814.867,5,600,34,
break,html.Screen,10_33_1,2023-11-30T16:43:10.022Z,,,,,,,,,,,NaN,,,,,,,,low,low,,,,,,,false,,,,,false,935813.3000001907,935813.100000143,,935812.7000000477,,935814.867,5,600,,
break_continue,html.Screen,10_33_2,2023-11-30T16:43:10.022Z,,,,,,,,,,,NaN,,,,,,,,low,low,,,,,,,false,,,,,false,935813.8000001907,935813.7000000477,,935813.4000000954,,935814.867,5,600,,
sequence,flow.Sequence,10_33,2023-11-30T16:43:10.023Z,,,,,,,,,,,3188.2090000476455,completion,,,,,,,low,low,,,,,,,false,,,,,false,935814.100000143,935813.7000000477,932608.589,932613,932625.491,935814.867,5,600,,
trial,html.Screen,10_34_0,2023-11-30T16:43:14.645Z,,,,1,-0.0071892445601978,0.0246015408628738,,0.04,false,hh,4621.133000000031,response,0.8048254626385085,0.7205763708756054,-0.8592866433047629,0.6442863544208849,0.72397925172796,-0.8316343619463691,high,high,,ISIC_0014133.JPG,10,ISIC_0147869.JPG,28,90,false,0.1,lh,keypress(e),0,false,940436.100000143,940436,935798.248,935814.2000000477,935814.867,940440.449,5,600,35,
break,html.Screen,10_34_1,2023-11-30T16:43:14.645Z,,,,,,,,,,,NaN,,,,,,,,high,high,,,,,,,false,,,,,false,940436.8000001907,940436.7000000477,,940436.4000000954,,940440.449,5,600,,
break_continue,html.Screen,10_34_2,2023-11-30T16:43:14.646Z,,,,,,,,,,,NaN,,,,,,,,high,high,,,,,,,false,,,,,false,940437.2000000477,940437.100000143,,940436.9000000954,,940440.449,5,600,,
sequence,flow.Sequence,10_34,2023-11-30T16:43:14.646Z,,,,,,,,,,,4622.233000143082,completion,,,,,,,high,high,,,,,,,false,,,,,false,940437.4000000954,940437.100000143,935798.248,935814.100000143,935814.867,940440.449,5,600,,
trial,html.Screen,10_35_0,2023-11-30T16:43:18.173Z,,,,1,-0.0399381815506136,-0.0177751789152893,,0.04,false,lh,3523.3510001907125,response,-0.9254369922344792,0.7205763708756054,-0.8592866433047629,0.7020073261471239,0.72397925172796,-0.8316343619463691,low,high,,ISIC_3981425.JPG,9,ISIC_3236964.JPG,28,25,false,0.11,ll,keypress(f),0,false,943964,943963.8000001907,940423.865,940437.600000143,940440.449,943980.855,5,600,36,
break,html.Screen,10_35_1,2023-11-30T16:43:18.173Z,,,,,,,,,,,NaN,,,,,,,,low,high,,,,,,,false,,,,,false,943964.5,943964.4000000954,,943964.100000143,,943980.855,5,600,,
break_continue,html.Screen,10_35_2,2023-11-30T16:43:18.173Z,,,,,,,,,,,NaN,,,,,,,,low,high,,,,,,,false,,,,,false,943964.8000001907,943964.7000000477,,943964.600000143,,943980.855,5,600,,
sequence,flow.Sequence,10_35,2023-11-30T16:43:18.173Z,,,,,,,,,,,3524.2510000476614,completion,,,,,,,low,high,,,,,,,false,,,,,false,943964.9000000954,943964.7000000477,940423.865,940437.5,940440.449,943980.855,5,600,,
trial,html.Screen,10_36_0,2023-11-30T16:43:23.333Z,,,,1,0.010035581303589,-0.0100711721396864,,0.04,true,hh,5143.345000047702,response,0.6818592098114851,0.7205763708756054,-0.8592866433047629,0.6421095152104598,0.72397925172796,-0.8316343619463691,high,high,,ISIC_0030592.JPG,9,ISIC_3063260.JPG,28,90,false,0.1,hh,keypress(i),0,false,949124.5,949124.2000000477,943964.193,943965,943980.855,949140.769,5,600,37,
break,html.Screen,10_36_1,2023-11-30T16:43:23.334Z,,,,,,,,,,,NaN,,,,,,,,high,high,,,,,,,false,,,,,false,949125.4000000954,949125.2000000477,,949124.8000001907,,949140.769,5,600,,
break_continue,html.Screen,10_36_2,2023-11-30T16:43:23.334Z,,,,,,,,,,,NaN,,,,,,,,high,high,,,,,,,false,,,,,false,949126,949125.8000001907,,949125.600000143,,949140.769,5,600,,
sequence,flow.Sequence,10_36,2023-11-30T16:43:23.335Z,,,,,,,,,,,5144.9450001907535,completion,,,,,,,high,high,,,,,,,false,,,,,false,949126.100000143,949125.8000001907,943964.193,943965,943980.855,949140.769,5,600,,
trial,html.Screen,10_37_0,2023-11-30T16:43:26.484Z,,,,1,-0.0158987717472563,-0.0292472192292015,,0.04,true,hl,3135.0310001907637,response,0.6352594783076819,0.7205763708756054,-0.8592866433047629,-0.753114581687865,0.72397925172796,-0.8316343619463691,high,low,,ISIC_1366765.JPG,9,ISIC_0010145.JPG,28,27,false,0.11,hl,keypress(j),0,false,952275.9000000954,952275.8000001907,949124.228,949126.3000001907,949140.769,952280.198,5,600,38,
break,html.Screen,10_37_1,2023-11-30T16:43:26.485Z,,,,,,,,,,,NaN,,,,,,,,high,low,,,,,,,false,,,,,false,952276.4000000954,952276.3000001907,,952276.100000143,,952280.198,5,600,,
break_continue,html.Screen,10_37_2,2023-11-30T16:43:26.485Z,,,,,,,,,,,NaN,,,,,,,,high,low,,,,,,,false,,,,,false,952276.8000001907,952276.7000000477,,952276.5,,952280.198,5,600,,
sequence,flow.Sequence,10_37,2023-11-30T16:43:26.485Z,,,,,,,,,,,3135.9310000477126,completion,,,,,,,high,low,,,,,,,false,,,,,false,952276.9000000954,952276.7000000477,949124.228,949126.2000000477,949140.769,952280.198,5,600,,
trial,html.Screen,10_38_0,2023-11-30T16:43:29.604Z,,,,1,0.0051046740562181,-0.0178832721027728,,0.04,true,hh,3115.302000000025,response,0.7845642270064209,0.7205763708756054,-0.8592866433047629,0.7521372420693155,0.72397925172796,-0.8316343619463691,high,high,,ISIC_9545819.JPG,9,ISIC_1336351.JPG,28,90,false,0.1,hh,keypress(i),0,false,955395.600000143,955395.5,952263.7,952277,952280.198,955402.901,5,600,39,
