sender,sender_type,sender_id,timestamp,meta,,age,blockNo,c1,c2,condition,control_tolerance,correct,correctResponse,duration,ended_on,f1,f1_high,f1_low,f2,f2_high,f2_low,feature_level1,feature_level2,gender,img_left,img_reveal,img_right,n_control_images,n_target_images,practice,range_tolerance,response,response_action,selection_duration,staircase,time_commit,time_end,time_render,time_run,time_show,time_switch,total_blocks,total_trials,trialNo,url
informed_consent,html.Screen,0,2023-11-27T20:36:31.846Z,"{""labjs_version"":""20.2.4"",""labjs_build"":{""flavor"":""development"",""commit"":""f5b4a49f956347addd546a832a3327688c2c0fef""},""location"":""https://labjs.felixhenninger.com/api/labjs_preview/index.html"",""userAgent"":""Mozilla/5.0 (Windows NT 10.0; Win64; x64) AppleWebKit/537.36 (KHTML, like Gecko) Chrome/119.0.0.0 Safari/537.36"",""platform"":""Win32"",""language"":""en-US"",""locale"":""en-US"",""timeZone"":""America/Chicago"",""timezoneOffset"":360,""screen_width"":1920,""screen_height"":1080,""scroll_width"":945,""scroll_height"":918,""window_innerWidth"":945,""window_innerHeight"":966,""devicePixelRatio"":1}",,,,,,,,,,61955.86299985695,response,,,,,,,,,,,,,,,,,consent,click button,,,62848.59999990463,62839.89999985695,867.365,854.1999998092651,884.037,62867.456,,,,{}
Demography form,html.Form,1,2023-11-27T20:36:45.317Z,,,18,,,,,,,,13452.343999952318,form submission,,,,,,,,,female,,,,,,,,,,,,76319.89999985695,76319.79999995232,62850.559,62848.699999809265,62867.456,76334.085,,,,
Welcome,html.Screen,2,2023-11-27T20:37:39.310Z,,,,,,,"[""asym"",""col""]",,,,53977.014999904626,response,,,,,,,,,,,,,,,,,continue,click button,,,130311.59999990463,130311.09999990463,76317.198,76320,76334.085,130317.019,,,,
demo_instructions,html.Screen,3,2023-11-27T20:38:49.894Z,,,,,,,,,,,70577.88099985695,response,,,,,,,,,,,,,,,,,continue,click button,,,200895.5,200894.89999985695,130300.53,130311.79999995232,130317.019,200917.09,,,,
trial,html.Screen,4_0_0,2023-11-27T20:39:09.089Z,,,,0,-1.089914260719518,-1.1695563571046357,,,true,hh,19173.009999904636,response,1.204229955025689,1.2,-1.2,1.0874249761617445,1.2,-1.2,high,high,,ISIC_0030695.JPG,,ISIC_0056930.JPG,,25,true,0.15000000000000002,hh,keypress(i),100,false,220090.5,220090.09999990463,200900.154,200895.69999980927,200917.09,220116.797,1,16,1,
sequence,flow.Sequence,4_0,2023-11-27T20:39:09.090Z,,,,,,,,,,,19173.009999904636,completion,,,,,,,high,high,,,,,,,true,,,,,false,220091.09999990463,220090.09999990463,200900.154,200895.69999980927,200917.09,220116.797,1,16,,
trial,html.Screen,4_1_0,2023-11-27T20:39:19.010Z,,,,0,-1.3034518282811869,-1.0897657776277234,,,true,hh,9894.102999856957,response,1.3471772753257971,1.2,-1.2,1.055978100098093,1.2,-1.2,high,high,,ISIC_0071988.JPG,,ISIC_2077116.JPG,,25,true,0.15000000000000002,hh,keypress(i),100,false,230011.19999980927,230010.89999985695,220100.175,220091.29999995232,220116.797,230033.576,1,16,2,
sequence,flow.Sequence,4_1,2023-11-27T20:39:19.011Z,,,,,,,,,,,9894.102999856957,completion,,,,,,,high,high,,,,,,,true,,,,,false,230011.89999985695,230010.89999985695,220100.175,220091.29999995232,220116.797,230033.576,1,16,,
trial,html.Screen,4_2_0,2023-11-27T20:39:23.266Z,,,,0,-1.1671212908494544,-1.1286681796701683,,,true,hh,4232.823999856948,response,1.0959058628476686,1.2,-1.2,1.2921331918483707,1.2,-1.2,high,high,,ISIC_0065022.JPG,,ISIC_5920470.JPG,,25,true,0.15000000000000002,hh,keypress(i),100,false,234266.59999990463,234266.39999985695,230016.812,230012.19999980927,230033.576,234283.673,1,16,3,
sequence,flow.Sequence,4_2,2023-11-27T20:39:23.266Z,,,,,,,,,,,4232.823999856948,completion,,,,,,,high,high,,,,,,,true,,,,,false,234266.69999980927,234266.39999985695,230016.812,230012,230033.576,234283.673,1,16,,
trial,html.Screen,4_3_0,2023-11-27T20:39:27.446Z,,,,0,-1.1715181192107684,-1.2251845559044463,,,true,hh,4163.526999809255,response,1.294521945180264,1.2,-1.2,1.3078626540563885,1.2,-1.2,high,high,,ISIC_0011957.JPG,,ISIC_3601224.JPG,,25,true,0.15000000000000002,hh,keypress(i),100,false,238447.39999985695,238447.19999980927,234266.767,234266.79999995232,234283.673,238466.943,1,16,4,
sequence,flow.Sequence,4_3,2023-11-27T20:39:27.447Z,,,,,,,,,,,4163.526999809255,completion,,,,,,,high,high,,,,,,,true,,,,,false,238447.89999985695,238447.19999980927,234266.767,234266.79999995232,234283.673,238466.943,1,16,,
trial,html.Screen,4_4_0,2023-11-27T20:39:36.852Z,,,,0,1.1655508270784471,1.1162776063248168,,,true,ll,9385.656999904633,response,-1.194799101954455,1.2,-1.2,-1.2071632388858642,1.2,-1.2,low,low,,ISIC_5509946.JPG,,ISIC_4347535.JPG,,27,true,0.12,ll,keypress(f),100,false,247852.89999985695,247852.59999990463,238450.097,238448,238466.943,247883.604,1,16,5,
sequence,flow.Sequence,4_4,2023-11-27T20:39:36.852Z,,,,,,,,,,,9385.656999904633,completion,,,,,,,low,low,,,,,,,true,,,,,false,247853.5,247852.59999990463,238450.097,238448,238466.943,247883.604,1,16,,
trial,html.Screen,4_5_0,2023-11-27T20:39:49.110Z,,,,0,1.0885984639975343,1.2042618719491294,,,true,ll,12226.795999856957,response,-1.2893246069103816,1.2,-1.2,-1.0655029133871594,1.2,-1.2,low,low,,ISIC_0012740.JPG,,ISIC_0070747.JPG,,41,true,0.15000000000000002,ll,keypress(f),100,false,260110.79999995232,260110.39999985695,247866.761,247853.79999995232,247883.604,260133.374,1,16,6,
sequence,flow.Sequence,4_5,2023-11-27T20:39:49.111Z,,,,,,,,,,,12226.795999856957,completion,,,,,,,low,low,,,,,,,true,,,,,false,260111.29999995232,260110.39999985695,247866.761,247853.69999980927,247883.604,260133.374,1,16,,
trial,html.Screen,4_6_0,2023-11-27T20:39:53.847Z,,,,0,1.301795918505203,1.0518606632781424,,,true,ll,4713.925999952306,response,-1.0621199008816968,1.2,-1.2,-1.3373040630511746,1.2,-1.2,low,low,,ISIC_0027666.JPG,,ISIC_0046361.JPG,,41,true,0.15000000000000002,ll,keypress(f),100,false,264847.59999990463,264847.2999999523,260116.743,260111.5,260133.374,264866.862,1,16,7,
sequence,flow.Sequence,4_6,2023-11-27T20:39:53.848Z,,,,,,,,,,,4713.925999952306,completion,,,,,,,low,low,,,,,,,true,,,,,false,264848.19999980927,264847.2999999523,260116.743,260111.39999985695,260133.374,264866.862,1,16,,
trial,html.Screen,4_7_0,2023-11-27T20:39:58.582Z,,,,0,1.1638334638021437,1.0846635401396965,,,true,ll,4715.337999809242,response,-1.2015106101917423,1.2,-1.2,-1.3393124611420348,1.2,-1.2,low,low,,ISIC_4718313.JPG,,ISIC_0072496.JPG,,41,true,0.15000000000000002,ll,keypress(f),100,false,269582.5,269582.19999980927,264850.075,264848.39999985695,264866.862,269616.609,1,16,8,
sequence,flow.Sequence,4_7,2023-11-27T20:39:58.583Z,,,,,,,,,,,4715.337999809242,completion,,,,,,,low,low,,,,,,,true,,,,,false,269583.09999990463,269582.19999980927,264850.075,264848.2999999523,264866.862,269616.609,1,16,,
trial,html.Screen,4_8_0,2023-11-27T20:40:05.456Z,,,,0,0.9445114955578736,-1.0054210059625863,,,true,lh,6839.090999809268,response,-1.2043484010107477,1.2,-1.2,1.2178113180138233,1.2,-1.2,low,high,,ISIC_0033807.JPG,,ISIC_0011917.JPG,,26,true,0.3300000000000002,lh,keypress(e),100,false,276456,276455.69999980927,269583.358,269583.2999999523,269616.609,276483.296,1,16,9,
sequence,flow.Sequence,4_8,2023-11-27T20:40:05.456Z,,,,,,,,,,,6839.090999809268,completion,,,,,,,low,high,,,,,,,true,,,,,false,276456.59999990463,276455.69999980927,269583.358,269583.19999980927,269616.609,276483.296,1,16,,
trial,html.Screen,4_9_0,2023-11-27T20:40:08.926Z,,,,0,0.8779374983479176,-0.9745548032823428,,,true,lh,3442.903999809292,response,-0.8620516892494489,1.2,-1.2,1.1108509340502866,1.2,-1.2,low,high,,ISIC_2991354.JPG,,ISIC_5557806.JPG,,33,true,0.3600000000000002,lh,keypress(e),100,false,279926.2999999523,279926.19999980927,276466.656,276456.89999985695,276483.296,279949.949,1,16,10,
sequence,flow.Sequence,4_9,2023-11-27T20:40:08.926Z,,,,,,,,,,,3442.903999809292,completion,,,,,,,low,high,,,,,,,true,,,,,false,279926.5,279926.19999980927,276466.656,276456.7999999523,276483.296,279949.949,1,16,,
trial,html.Screen,4_10_0,2023-11-27T20:40:14.778Z,,,,0,0.9445114955578736,-1.0054210059625863,,,true,lh,5828.050999999978,response,-1.0961318727760048,1.2,-1.2,1.2134960228256146,1.2,-1.2,low,high,,ISIC_0033807.JPG,,ISIC_9768421.JPG,,33,true,0.3600000000000002,lh,keypress(e),100,false,285778.39999985695,285778,279933.289,279926.5,279949.949,285799.949,1,16,11,
sequence,flow.Sequence,4_10,2023-11-27T20:40:14.778Z,,,,,,,,,,,5828.050999999978,completion,,,,,,,low,high,,,,,,,true,,,,,false,285778.89999985695,285778,279933.289,279926.5,279949.949,285799.949,1,16,,
trial,html.Screen,4_11_0,2023-11-27T20:40:25.476Z,,,,0,1.0143509683988825,-1.0281980567462463,,,true,lh,10676.250999809243,response,-1.0264463986917702,1.2,-1.2,1.171271535505083,1.2,-1.2,low,high,,ISIC_0062031.JPG,,ISIC_7889838.JPG,,33,true,0.3600000000000002,lh,keypress(e),100,false,296476.5,296476.19999980927,285783.324,285779.09999990463,285799.949,296499.907,1,16,12,
sequence,flow.Sequence,4_11,2023-11-27T20:40:25.477Z,,,,,,,,,,,10676.250999809243,completion,,,,,,,low,high,,,,,,,true,,,,,false,296477,296476.19999980927,285783.324,285779.09999990463,285799.949,296499.907,1,16,,
trial,html.Screen,4_12_0,2023-11-27T20:40:37.812Z,,,,0,-1.055319394932912,1.409116680310466,,,true,hl,12312.192999904626,response,1.3559315773956395,1.2,-1.2,-0.924768326187701,1.2,-1.2,high,low,,ISIC_6398669.JPG,,ISIC_5101111.JPG,,29,true,0.3600000000000002,hl,keypress(j),100,false,308812.2999999523,308812.09999990463,296483.285,296477.2999999523,296499.907,308833.166,1,16,13,
sequence,flow.Sequence,4_12,2023-11-27T20:40:37.812Z,,,,,,,,,,,12312.192999904626,completion,,,,,,,high,low,,,,,,,true,,,,,false,308812.59999990463,308812.09999990463,296483.285,296477.2999999523,296499.907,308833.166,1,16,,
trial,html.Screen,4_13_0,2023-11-27T20:40:45.546Z,,,,0,-1.052305774554686,1.3940181224717798,,,true,hl,7713.433999904606,response,1.00615481805876,1.2,-1.2,-0.8428903771195875,1.2,-1.2,high,low,,ISIC_4175400.JPG,,ISIC_0069970.JPG,,29,true,0.3600000000000002,hl,keypress(j),100,false,316546.89999985695,316546.59999990463,308816.595,308812.7999999523,308833.166,316566.54,1,16,14,
sequence,flow.Sequence,4_13,2023-11-27T20:40:45.547Z,,,,,,,,,,,7713.433999904606,completion,,,,,,,high,low,,,,,,,true,,,,,false,316547.39999985695,316546.59999990463,308816.595,308812.7999999523,308833.166,316566.54,1,16,,
trial,html.Screen,4_14_0,2023-11-27T20:40:49.168Z,,,,0,-1.2704198237183777,1.138121072015301,,,true,hl,3600.35999985697,response,0.8644465729542988,1.2,-1.2,-0.8679598285079457,1.2,-1.2,high,low,,ISIC_0501843.JPG,,ISIC_6718969.JPG,,29,true,0.3600000000000002,hl,keypress(j),100,false,320167.19999980927,320166.89999985695,316549.923,316547.59999990463,316566.54,320183.171,1,16,15,
sequence,flow.Sequence,4_14,2023-11-27T20:40:49.168Z,,,,,,,,,,,3600.35999985697,completion,,,,,,,high,low,,,,,,,true,,,,,false,320167.69999980927,320166.89999985695,316549.923,316547.59999990463,316566.54,320183.171,1,16,,
trial,html.Screen,4_15_0,2023-11-27T20:40:54.892Z,,,,0,-1.0822170028935367,1.1654796154432183,,,true,hl,5708.42899990466,response,1.4748095371445096,1.2,-1.2,-0.9579010801034902,1.2,-1.2,high,low,,ISIC_7288818.JPG,,ISIC_0033216.JPG,,29,true,0.3600000000000002,hl,keypress(j),100,false,325891.89999985695,325891.59999990463,320166.645,320167.7999999523,320183.171,325916.483,1,16,16,
sequence,flow.Sequence,4_15,2023-11-27T20:40:54.893Z,,,,,,,,,,,5708.42899990466,completion,,,,,,,high,low,,,,,,,true,,,,,false,325892.39999985695,325891.59999990463,320166.645,320167.69999980927,320183.171,325916.483,1,16,,
demonstration_loop,flow.Loop,4,2023-11-27T20:40:54.893Z,,,,,,,,,,,124974.50999990464,completion,,,,,,,,,,,,,,,true,,,,,false,325892.7999999523,325891.59999990463,200900.154,200895.59999990463,200917.09,325916.483,1,16,,
practice_instructions,html.Screen,5,2023-11-27T20:41:08.455Z,,,,,,,,,,,13530.116999904625,response,,,,,,,,,,,,,,,,,continue,click button,,,339454.7999999523,339446.59999990463,325899.912,325893,325916.483,339466.448,,,,
trial,html.Screen,6_0_0,2023-11-27T20:41:24.451Z,,,,1,0.8534691366511764,-1.276663727068437,,,,,16016.880000000005,timeout,-0.8709576717420565,1.2,-1.2,1.2795156779072283,1.2,-1.2,low,high,,ISIC_0056788.JPG,,ISIC_1925632.JPG,,26,true,0.3300000000000002,,,0,false,355451,355450.59999990463,339433.153,339454.89999985695,339466.448,355483.328,1,40,1,
sequence,flow.Sequence,6_0,2023-11-27T20:41:24.452Z,,,,,,,,,,,15984.151999904658,completion,,,,,,,low,high,,,,,,,true,,,,,false,355451.2999999523,355450.59999990463,339433.153,339454.89999985695,339466.448,355483.328,1,40,,
trial,html.Screen,6_1_0,2023-11-27T20:41:31.817Z,,,,1,-1.052305774554686,1.3940181224717798,,,true,hl,7333.471999952337,response,0.9013888878932071,1.2,-1.2,-0.9328095253308732,1.2,-1.2,high,low,,ISIC_4175400.JPG,,ISIC_0068259.JPG,,29,true,0.3600000000000002,hl,keypress(j),0,false,362817.09999990463,362816.7999999523,355466.397,355451.59999990463,355483.328,362833.034,1,40,2,
sequence,flow.Sequence,6_1,2023-11-27T20:41:31.818Z,,,,,,,,,,,7333.471999952337,completion,,,,,,,high,low,,,,,,,true,,,,,false,362817.5,362816.7999999523,355466.397,355451.5,355483.328,362833.034,1,40,,
trial,html.Screen,6_2_0,2023-11-27T20:41:39.354Z,,,,1,0.9039158082670506,-1.0517562064343149,,,false,lh,7520.265999952331,response,-1.052305774554686,1.2,-1.2,1.3940181224717798,1.2,-1.2,low,high,,ISIC_0015411.JPG,,ISIC_4175400.JPG,,26,true,0.3300000000000002,ll,keypress(f),0,false,370353.5,370353.2999999523,362816.239,362817.69999980927,362833.034,370366.359,1,40,3,
sequence,flow.Sequence,6_2,2023-11-27T20:41:39.354Z,,,,,,,,,,,7520.265999952331,completion,,,,,,,low,high,,,,,,,true,,,,,false,370353.7999999523,370353.2999999523,362816.239,362817.59999990463,362833.034,370366.359,1,40,,
trial,html.Screen,6_3_0,2023-11-27T20:41:43.562Z,,,,1,-0.9225524349657857,0.929746784178986,,,false,hl,4194.740999904636,response,1.00615481805876,1.2,-1.2,-0.8428903771195875,1.2,-1.2,high,low,,ISIC_0011077.JPG,,ISIC_0069970.JPG,,29,true,0.3600000000000002,ll,keypress(f),0,false,374561.2999999523,374561.09999990463,370349.405,370354.09999990463,370366.359,374566.321,1,40,4,
sequence,flow.Sequence,6_3,2023-11-27T20:41:43.562Z,,,,,,,,,,,4194.740999904636,completion,,,,,,,high,low,,,,,,,true,,,,,false,374561.69999980927,374561.09999990463,370349.405,370354.09999990463,370366.359,374566.321,1,40,,
trial,html.Screen,6_4_0,2023-11-27T20:41:52.937Z,,,,1,0.9013888878932071,-0.9328095253308732,,,true,lh,9369.278999904636,response,-1.0264463986917702,1.2,-1.2,1.171271535505083,1.2,-1.2,low,high,,ISIC_0068259.JPG,,ISIC_7889838.JPG,,26,true,0.3300000000000002,lh,keypress(e),0,false,383935.69999980927,383935.59999990463,374549.8,374561.89999985695,374566.321,383949.793,1,40,5,
sequence,flow.Sequence,6_4,2023-11-27T20:41:52.937Z,,,,,,,,,,,9369.278999904636,completion,,,,,,,low,high,,,,,,,true,,,,,false,383935.89999985695,383935.59999990463,374549.8,374561.7999999523,374566.321,383949.793,1,40,,
trial,html.Screen,6_5_0,2023-11-27T20:42:01.058Z,,,,1,1.301795918505203,1.0518606632781424,,,true,ll,8107.106999856944,response,-1.3271122559811526,1.2,-1.2,-1.292001792497521,1.2,-1.2,low,low,,ISIC_0027666.JPG,,ISIC_0065181.JPG,,249,true,0.3600000000000002,ll,keypress(f),0,false,392057.19999980927,392056.89999985695,383932.816,383935.89999985695,383949.793,392066.275,1,40,6,
sequence,flow.Sequence,6_5,2023-11-27T20:42:01.059Z,,,,,,,,,,,8107.106999856944,completion,,,,,,,low,low,,,,,,,true,,,,,false,392057.59999990463,392056.89999985695,383932.816,383935.89999985695,383949.793,392066.275,1,40,,
trial,html.Screen,6_6_0,2023-11-27T20:42:04.938Z,,,,1,1.053007132776416,1.341217082060068,,,true,ll,3870.6249998569256,response,-1.2040551955011098,1.2,-1.2,-1.2664651062241792,1.2,-1.2,low,low,,ISIC_0024208.JPG,,ISIC_0068886.JPG,,41,true,0.15000000000000002,ll,keypress(f),0,false,395937.19999980927,395936.89999985695,392049.37,392057.89999985695,392066.275,395949.624,1,40,7,
sequence,flow.Sequence,6_6,2023-11-27T20:42:04.938Z,,,,,,,,,,,3870.6249998569256,completion,,,,,,,low,low,,,,,,,true,,,,,false,395937.5,395936.89999985695,392049.37,392057.7999999523,392066.275,395949.624,1,40,,
trial,html.Screen,6_7_0,2023-11-27T20:42:14.098Z,,,,1,1.3515962101204746,-0.8414583575292955,,,true,lh,9147.175999952306,response,-1.1592423187534993,1.2,-1.2,1.067128884093211,1.2,-1.2,low,high,,ISIC_0274382.JPG,,ISIC_6854940.JPG,,26,true,0.3300000000000002,lh,keypress(e),0,false,405097,405096.7999999523,395933.092,395937.69999980927,395949.624,405099.637,1,40,8,
sequence,flow.Sequence,6_7,2023-11-27T20:42:14.098Z,,,,,,,,,,,9147.175999952306,completion,,,,,,,low,high,,,,,,,true,,,,,false,405097.39999985695,405096.7999999523,395933.092,395937.59999990463,395949.624,405099.637,1,40,,
trial,html.Screen,6_8_0,2023-11-27T20:42:19.882Z,,,,1,-1.052305774554686,1.3940181224717798,,,true,hl,5781.662999952328,response,0.9087169856594104,1.2,-1.2,-0.8835647084207277,1.2,-1.2,high,low,,ISIC_4175400.JPG,,ISIC_0000349.JPG,,29,true,0.3600000000000002,hl,keypress(j),0,false,410881.59999990463,410881.2999999523,405082.758,405097.5,405099.637,410916.266,1,40,9,
sequence,flow.Sequence,6_8,2023-11-27T20:42:19.883Z,,,,,,,,,,,5781.662999952328,completion,,,,,,,high,low,,,,,,,true,,,,,false,410882,410881.2999999523,405082.758,405097.5,405099.637,410916.266,1,40,,
trial,html.Screen,6_9_0,2023-11-27T20:42:26.618Z,,,,1,0.8779374983479176,-0.9745548032823428,,,true,lh,6700.333999904629,response,-0.8709576717420565,1.2,-1.2,1.2795156779072283,1.2,-1.2,low,high,,ISIC_2991354.JPG,,ISIC_1925632.JPG,,26,true,0.3300000000000002,lh,keypress(e),0,false,417616.89999985695,417616.59999990463,410900.35,410882.09999990463,410916.266,417632.92,1,40,10,
sequence,flow.Sequence,6_9,2023-11-27T20:42:26.618Z,,,,,,,,,,,6700.333999904629,completion,,,,,,,low,high,,,,,,,true,,,,,false,417617.19999980927,417616.59999990463,410900.35,410882.09999990463,410916.266,417632.92,1,40,,
trial,html.Screen,6_10_0,2023-11-27T20:42:31.314Z,,,,1,-1.1392234684115472,-1.3198277407683998,,,true,hh,4680.379999952333,response,1.0236565951660872,1.2,-1.2,0.9220772824737548,1.2,-1.2,high,high,,ISIC_0071875.JPG,,ISIC_3209501.JPG,,157,true,0.3600000000000002,hh,keypress(i),0,false,422313.59999990463,422313.2999999523,417616.137,417617.5,417632.92,422316.266,1,40,11,
sequence,flow.Sequence,6_10,2023-11-27T20:42:31.315Z,,,,,,,,,,,4680.379999952333,completion,,,,,,,high,high,,,,,,,true,,,,,false,422314,422313.2999999523,417616.137,417617.39999985695,417632.92,422316.266,1,40,,
trial,html.Screen,6_11_0,2023-11-27T20:42:38.491Z,,,,1,1.1655508270784471,1.1162776063248168,,,true,ll,7173.433999809262,response,-1.3132505134129506,1.2,-1.2,-1.0949928516457437,1.2,-1.2,low,low,,ISIC_5509946.JPG,,ISIC_0066935.JPG,,27,true,0.12,ll,keypress(f),0,false,429490,429489.69999980927,422299.52,422314.19999980927,422316.266,429499.501,1,40,12,
sequence,flow.Sequence,6_11,2023-11-27T20:42:38.491Z,,,,,,,,,,,7173.433999809262,completion,,,,,,,low,low,,,,,,,true,,,,,false,429490.2999999523,429489.69999980927,422299.52,422314.19999980927,422316.266,429499.501,1,40,,
trial,html.Screen,6_12_0,2023-11-27T20:42:42.850Z,,,,1,-1.1894733304494307,-1.1169761866204877,,,true,hh,4349.198999809276,response,1.0959058628476686,1.2,-1.2,1.2921331918483707,1.2,-1.2,high,high,,ISIC_0033813.JPG,,ISIC_5920470.JPG,,25,true,0.15000000000000002,hh,keypress(i),0,false,433849,433848.69999980927,429482.845,429490.59999990463,429499.501,433866.194,1,40,13,
sequence,flow.Sequence,6_12,2023-11-27T20:42:42.850Z,,,,,,,,,,,4349.198999809276,completion,,,,,,,high,high,,,,,,,true,,,,,false,433849.39999985695,433848.69999980927,429482.845,429490.59999990463,429499.501,433866.194,1,40,,
trial,html.Screen,6_13_0,2023-11-27T20:42:47.801Z,,,,1,1.1727618800748076,1.0636787813411093,,,true,ll,4933.605999952299,response,-1.2974483548597415,1.2,-1.2,-1.2071506593281005,1.2,-1.2,low,low,,ISIC_9690371.JPG,,ISIC_0011007.JPG,,27,true,0.12,ll,keypress(f),0,false,438799.89999985695,438799.7999999523,433849.62,433849.59999990463,433866.194,438816.167,1,40,14,
sequence,flow.Sequence,6_13,2023-11-27T20:42:47.801Z,,,,,,,,,,,4933.605999952299,completion,,,,,,,low,low,,,,,,,true,,,,,false,438800,438799.7999999523,433849.62,433849.59999990463,433866.194,438816.167,1,40,,
trial,html.Screen,6_14_0,2023-11-27T20:42:57.130Z,,,,1,-1.1547137855907486,1.0185275168641534,,,true,hl,9312.6329999523,response,0.849847885203758,1.2,-1.2,-0.973447384095442,1.2,-1.2,high,low,,ISIC_7604870.JPG,,ISIC_9612228.JPG,,29,true,0.3600000000000002,hl,keypress(j),0,false,448129,448128.7999999523,438799.687,438800,438816.167,448132.875,1,40,15,
sequence,flow.Sequence,6_14,2023-11-27T20:42:57.131Z,,,,,,,,,,,9312.6329999523,completion,,,,,,,high,low,,,,,,,true,,,,,false,448129.39999985695,448128.7999999523,438799.687,438800,438816.167,448132.875,1,40,,
trial,html.Screen,6_15_0,2023-11-27T20:43:08.010Z,,,,1,-0.9212323139676136,0.9882196642247332,,,true,hl,10875.524999856949,response,0.8591294258188253,1.2,-1.2,-0.870797302150167,1.2,-1.2,high,low,,ISIC_0014255.JPG,,ISIC_0055841.JPG,,29,true,0.3600000000000002,hl,keypress(j),0,false,459008.69999980927,459008.39999985695,448115.907,448129.59999990463,448132.875,459016.113,1,40,16,
sequence,flow.Sequence,6_15,2023-11-27T20:43:08.011Z,,,,,,,,,,,10875.524999856949,completion,,,,,,,high,low,,,,,,,true,,,,,false,459009,459008.39999985695,448115.907,448129.5,448132.875,459016.113,1,40,,
trial,html.Screen,6_16_0,2023-11-27T20:43:13.730Z,,,,1,-1.1783311757907324,-1.266840220031473,,,true,hh,5712.086999809253,response,0.9512444996401545,1.2,-1.2,0.9046053086219094,1.2,-1.2,high,high,,ISIC_8241457.JPG,,ISIC_0059170.JPG,,127,true,0.3300000000000002,hh,keypress(i),0,false,464728.5,464728.19999980927,458999.364,459009.19999980927,459016.113,464732.765,1,40,17,
sequence,flow.Sequence,6_16,2023-11-27T20:43:13.730Z,,,,,,,,,,,5712.086999809253,completion,,,,,,,high,high,,,,,,,true,,,,,false,464728.89999985695,464728.19999980927,458999.364,459009.09999990463,459016.113,464732.765,1,40,,
trial,html.Screen,6_17_0,2023-11-27T20:43:17.680Z,,,,1,-1.1894733304494307,-1.1169761866204877,,,true,hh,3945.8349999046186,response,1.3045229691102764,1.2,-1.2,1.1781544075681951,1.2,-1.2,high,high,,ISIC_0033813.JPG,,ISIC_6148533.JPG,,25,true,0.15000000000000002,hh,keypress(i),0,false,468678.69999980927,468678.59999990463,464715.997,464729.09999990463,464732.765,468699.407,1,40,18,
sequence,flow.Sequence,6_17,2023-11-27T20:43:17.680Z,,,,,,,,,,,3945.8349999046186,completion,,,,,,,high,high,,,,,,,true,,,,,false,468678.89999985695,468678.59999990463,464715.997,464729,464732.765,468699.407,1,40,,
trial,html.Screen,6_18_0,2023-11-27T20:43:25.795Z,,,,1,-1.2704198237183777,1.138121072015301,,,true,hl,8093.89299995231,response,0.8494721812820843,1.2,-1.2,-1.3435429139974266,1.2,-1.2,high,low,,ISIC_0501843.JPG,,ISIC_0033585.JPG,,29,true,0.3600000000000002,hl,keypress(j),0,false,476793.5,476793.2999999523,468666.222,468678.89999985695,468699.407,476799.397,1,40,19,
sequence,flow.Sequence,6_18,2023-11-27T20:43:25.795Z,,,,,,,,,,,8093.89299995231,completion,,,,,,,high,low,,,,,,,true,,,,,false,476793.89999985695,476793.2999999523,468666.222,468678.89999985695,468699.407,476799.397,1,40,,
trial,html.Screen,6_19_0,2023-11-27T20:43:30.898Z,,,,1,1.1604734171556077,1.0789312625280616,,,true,ll,5096.802999809268,response,-0.9106525024234248,1.2,-1.2,-1.0361692964751965,1.2,-1.2,low,low,,ISIC_3950753.JPG,,ISIC_0058676.JPG,,211,true,0.3300000000000002,ll,keypress(f),0,false,481896.59999990463,481896.19999980927,476782.695,476794.19999980927,476799.397,481916.044,1,40,20,
sequence,flow.Sequence,6_19,2023-11-27T20:43:30.898Z,,,,,,,,,,,5096.802999809268,completion,,,,,,,low,low,,,,,,,true,,,,,false,481896.89999985695,481896.19999980927,476782.695,476794.09999990463,476799.397,481916.044,1,40,,
trial,html.Screen,6_20_0,2023-11-27T20:43:40.410Z,,,,1,1.0143509683988825,-1.0281980567462463,,,true,lh,9492.255999952322,response,-1.0700930503975157,1.2,-1.2,0.923753102263735,1.2,-1.2,low,high,,ISIC_0062031.JPG,,ISIC_0000022.JPG,,26,true,0.3300000000000002,lh,keypress(e),0,false,491408.59999990463,491408.2999999523,481882.608,481897.09999990463,481916.044,491416.078,1,40,21,
sequence,flow.Sequence,6_20,2023-11-27T20:43:40.410Z,,,,,,,,,,,9492.255999952322,completion,,,,,,,low,high,,,,,,,true,,,,,false,491408.89999985695,491408.2999999523,481882.608,481897.09999990463,481916.044,491416.078,1,40,,
trial,html.Screen,6_21_0,2023-11-27T20:43:44.090Z,,,,1,-1.2974483548597415,-1.2071506593281005,,,true,hh,3672.3219998569693,response,0.9116506478817816,1.2,-1.2,1.0416072379908032,1.2,-1.2,high,high,,ISIC_0011007.JPG,,ISIC_3273370.JPG,,157,true,0.3600000000000002,hh,keypress(i),0,false,495088.7999999523,495088.39999985695,491399.186,491409.09999990463,491416.078,495099.467,1,40,22,
sequence,flow.Sequence,6_21,2023-11-27T20:43:44.091Z,,,,,,,,,,,3672.3219998569693,completion,,,,,,,high,high,,,,,,,true,,,,,false,495089.09999990463,495088.39999985695,491399.186,491409,491416.078,495099.467,1,40,,
trial,html.Screen,6_22_0,2023-11-27T20:43:50.697Z,,,,1,1.294521945180264,1.3078626540563885,,,true,ll,6595.132999904628,response,-1.1783311757907324,1.2,-1.2,-1.266840220031473,1.2,-1.2,low,low,,ISIC_3601224.JPG,,ISIC_8241457.JPG,,27,true,0.12,ll,keypress(f),0,false,501694.69999980927,501694.59999990463,495082.681,495089.2999999523,495099.467,501715.967,1,40,23,
sequence,flow.Sequence,6_22,2023-11-27T20:43:50.697Z,,,,,,,,,,,6595.132999904628,completion,,,,,,,low,low,,,,,,,true,,,,,false,501694.7999999523,501694.59999990463,495082.681,495089.2999999523,495099.467,501715.967,1,40,,
trial,html.Screen,6_23_0,2023-11-27T20:43:57.786Z,,,,1,-0.9046170303418553,1.0063426986460375,,,true,hl,7068.132999904628,response,1.225025174430573,1.2,-1.2,-0.8422679054456499,1.2,-1.2,high,low,,ISIC_0055759.JPG,,ISIC_7503950.JPG,,29,true,0.3600000000000002,hl,keypress(j),0,false,508784.2999999523,508784.09999990463,501682.68,501694.89999985695,501715.967,508799.307,1,40,24,
sequence,flow.Sequence,6_23,2023-11-27T20:43:57.787Z,,,,,,,,,,,7068.132999904628,completion,,,,,,,high,low,,,,,,,true,,,,,false,508784.69999980927,508784.09999990463,501682.68,501694.89999985695,501715.967,508799.307,1,40,,
trial,html.Screen,6_24_0,2023-11-27T20:44:08.667Z,,,,1,0.849847885203758,-0.973447384095442,,,true,lh,10864.992999952345,response,-1.0700930503975157,1.2,-1.2,0.923753102263735,1.2,-1.2,low,high,,ISIC_9612228.JPG,,ISIC_0000022.JPG,,26,true,0.3300000000000002,lh,keypress(e),0,false,519664.5,519664.2999999523,508782.505,508784.89999985695,508799.307,519683.044,1,40,25,
sequence,flow.Sequence,6_24,2023-11-27T20:44:08.667Z,,,,,,,,,,,10864.992999952345,completion,,,,,,,low,high,,,,,,,true,,,,,false,519665,519664.2999999523,508782.505,508784.89999985695,508799.307,519683.044,1,40,,
trial,html.Screen,6_25_0,2023-11-27T20:44:11.186Z,,,,1,-1.1711612520017805,-1.191169949562454,,,true,hh,2501.055999904638,response,1.259754707860904,1.2,-1.2,0.8912280834232634,1.2,-1.2,high,high,,ISIC_0061936.JPG,,ISIC_4443373.JPG,,157,true,0.3600000000000002,hh,keypress(i),0,false,522184.39999985695,522184.09999990463,519649.143,519665.19999980927,519683.044,522199.519,1,40,26,
sequence,flow.Sequence,6_25,2023-11-27T20:44:11.187Z,,,,,,,,,,,2501.055999904638,completion,,,,,,,high,high,,,,,,,true,,,,,false,522184.7999999523,522184.09999990463,519649.143,519665.19999980927,519683.044,522199.519,1,40,,
trial,html.Screen,6_26_0,2023-11-27T20:44:13.057Z,,,,1,-1.1783311757907324,-1.266840220031473,,,true,hh,1855.680999809294,response,1.1363600109870835,1.2,-1.2,1.295816345369928,1.2,-1.2,high,high,,ISIC_8241457.JPG,,ISIC_0026141.JPG,,25,true,0.15000000000000002,hh,keypress(i),0,false,524055.2999999523,524055.19999980927,522182.82,522184.89999985695,522199.519,524065.94,1,40,27,
sequence,flow.Sequence,6_26,2023-11-27T20:44:13.057Z,,,,,,,,,,,1855.680999809294,completion,,,,,,,high,high,,,,,,,true,,,,,false,524055.2999999523,524055.19999980927,522182.82,522184.89999985695,522199.519,524065.94,1,40,,
trial,html.Screen,6_27_0,2023-11-27T20:44:14.411Z,,,,1,-1.2043484010107477,1.2178113180138233,,,true,hl,1342.7599998092628,response,0.8779374983479176,1.2,-1.2,-0.9745548032823428,1.2,-1.2,high,low,,ISIC_0011917.JPG,,ISIC_2991354.JPG,,29,true,0.3600000000000002,hl,keypress(j),0,false,525409,525408.6999998093,524049.412,524055.39999985695,524065.94,525415.909,1,40,28,
sequence,flow.Sequence,6_27,2023-11-27T20:44:14.411Z,,,,,,,,,,,1342.7599998092628,completion,,,,,,,high,low,,,,,,,true,,,,,false,525409.1999998093,525408.6999998093,524049.412,524055.39999985695,524065.94,525415.909,1,40,,
trial,html.Screen,6_28_0,2023-11-27T20:44:15.762Z,,,,1,1.0003671514840182,-0.8992716557663581,,,true,lh,1344.1909999046475,response,-0.9448560599810628,1.2,-1.2,0.9099421612683488,1.2,-1.2,low,high,,ISIC_0061749.JPG,,ISIC_9684318.JPG,,26,true,0.3300000000000002,lh,keypress(e),0,false,526760.2999999523,526760.0999999046,525399.243,525409.399999857,525415.909,526765.975,1,40,29,
sequence,flow.Sequence,6_28,2023-11-27T20:44:15.763Z,,,,,,,,,,,1344.1909999046475,completion,,,,,,,low,high,,,,,,,true,,,,,false,526760.6999998093,526760.0999999046,525399.243,525409.399999857,525415.909,526765.975,1,40,,
trial,html.Screen,6_29_0,2023-11-27T20:44:18.314Z,,,,1,1.1990772227054871,1.1224329926844498,,,true,ll,2546.2249998092884,response,-0.8998317940997821,1.2,-1.2,-1.1665943858643009,1.2,-1.2,low,low,,ISIC_3425388.JPG,,ISIC_0071388.JPG,,249,true,0.3600000000000002,ll,keypress(f),0,false,529312.5,529312.1999998093,526749.524,526760.7999999523,526765.975,529315.917,1,40,30,
sequence,flow.Sequence,6_29,2023-11-27T20:44:18.315Z,,,,,,,,,,,2546.2249998092884,completion,,,,,,,low,low,,,,,,,true,,,,,false,529312.7999999523,529312.1999998093,526749.524,526760.7999999523,526765.975,529315.917,1,40,,
trial,html.Screen,6_30_0,2023-11-27T20:44:23.515Z,,,,1,1.1642596483638106,1.091507924157762,,,true,ll,5196.8829999523,response,-1.1474466950560966,1.2,-1.2,-1.173734476257662,1.2,-1.2,low,low,,ISIC_0765584.JPG,,ISIC_5216586.JPG,,41,true,0.15000000000000002,ll,keypress(f),0,false,534513.0999999046,534512.7999999523,529299.47,529312.899999857,529315.917,534516.006,1,40,31,
sequence,flow.Sequence,6_30,2023-11-27T20:44:23.515Z,,,,,,,,,,,5196.8829999523,completion,,,,,,,low,low,,,,,,,true,,,,,false,534513.399999857,534512.7999999523,529299.47,529312.899999857,529315.917,534516.006,1,40,,
trial,html.Screen,6_31_0,2023-11-27T20:44:29.026Z,,,,1,-1.2289750544294995,-1.3003764624334877,,,true,hh,5508.09399990458,response,1.2714351764931109,1.2,-1.2,1.0785174776187512,1.2,-1.2,high,high,,ISIC_0054167.JPG,,ISIC_2454898.JPG,,25,true,0.15000000000000002,hh,keypress(i),0,false,540024.399999857,540024.0999999046,534499.299,534513.5999999046,534516.006,540032.551,1,40,32,
sequence,flow.Sequence,6_31,2023-11-27T20:44:29.027Z,,,,,,,,,,,5508.09399990458,completion,,,,,,,high,high,,,,,,,true,,,,,false,540024.899999857,540024.0999999046,534499.299,534513.5,534516.006,540032.551,1,40,,
trial,html.Screen,6_32_0,2023-11-27T20:44:35.283Z,,,,1,1.212030980680325,1.139863018685685,,,true,ll,6247.848999856971,response,-1.1407514641016443,1.2,-1.2,-1.280017651202714,1.2,-1.2,low,low,,ISIC_0008510.JPG,,ISIC_0072507.JPG,,27,true,0.12,ll,keypress(f),0,false,546280.5999999046,546280.399999857,540015.985,540025,540032.551,546300.155,1,40,33,
sequence,flow.Sequence,6_32,2023-11-27T20:44:35.283Z,,,,,,,,,,,6247.848999856971,completion,,,,,,,low,low,,,,,,,true,,,,,false,546281.0999999046,546280.399999857,540015.985,540025,540032.551,546300.155,1,40,,
trial,html.Screen,6_33_0,2023-11-27T20:44:43.867Z,,,,1,0.9385447468573198,-1.2289860846064424,,,true,lh,8564.144999952288,response,-1.082730232773217,1.2,-1.2,0.8833175387485132,1.2,-1.2,low,high,,ISIC_0032780.JPG,,ISIC_0011933.JPG,,26,true,0.3300000000000002,lh,keypress(e),0,false,554864.5,554864.2999999523,546265.894,546281.2999999523,546300.155,554883.915,1,40,34,
sequence,flow.Sequence,6_33,2023-11-27T20:44:43.867Z,,,,,,,,,,,8564.144999952288,completion,,,,,,,low,high,,,,,,,true,,,,,false,554864.7999999523,554864.2999999523,546265.894,546281.1999998093,546300.155,554883.915,1,40,,
trial,html.Screen,6_34_0,2023-11-27T20:44:52.363Z,,,,1,0.8644465729542988,-0.8679598285079457,,,true,lh,8476.584999999963,response,-1.2609895831255231,1.2,-1.2,1.0687377724194886,1.2,-1.2,low,high,,ISIC_6718969.JPG,,ISIC_1367610.JPG,,33,true,0.3600000000000002,lh,keypress(e),0,false,563360.899999857,563360.5,554849.151,554864.899999857,554883.915,563365.826,1,40,35,
sequence,flow.Sequence,6_34,2023-11-27T20:44:52.364Z,,,,,,,,,,,8476.584999999963,completion,,,,,,,low,high,,,,,,,true,,,,,false,563361.1999998093,563360.5,554849.151,554864.899999857,554883.915,563365.826,1,40,,
trial,html.Screen,6_35_0,2023-11-27T20:44:56.642Z,,,,1,-1.1227373144244253,-1.1886610799377713,,,true,hh,4273.373999809264,response,1.073296525451802,1.2,-1.2,1.3454282740421717,1.2,-1.2,high,high,,ISIC_0059506.JPG,,ISIC_5787312.JPG,,157,true,0.3600000000000002,hh,keypress(i),0,false,567639.2999999523,567639.1999998093,563349.005,563361.399999857,563365.826,567649.285,1,40,36,
sequence,flow.Sequence,6_35,2023-11-27T20:44:56.642Z,,,,,,,,,,,4273.373999809264,completion,,,,,,,high,high,,,,,,,true,,,,,false,567639.2999999523,567639.1999998093,563349.005,563361.2999999523,563365.826,567649.285,1,40,,
trial,html.Screen,6_36_0,2023-11-27T20:44:59.876Z,,,,1,1.294521945180264,1.3078626540563885,,,true,ll,3223.4149998092325,response,-1.1392234684115472,1.2,-1.2,-1.3198277407683998,1.2,-1.2,low,low,,ISIC_3601224.JPG,,ISIC_0071875.JPG,,27,true,0.12,ll,keypress(f),0,false,570873,570872.6999998093,567632.591,567639.5,567649.285,570882.445,1,40,37,
sequence,flow.Sequence,6_36,2023-11-27T20:44:59.876Z,,,,,,,,,,,3223.4149998092325,completion,,,,,,,low,low,,,,,,,true,,,,,false,570873.399999857,570872.6999998093,567632.591,567639.5,567649.285,570882.445,1,40,,
trial,html.Screen,6_37_0,2023-11-27T20:45:02.931Z,,,,1,-1.155796217969438,1.1646564121743912,,,false,hl,3045.454999857,response,1.00615481805876,1.2,-1.2,-0.8428903771195875,1.2,-1.2,high,low,,ISIC_2685523.JPG,,ISIC_0069970.JPG,,29,true,0.3600000000000002,ll,keypress(f),0,false,573928.1999998093,573927.899999857,570865.975,570873.5999999046,570882.445,573932.522,1,40,38,
sequence,flow.Sequence,6_37,2023-11-27T20:45:02.931Z,,,,,,,,,,,3045.454999857,completion,,,,,,,high,low,,,,,,,true,,,,,false,573928.5,573927.899999857,570865.975,570873.5999999046,570882.445,573932.522,1,40,,
trial,html.Screen,6_38_0,2023-11-27T20:45:05.642Z,,,,1,-1.2289750544294995,-1.3003764624334877,,,true,hh,2706.777999952319,response,0.894033318100927,1.2,-1.2,0.9842451068179496,1.2,-1.2,high,high,,ISIC_0054167.JPG,,ISIC_0015298.JPG,,127,true,0.3300000000000002,hh,keypress(i),0,false,576639.399999857,576639.2999999523,573916.006,573928.6999998093,573932.522,576649.122,1,40,39,
sequence,flow.Sequence,6_38,2023-11-27T20:45:05.642Z,,,,,,,,,,,2706.777999952319,completion,,,,,,,high,high,,,,,,,true,,,,,false,576639.5,576639.2999999523,573916.006,573928.6999998093,573932.522,576649.122,1,40,,
trial,html.Screen,6_39_0,2023-11-27T20:45:14.769Z,,,,1,-1.082730232773217,0.8833175387485132,,,true,hl,9117.477999904659,response,0.9039158082670506,1.2,-1.2,-1.0517562064343149,1.2,-1.2,high,low,,ISIC_0011933.JPG,,ISIC_0015411.JPG,,29,true,0.3600000000000002,hl,keypress(j),0,false,585766.6999998093,585766.5999999046,576632.607,576639.5999999046,576649.122,585782.443,1,40,40,
sequence,flow.Sequence,6_39,2023-11-27T20:45:14.769Z,,,,,,,,,,,9117.477999904659,completion,,,,,,,high,low,,,,,,,true,,,,,false,585766.899999857,585766.5999999046,576632.607,576639.5,576649.122,585782.443,1,40,,
practice_loop,flow.Loop,6,2023-11-27T20:45:14.769Z,,,,,,,,,,,246300.15199990466,completion,,,,,,,,,,,,,,,true,,,,,false,585767,585766.5999999046,339433.153,339454.89999985695,339466.448,585782.443,1,40,,
stair_instructions,html.Screen,7,2023-11-27T20:45:21.209Z,,,,,,,,,,,6423.456999856979,response,,,,,,,,,,,,,,,,,continue,click button,,,592206.399999857,592205.899999857,585765.669,585767,585782.443,592232.549,,,,
trial,html.Screen,8_0_0,2023-11-27T20:45:34.442Z,,,,2,0.0199897690678184,0.0312486875504497,,0.04,false,hl,13207.250999952317,response,1.00615481805876,1.2,-1.2,-0.8428903771195875,1.2,-1.2,high,low,,ISIC_5482426.JPG,,ISIC_0069970.JPG,28,29,false,0.3600000000000002,ll,keypress(f),0,true,605439.899999857,605439.7999999523,592215.96,592206.5,592232.549,605465.987,1,40,1,
sequence,flow.Sequence,8_0,2023-11-27T20:45:34.443Z,,,,,,,,,,,13207.250999952317,completion,,,,,,,high,low,,,,,,,false,,,,,true,605440,605439.7999999523,592215.96,592206.5,592232.549,605465.987,1,40,,
trial,html.Screen,8_1_0,2023-11-27T20:45:40.155Z,,,,2,0.0063515208248796,0.0194177605767913,,0.04,false,lh,5685.912999856984,response,-0.9225524349657857,1.2,-1.15,0.929746784178986,1.15,-1.15,low,high,,ISIC_5281908.JPG,,ISIC_0011077.JPG,28,25,false,0.28000000000000014,ll,keypress(f),0,true,611152.1999998093,611151.899999857,605449.045,605440.0999999046,605465.987,611182.386,1,40,2,
sequence,flow.Sequence,8_1,2023-11-27T20:45:40.155Z,,,,,,,,,,,5685.912999856984,completion,,,,,,,low,high,,,,,,,false,,,,,true,611152.6999998093,611151.899999857,605449.045,605440.0999999046,605465.987,611182.386,1,40,,
trial,html.Screen,8_2_0,2023-11-27T20:45:46.137Z,,,,2,0.0321039635696159,0.020496766286318,,0.04,false,hl,5952.513999856892,response,1.2838089642212804,1.15,-1.15,-0.8550527900640753,1.15,-1.15,high,low,,ISIC_0058063.JPG,,ISIC_0034187.JPG,28,27,false,0.31000000000000016,hh,keypress(i),0,true,617135,617134.899999857,611149.1,611152.899999857,611182.386,617148.992,1,40,3,
sequence,flow.Sequence,8_2,2023-11-27T20:45:46.138Z,,,,,,,,,,,5952.513999856892,completion,,,,,,,high,low,,,,,,,false,,,,,true,617135.0999999046,617134.899999857,611149.1,611152.7999999523,611182.386,617148.992,1,40,,
trial,html.Screen,8_3_0,2023-11-27T20:45:50.682Z,,,,2,0.0199897690678184,0.0312486875504497,,0.04,true,hl,4530.008000000031,response,1.064425982109969,1.15,-1.15,-0.958564243697126,1.15,-1.15,high,low,,ISIC_5482426.JPG,,ISIC_3203344.JPG,28,27,false,0.31000000000000016,hl,keypress(j),0,true,621679.0999999046,621679,617132.386,617135.0999999046,617148.992,621682.287,1,40,4,
sequence,flow.Sequence,8_3,2023-11-27T20:45:50.682Z,,,,,,,,,,,4530.008000000031,completion,,,,,,,high,low,,,,,,,false,,,,,true,621679.2999999523,621679,617132.386,617135.0999999046,617148.992,621682.287,1,40,,
trial,html.Screen,8_4_0,2023-11-27T20:45:56.028Z,,,,2,0.0199897690678184,0.0312486875504497,,0.04,true,ll,5342.012999952305,response,-1.2359980588867217,1.0999999999999999,-1.15,-1.0529964469124329,1.15,-1.15,low,low,,ISIC_5482426.JPG,,ISIC_0032840.JPG,28,25,false,0.11,ll,keypress(f),0,true,627024.5999999046,627024.2999999523,621665.674,621679.2999999523,621682.287,627032.329,1,40,5,
sequence,flow.Sequence,8_4,2023-11-27T20:45:56.028Z,,,,,,,,,,,5342.012999952305,completion,,,,,,,low,low,,,,,,,false,,,,,true,627025,627024.2999999523,621665.674,621679.2999999523,621682.287,627032.329,1,40,,
trial,html.Screen,8_5_0,2023-11-27T20:46:11.610Z,,,,2,-0.0166849894750452,0.0371614812368835,,0.04,false,lh,15574.870999809238,response,-1.0822170028935367,1.0999999999999999,-0.9557803453047795,1.1654796154432183,1.15,-0.9557803453047795,low,high,,ISIC_6231450.JPG,,ISIC_7288818.JPG,28,25,false,0.20000000000000007,hl,keypress(j),0,true,642607.2999999523,642607.1999998093,627015.801,627025.0999999046,627032.329,642615.609,1,40,6,
sequence,flow.Sequence,8_5,2023-11-27T20:46:11.610Z,,,,,,,,,,,15574.870999809238,completion,,,,,,,low,high,,,,,,,false,,,,,true,642607.5,642607.1999998093,627015.801,627025.0999999046,627032.329,642615.609,1,40,,
trial,html.Screen,8_6_0,2023-11-27T20:46:21.508Z,,,,2,0.0189295602385628,0.0128812415435153,,0.04,true,lh,9889.290999856894,response,-0.7761549898346118,1.0999999999999999,-1.0057803453047796,1.0995228188562456,1.15,-0.9557803453047795,low,high,,ISIC_0010372.JPG,,ISIC_1835041.JPG,28,30,false,0.2300000000000001,lh,keypress(e),0,true,652505.1999998093,652504.899999857,642598.507,642607.5,642615.609,652515.568,1,40,7,
sequence,flow.Sequence,8_6,2023-11-27T20:46:21.509Z,,,,,,,,,,,9889.290999856894,completion,,,,,,,low,high,,,,,,,false,,,,,true,652505.6999998093,652504.899999857,642598.507,642607.5,642615.609,652515.568,1,40,,
trial,html.Screen,8_7_0,2023-11-27T20:46:34.381Z,,,,2,0.0327772618698018,-0.0056908372048728,,0.04,true,hl,12861.631999809295,response,0.8923602890201078,1.0999999999999999,-1.0057803453047796,-0.8351700666074688,1.15,-0.9557803453047795,high,low,,ISIC_7897925.JPG,,ISIC_0033103.JPG,28,29,false,0.2400000000000001,hl,keypress(j),0,true,665377.5,665377.1999998093,652498.835,652505.7999999523,652515.568,665382.184,1,40,8,
sequence,flow.Sequence,8_7,2023-11-27T20:46:34.381Z,,,,,,,,,,,12861.631999809295,completion,,,,,,,high,low,,,,,,,false,,,,,true,665377.899999857,665377.1999998093,652498.835,652505.7999999523,652515.568,665382.184,1,40,,
trial,html.Screen,8_8_0,2023-11-27T20:46:37.956Z,,,,2,0.0189295602385628,0.0128812415435153,,0.04,true,hh,3570.5159998092568,response,0.9949679201447648,1.0999999999999999,-1.0057803453047796,1.0468574143792184,1.15,-0.9557803453047795,high,high,,ISIC_0010372.JPG,,ISIC_6640753.JPG,28,28,false,0.13,hh,keypress(i),0,true,668953,668952.6999998093,665365.348,665378.1999998093,665382.184,668965.51,1,40,9,
sequence,flow.Sequence,8_8,2023-11-27T20:46:37.956Z,,,,,,,,,,,3570.5159998092568,completion,,,,,,,high,high,,,,,,,false,,,,,true,668953.5,668952.6999998093,665365.348,665378.0999999046,665382.184,668965.51,1,40,,
trial,html.Screen,8_9_0,2023-11-27T20:46:42.012Z,,,,2,-0.0023664502831079,-0.0252784582169994,,0.04,true,ll,4043.0899999046233,response,-1.0324288349148223,1.0499999999999998,-1.0057803453047796,-0.9551989453759216,1.0999999999999999,-0.9557803453047795,low,low,,ISIC_4156010.JPG,,ISIC_0033570.JPG,28,49,false,0.1,ll,keypress(f),0,true,673008.7999999523,673008.5999999046,668948.995,668953.6999998093,668965.51,673015.523,1,40,10,
sequence,flow.Sequence,8_9,2023-11-27T20:46:42.012Z,,,,,,,,,,,4043.0899999046233,completion,,,,,,,low,low,,,,,,,false,,,,,true,673009.1999998093,673008.5999999046,668948.995,668953.5999999046,668965.51,673015.523,1,40,,
trial,html.Screen,8_10_0,2023-11-27T20:46:45.436Z,,,,2,0.010035581303589,-0.0100711721396864,,0.04,true,hh,3417.576999904588,response,0.9991910338212396,1.0499999999999998,-0.8451845059916951,1.0085499824556403,1.0999999999999999,-0.8451845059916951,high,high,,ISIC_0030592.JPG,,ISIC_7795549.JPG,28,26,false,0.12,hh,keypress(i),0,true,676433.399999857,676433.0999999046,672998.774,673009.2999999523,673015.523,676448.892,1,40,11,
sequence,flow.Sequence,8_10,2023-11-27T20:46:45.437Z,,,,,,,,,,,3417.576999904588,completion,,,,,,,high,high,,,,,,,false,,,,,true,676433.899999857,676433.0999999046,672998.774,673009.2999999523,673015.523,676448.892,1,40,,
trial,html.Screen,8_11_0,2023-11-27T20:46:47.163Z,,,,2,-0.0118555311043871,-0.0087774532070196,,0.04,false,hh,1711.20799990464,response,1.011737552725394,1.0499999999999998,-0.8451845059916951,1.0893360711742854,1.0999999999999999,-0.8451845059916951,high,high,,ISIC_6488658.JPG,,ISIC_2998367.JPG,28,26,false,0.12,hl,keypress(j),0,true,678160.399999857,678160.0999999046,676432.365,676434,676448.892,678165.486,1,40,12,
sequence,flow.Sequence,8_11,2023-11-27T20:46:47.164Z,,,,,,,,,,,1711.20799990464,completion,,,,,,,high,high,,,,,,,false,,,,,true,678160.899999857,678160.0999999046,676432.365,676434,676448.892,678165.486,1,40,,
trial,html.Screen,8_12_0,2023-11-27T20:46:48.836Z,,,,2,-0.0023664502831079,-0.0252784582169994,,0.04,false,hh,1667.2139998092316,response,0.9537595754201148,0.9601437675905171,-0.8451845059916951,1.1342661775432377,1.15,-0.8451845059916951,high,high,,ISIC_4156010.JPG,,ISIC_0741694.JPG,28,26,false,0.11,lh,keypress(e),0,true,679832.899999857,679832.6999998093,678148.999,678161,678165.486,679849.121,1,40,13,
sequence,flow.Sequence,8_12,2023-11-27T20:46:48.836Z,,,,,,,,,,,1667.2139998092316,completion,,,,,,,high,high,,,,,,,false,,,,,true,679833.2999999523,679832.6999998093,678148.999,678161,678165.486,679849.121,1,40,,
trial,html.Screen,8_13_0,2023-11-27T20:46:50.076Z,,,,2,-0.012810673904807,0.00400964452501,,0.04,true,ll,1223.278999856906,response,-0.8650250639951559,1.0101437675905172,-0.8451845059916951,-0.7706339518336388,1.15,-0.8451845059916951,low,low,,ISIC_0064656.JPG,,ISIC_0061141.JPG,28,54,false,0.1,ll,keypress(f),0,true,681072.6999998093,681072.399999857,679832.337,679833.5,679849.121,681082.164,1,40,14,
sequence,flow.Sequence,8_13,2023-11-27T20:46:50.077Z,,,,,,,,,,,1223.278999856906,completion,,,,,,,low,low,,,,,,,false,,,,,true,681073.0999999046,681072.399999857,679832.337,679833.5,679849.121,681082.164,1,40,,
trial,html.Screen,8_14_0,2023-11-27T20:46:53.901Z,,,,2,0.0321039635696159,0.020496766286318,,0.04,true,hh,3814.735999856959,response,1.0901635293704552,1.0101437675905172,-0.8451845059916951,1.0348352814358883,1.15,-0.8451845059916951,high,high,,ISIC_0058063.JPG,,ISIC_7583134.JPG,28,29,false,0.13,hh,keypress(i),0,true,684897.1999998093,684896.899999857,681065.707,681073.2999999523,681082.164,684916.111,1,40,15,
sequence,flow.Sequence,8_14,2023-11-27T20:46:53.901Z,,,,,,,,,,,3814.735999856959,completion,,,,,,,high,high,,,,,,,false,,,,,true,684897.5,684896.899999857,681065.707,681073.1999998093,681082.164,684916.111,1,40,,
trial,html.Screen,8_15_0,2023-11-27T20:46:56.197Z,,,,2,-0.0077673378094614,-0.0021810768579373,,0.04,false,lh,2276.7889998569153,response,-0.8561946552009824,1.0101437675905172,-0.8451845059916951,0.9282171889213044,1.0124994054031717,-0.8451845059916951,low,high,,ISIC_0067621.JPG,,ISIC_3065032.JPG,28,26,false,0.15000000000000002,hh,keypress(i),0,true,687193.1999998093,687192.899999857,684882.328,684897.6999998093,684916.111,687198.821,1,40,16,
sequence,flow.Sequence,8_15,2023-11-27T20:46:56.197Z,,,,,,,,,,,2276.7889998569153,completion,,,,,,,low,high,,,,,,,false,,,,,true,687193.5,687192.899999857,684882.328,684897.6999998093,684916.111,687198.821,1,40,,
trial,html.Screen,8_16_0,2023-11-27T20:47:08.300Z,,,,2,0.0086413421586899,0.0360184993500958,,0.04,false,hl,12097.078999856953,response,1.1501717278509027,1.0101437675905172,-0.8951845059916952,-0.8228936373136835,1.0124994054031717,-0.8451845059916951,high,low,,ISIC_0010767.JPG,,ISIC_8398000.JPG,28,29,false,0.17000000000000004,ll,keypress(f),0,true,699296.0999999046,699295.899999857,687182.381,687193.6999998093,687198.821,699298.801,1,40,17,
sequence,flow.Sequence,8_16,2023-11-27T20:47:08.300Z,,,,,,,,,,,12097.078999856953,completion,,,,,,,high,low,,,,,,,false,,,,,true,699296.5,699295.899999857,687182.381,687193.5999999046,687198.821,699298.801,1,40,,
trial,html.Screen,8_17_0,2023-11-27T20:47:13.988Z,,,,2,0.0327772618698018,-0.0056908372048728,,0.04,false,lh,5685.098999856971,response,-0.7877592509894734,1.0601437675905172,-0.8951845059916952,1.1264694181779615,1.0124994054031717,-0.7951845059916951,low,high,,ISIC_7897925.JPG,,ISIC_9058340.JPG,28,25,false,0.17000000000000004,hh,keypress(i),0,true,704984.1999998093,704983.899999857,699281.719,699296.6999998093,699298.801,704998.915,1,40,18,
sequence,flow.Sequence,8_17,2023-11-27T20:47:13.988Z,,,,,,,,,,,5685.098999856971,completion,,,,,,,low,high,,,,,,,false,,,,,true,704984.5999999046,704983.899999857,699281.719,699296.5999999046,699298.801,704998.915,1,40,,
trial,html.Screen,8_18_0,2023-11-27T20:47:17.186Z,,,,2,-0.0377791839943904,0.0227626648172468,,0.04,true,hh,3183.784999809228,response,1.0103403743290518,1.0601437675905172,-0.9451845059916952,0.8700511901947987,0.9773433035496331,-0.7951845059916951,high,high,,ISIC_7167479.JPG,,ISIC_1254469.JPG,28,27,false,0.11,hh,keypress(i),0,true,708182.7999999523,708182.6999998093,704981.991,704984.6999998093,704998.915,708198.773,1,40,19,
sequence,flow.Sequence,8_18,2023-11-27T20:47:17.187Z,,,,,,,,,,,3183.784999809228,completion,,,,,,,high,high,,,,,,,false,,,,,true,708182.899999857,708182.6999998093,704981.991,704984.6999998093,704998.915,708198.773,1,40,,
trial,html.Screen,8_19_0,2023-11-27T20:47:23.812Z,,,,2,0.0063515208248796,0.0194177605767913,,0.04,true,hl,6609.226999999955,response,1.007248440493079,1.0601437675905172,-0.9451845059916952,-0.6545324227286122,0.9773433035496331,-0.7951845059916951,high,low,,ISIC_5281908.JPG,,ISIC_0030219.JPG,28,29,false,0.17000000000000004,hl,keypress(j),0,true,714808.2999999523,714808,708182.135,708183,708198.773,714815.417,1,40,20,
sequence,flow.Sequence,8_19,2023-11-27T20:47:23.812Z,,,,,,,,,,,6609.226999999955,completion,,,,,,,high,low,,,,,,,false,,,,,true,714808.6999998093,714808,708182.135,708183,708198.773,714815.417,1,40,,
trial,html.Screen,8_20_0,2023-11-27T20:47:34.668Z,,,,2,0.0086413421586899,0.0360184993500958,,0.04,false,hl,10848.982999856933,response,1.1501717278509027,1.0101437675905172,-0.9451845059916952,-0.8228936373136835,0.9773433035496331,-0.7951845059916951,high,low,,ISIC_0010767.JPG,,ISIC_8398000.JPG,28,27,false,0.16000000000000003,ll,keypress(f),0,true,725664.6999998093,725664.399999857,714798.611,714808.899999857,714815.417,725682.215,1,40,21,
sequence,flow.Sequence,8_20,2023-11-27T20:47:34.669Z,,,,,,,,,,,10848.982999856933,completion,,,,,,,high,low,,,,,,,false,,,,,true,725665.1999998093,725664.399999857,714798.611,714808.899999857,714815.417,725682.215,1,40,,
trial,html.Screen,8_21_0,2023-11-27T20:47:40.468Z,,,,2,-0.0023664502831079,-0.0252784582169994,,0.04,true,ll,5781.785000000033,response,-0.9793567585680304,1.0601437675905172,-0.9451845059916952,-0.6988275276136398,0.9773433035496331,-0.6887130300211478,low,low,,ISIC_4156010.JPG,,ISIC_0071471.JPG,28,52,false,0.1,ll,keypress(f),0,true,731464.1999998093,731464,725665.255,725665.5,725682.215,731482.108,1,40,22,
sequence,flow.Sequence,8_21,2023-11-27T20:47:40.468Z,,,,,,,,,,,5781.785000000033,completion,,,,,,,low,low,,,,,,,false,,,,,true,731464.5999999046,731464,725665.255,725665.399999857,725682.215,731482.108,1,40,,
trial,html.Screen,8_22_0,2023-11-27T20:47:43.074Z,,,,2,0.0063515208248796,0.0194177605767913,,0.04,true,hh,2588.491999904625,response,1.1638334638021437,1.0601437675905172,-0.9451845059916952,1.0846635401396965,0.9773433035496331,-0.6887130300211478,high,high,,ISIC_5281908.JPG,,ISIC_4718313.JPG,28,27,false,0.11,hh,keypress(i),0,true,734070.6999998093,734070.5999999046,731448.814,731464.7999999523,731482.108,734082.221,1,40,23,
sequence,flow.Sequence,8_22,2023-11-27T20:47:43.074Z,,,,,,,,,,,2588.491999904625,completion,,,,,,,high,high,,,,,,,false,,,,,true,734070.7999999523,734070.5999999046,731448.814,731464.7999999523,731482.108,734082.221,1,40,,
trial,html.Screen,8_23_0,2023-11-27T20:47:51.021Z,,,,2,-0.0166849894750452,0.0371614812368835,,0.04,true,hh,7934.678999856929,response,1.1119564877278971,1.0601437675905172,-0.9451845059916952,0.9546609075308709,1.07424850197092,-0.6887130300211478,high,high,,ISIC_6231450.JPG,,ISIC_0056110.JPG,28,25,false,0.12,hh,keypress(i),0,true,742017.1999998093,742016.899999857,734065.533,734070.899999857,734082.221,742032.173,1,40,24,
sequence,flow.Sequence,8_23,2023-11-27T20:47:51.022Z,,,,,,,,,,,7934.678999856929,completion,,,,,,,high,high,,,,,,,false,,,,,true,742017.5999999046,742016.899999857,734065.533,734070.7999999523,734082.221,742032.173,1,40,,
trial,html.Screen,8_24_0,2023-11-27T20:47:58.749Z,,,,2,-0.0158987717472563,-0.0292472192292015,,0.04,true,ll,7712.226999856997,response,-0.9441762364280936,0.9833086976293839,-0.9451845059916952,-0.652042601330859,1.07424850197092,-0.6887130300211478,low,low,,ISIC_1366765.JPG,,ISIC_0065521.JPG,28,52,false,0.1,ll,keypress(f),0,true,749744.899999857,749744.399999857,742015.195,742017.899999857,742032.173,749748.68,1,40,25,
sequence,flow.Sequence,8_24,2023-11-27T20:47:58.749Z,,,,,,,,,,,7712.226999856997,completion,,,,,,,low,low,,,,,,,false,,,,,true,749745.2999999523,749744.399999857,742015.195,742017.7999999523,742032.173,749748.68,1,40,,
trial,html.Screen,8_25_0,2023-11-27T20:48:08.826Z,,,,2,-0.0071892445601978,0.0246015408628738,,0.04,false,ll,10073.419999904581,response,-0.9441762364280936,0.9833086976293839,-0.8951845059916952,-0.652042601330859,1.07424850197092,-0.6387130300211478,low,low,,ISIC_0014133.JPG,,ISIC_0065521.JPG,28,49,false,0.1,lh,keypress(e),0,true,759822.1999998093,759822.0999999046,749731.738,749745.5,749748.68,759831.921,1,40,26,
sequence,flow.Sequence,8_25,2023-11-27T20:48:08.826Z,,,,,,,,,,,10073.419999904581,completion,,,,,,,low,low,,,,,,,false,,,,,true,759822.2999999523,759822.0999999046,749731.738,749745.5,749748.68,759831.921,1,40,,
trial,html.Screen,8_26_0,2023-11-27T20:48:14.164Z,,,,2,-0.0158987717472563,-0.0292472192292015,,0.04,true,ll,5327.978999856976,response,-0.9812657346690282,0.9833086976293839,-0.8951845059916952,-0.7172037631739148,1.07424850197092,-0.6887130300211478,low,low,,ISIC_1366765.JPG,,ISIC_0061625.JPG,28,54,false,0.1,ll,keypress(f),0,true,765160.0999999046,765159.899999857,759815.181,759822.399999857,759831.921,765165.229,1,40,27,
sequence,flow.Sequence,8_26,2023-11-27T20:48:14.165Z,,,,,,,,,,,5327.978999856976,completion,,,,,,,low,low,,,,,,,false,,,,,true,765160.6999998093,765159.899999857,759815.181,759822.2999999523,759831.921,765165.229,1,40,,
trial,html.Screen,8_27_0,2023-11-27T20:48:19.044Z,,,,2,0.0327772618698018,-0.0056908372048728,,0.04,true,lh,4874.370999904582,response,-0.7468996036626098,0.9833086976293839,-0.7992347489214715,1.0079605779898853,1.07424850197092,-0.6887130300211478,low,high,,ISIC_7897925.JPG,,ISIC_5335139.JPG,28,27,false,0.15000000000000002,lh,keypress(e),0,true,770039.7999999523,770039.5999999046,765148.681,765160.899999857,765165.229,770048.605,1,40,28,
sequence,flow.Sequence,8_27,2023-11-27T20:48:19.044Z,,,,,,,,,,,4874.370999904582,completion,,,,,,,low,high,,,,,,,false,,,,,true,770040.1999998093,770039.5999999046,765148.681,765160.899999857,765165.229,770048.605,1,40,,
trial,html.Screen,8_28_0,2023-11-27T20:48:25.733Z,,,,2,0.0367218428225813,-0.0026956749740767,,0.04,false,hl,6680.094999809284,response,0.9372133071132136,0.9833086976293839,-0.7992347489214715,-0.619321681341393,1.02424850197092,-0.6887130300211478,high,low,,ISIC_7212271.JPG,,ISIC_6450034.JPG,28,29,false,0.14,hh,keypress(i),0,true,776729,776728.6999998093,770031.959,770040.399999857,770048.605,776731.968,1,40,29,
sequence,flow.Sequence,8_28,2023-11-27T20:48:25.734Z,,,,,,,,,,,6680.094999809284,completion,,,,,,,high,low,,,,,,,false,,,,,true,776729.5,776728.6999998093,770031.959,770040.2999999523,770048.605,776731.968,1,40,,
trial,html.Screen,8_29_0,2023-11-27T20:48:30.261Z,,,,2,-0.0350697500805515,-0.0166617848231997,,0.04,true,ll,4525.131999904639,response,-0.7799575593059165,0.9833086976293839,-0.7992347489214715,-0.6421733271128099,1.02424850197092,-0.7387130300211479,low,low,,ISIC_0024423.JPG,,ISIC_0034313.JPG,28,64,false,0.1,ll,keypress(f),0,true,781257.2999999523,781257.0999999046,776715.234,776729.6999998093,776731.968,781265.236,1,40,30,
sequence,flow.Sequence,8_29,2023-11-27T20:48:30.262Z,,,,,,,,,,,4525.131999904639,completion,,,,,,,low,low,,,,,,,false,,,,,true,781257.7999999523,781257.0999999046,776715.234,776729.5999999046,776731.968,781265.236,1,40,,
trial,html.Screen,8_30_0,2023-11-27T20:48:37.748Z,,,,2,-0.0077673378094614,-0.0021810768579373,,0.04,false,lh,7478.563999952283,response,-0.7622326985614671,0.9833086976293839,-0.6610654432093632,1.1077754321509423,1.02424850197092,-0.7387130300211479,low,high,,ISIC_0067621.JPG,,ISIC_4548995.JPG,28,28,false,0.12,hl,keypress(j),0,true,788744.0999999046,788743.7999999523,781248.487,781258,781265.236,788748.561,1,40,31,
sequence,flow.Sequence,8_30,2023-11-27T20:48:37.749Z,,,,,,,,,,,7478.563999952283,completion,,,,,,,low,high,,,,,,,false,,,,,true,788744.5,788743.7999999523,781248.487,781257.899999857,781265.236,788748.561,1,40,,
trial,html.Screen,8_31_0,2023-11-27T20:48:42.507Z,,,,2,0.010035581303589,-0.0100711721396864,,0.04,false,hl,4754.538999904646,response,0.9241510017125296,0.9833086976293839,-0.7110654432093633,-0.6126232424254019,1.07424850197092,-0.7387130300211479,high,low,,ISIC_0030592.JPG,,ISIC_0067804.JPG,28,26,false,0.14,hh,keypress(i),0,true,793503.1999998093,793503.0999999046,788731.874,788744.6999998093,788748.561,793515.204,1,40,32,
sequence,flow.Sequence,8_31,2023-11-27T20:48:42.507Z,,,,,,,,,,,4754.538999904646,completion,,,,,,,high,low,,,,,,,false,,,,,true,793503.399999857,793503.0999999046,788731.874,788744.5999999046,788748.561,793515.204,1,40,,
trial,html.Screen,8_32_0,2023-11-27T20:48:45.115Z,,,,2,0.010035581303589,-0.0100711721396864,,0.04,false,lh,2595.295999999973,response,-0.6714344890480403,0.9333086976293838,-0.7110654432093633,1.1317411618506656,1.07424850197092,-0.7887130300211479,low,high,,ISIC_0030592.JPG,,ISIC_3691320.JPG,28,28,false,0.14,hh,keypress(i),0,true,796110.5,796110.5,793498.473,793503.399999857,793515.204,796115.15,1,40,33,
sequence,flow.Sequence,8_32,2023-11-27T20:48:45.115Z,,,,,,,,,,,2595.295999999973,completion,,,,,,,low,high,,,,,,,false,,,,,true,796110.6999998093,796110.5,793498.473,793503.399999857,793515.204,796115.15,1,40,,
trial,html.Screen,8_33_0,2023-11-27T20:48:49.115Z,,,,2,-0.0377791839943904,0.0227626648172468,,0.04,true,ll,3995.049999809242,response,-0.8542403401067127,0.9333086976293838,-0.7610654432093633,-0.8471646801526567,1.07424850197092,-0.7887130300211479,low,low,,ISIC_7167479.JPG,,ISIC_0010140.JPG,28,61,false,0.1,ll,keypress(f),0,true,800110.2999999523,800110.1999998093,796098.747,796110.6999998093,796115.15,800115.161,1,40,34,
sequence,flow.Sequence,8_33,2023-11-27T20:48:49.115Z,,,,,,,,,,,3995.049999809242,completion,,,,,,,low,low,,,,,,,false,,,,,true,800110.5,800110.1999998093,796098.747,796110.6999998093,796115.15,800115.161,1,40,,
trial,html.Screen,8_34_0,2023-11-27T20:48:51.189Z,,,,2,0.0361875505619981,-0.0291457404567876,,0.04,true,hh,2069.238999856985,response,0.9991910338212396,0.9333086976293838,-0.7610654432093633,1.0085499824556403,1.07424850197092,-0.7887130300211479,high,high,,ISIC_0027480.JPG,,ISIC_7795549.JPG,28,28,false,0.11,hh,keypress(i),0,true,802184.5999999046,802184.399999857,800098.551,800110.5,800115.161,802198.733,1,40,35,
sequence,flow.Sequence,8_34,2023-11-27T20:48:51.190Z,,,,,,,,,,,2069.238999856985,completion,,,,,,,high,high,,,,,,,false,,,,,true,802185.0999999046,802184.399999857,800098.551,800110.5,800115.161,802198.733,1,40,,
trial,html.Screen,8_35_0,2023-11-27T20:48:59.365Z,,,,2,0.0367218428225813,-0.0026956749740767,,0.04,false,hl,8161.866999904625,response,0.8277658066009654,0.9333086976293838,-0.7610654432093633,-0.708917192410697,0.95387050813844,-0.7887130300211479,high,low,,ISIC_7212271.JPG,,ISIC_0033168.JPG,28,29,false,0.15000000000000002,ll,keypress(f),0,true,810360.7999999523,810360.5999999046,802182.036,802185.1999998093,802198.733,810365.184,1,40,36,
sequence,flow.Sequence,8_35,2023-11-27T20:48:59.366Z,,,,,,,,,,,8161.866999904625,completion,,,,,,,high,low,,,,,,,false,,,,,true,810361.0999999046,810360.5999999046,802182.036,802185.0999999046,802198.733,810365.184,1,40,,
trial,html.Screen,8_36_0,2023-11-27T20:49:01.653Z,,,,2,-0.0071892445601978,0.0246015408628738,,0.04,true,hh,2283.115999952308,response,0.8997449990565672,0.9833086976293839,-0.7610654432093633,0.9792890899144426,0.95387050813844,-0.7387130300211479,high,high,,ISIC_0014133.JPG,,ISIC_0469314.JPG,28,26,false,0.1,hh,keypress(i),0,true,812648.5,812648.2999999523,810348.434,810361.2999999523,810365.184,812665.39,1,40,37,
sequence,flow.Sequence,8_36,2023-11-27T20:49:01.654Z,,,,,,,,,,,2283.115999952308,completion,,,,,,,high,high,,,,,,,false,,,,,true,812649,812648.2999999523,810348.434,810361.1999998093,810365.184,812665.39,1,40,,
trial,html.Screen,8_37_0,2023-11-27T20:49:04.965Z,,,,2,-0.0158987717472563,-0.0292472192292015,,0.04,true,ll,3294.809999809251,response,-0.6993338627325044,0.9833086976293839,-0.7610654432093633,-0.6558016348302559,0.95387050813844,-0.7387130300211479,low,low,,ISIC_1366765.JPG,,ISIC_0067985.JPG,28,67,false,0.1,ll,keypress(f),0,true,815960.5999999046,815960.1999998093,812648.696,812649.0999999046,812665.39,815965.109,1,40,38,
sequence,flow.Sequence,8_37,2023-11-27T20:49:04.966Z,,,,,,,,,,,3294.809999809251,completion,,,,,,,low,low,,,,,,,false,,,,,true,815961,815960.1999998093,812648.696,812649,812665.39,815965.109,1,40,,
trial,html.Screen,8_38_0,2023-11-27T20:49:12.245Z,,,,2,-0.012810673904807,0.00400964452501,,0.04,true,lh,7275.290999856894,response,-0.5756952374956676,0.9833086976293839,-0.6275677487813801,1.0569569458690249,0.95387050813844,-0.7387130300211479,low,high,,ISIC_0064656.JPG,,ISIC_5832901.JPG,28,29,false,0.11,lh,keypress(e),0,true,823240.6999998093,823240.399999857,815948.609,815961.0999999046,815965.109,823248.486,1,40,39,
sequence,flow.Sequence,8_38,2023-11-27T20:49:12.246Z,,,,,,,,,,,7275.290999856894,completion,,,,,,,low,high,,,,,,,false,,,,,true,823241.0999999046,823240.399999857,815948.609,815961.0999999046,815965.109,823248.486,1,40,,
trial,html.Screen,8_39_0,2023-11-27T20:49:16.550Z,,,,2,0.0189295602385628,0.0128812415435153,,0.04,false,lh,4296.213999809232,response,-0.6795011676675823,0.9833086976293839,-0.6275677487813801,0.9453006131304652,0.9038705081384399,-0.7387130300211479,low,high,,ISIC_0010372.JPG,,ISIC_4229473.JPG,28,27,false,0.1,ll,keypress(f),0,true,827544.899999857,827544.6999998093,823231.754,823241.2999999523,823248.486,827548.494,1,40,40,
sequence,flow.Sequence,8_39,2023-11-27T20:49:16.550Z,,,,,,,,,,,4296.213999809232,completion,,,,,,,low,high,,,,,,,false,,,,,true,827545.5,827544.6999998093,823231.754,823241.1999998093,823248.486,827548.494,1,40,,
stair_loop,flow.Loop,8,2023-11-27T20:49:16.550Z,,,,,,,,,,,235312.15099980927,completion,,,,,,,,,,,,,,,false,,,,,true,827545.6999998093,827544.6999998093,592215.96,592206.399999857,592232.549,827548.494,1,40,,
exp_instructions,html.Screen,9,2023-11-27T20:49:27.925Z,,,,,,,,,,,11371.305999952368,response,,,,,,,,,,,,,,,,,continue,keypress(Space),,,838920.399999857,838919.7999999523,827531.657,827545.7999999523,827548.494,838931.747,,,,
trial,html.Screen,10_0_0,2023-11-27T20:49:37.597Z,,,,1,-0.0050679133050021,-0.0174815595031679,,0.04,false,lh,9659.753000000026,response,-0.8561946552009824,0.9861757116216104,-0.8028827415971973,0.9282171889213044,1.019618223749607,-0.729036603819675,low,high,,ISIC_9848743.JPG,9,ISIC_3065032.JPG,28,31,false,0.14,hh,keypress(i),0,false,848591.899999857,848591.5,838914.876,838920.7999999523,838931.747,848598.386,5,600,1,
break,html.Screen,10_0_1,2023-11-27T20:49:37.598Z,,,,,,,,,,,NaN,,,,,,,,low,high,,,,,,,false,,,,,false,848593.0999999046,848592.5999999046,,848592.1999998093,,848598.386,5,600,,
break_continue,html.Screen,10_0_2,2023-11-27T20:49:37.599Z,,,,,,,,,,,NaN,,,,,,,,low,high,,,,,,,false,,,,,false,848593.7999999523,848593.5999999046,,848593.1999998093,,848598.386,5,600,,
sequence,flow.Sequence,10_0,2023-11-27T20:49:37.599Z,,,,,,,,,,,9661.852999904659,completion,,,,,,,low,high,,,,,,,false,,,,,false,848594.0999999046,848593.5999999046,838914.876,838920.6999998093,838931.747,848598.386,5,600,,
trial,html.Screen,10_1_0,2023-11-27T20:49:41.429Z,,,,1,-0.0166849894750452,0.0371614812368835,,0.04,true,hh,3825.4139999522595,response,0.9204445772182712,0.9861757116216104,-0.8028827415971973,0.927445785309251,1.019618223749607,-0.729036603819675,high,high,,ISIC_6231450.JPG,9,ISIC_7839741.JPG,28,27,false,0.11,hh,keypress(i),0,false,852424.0999999046,852423.7999999523,848581.654,848594.2999999523,848598.386,852431.708,5,600,2,
break,html.Screen,10_1_1,2023-11-27T20:49:41.430Z,,,,,,,,,,,NaN,,,,,,,,high,high,,,,,,,false,,,,,false,852425,852424.7999999523,,852424.399999857,,852431.708,5,600,,
break_continue,html.Screen,10_1_2,2023-11-27T20:49:41.430Z,,,,,,,,,,,NaN,,,,,,,,high,high,,,,,,,false,,,,,false,852425.6999998093,852425.399999857,,852425.1999998093,,852431.708,5,600,,
sequence,flow.Sequence,10_1,2023-11-27T20:49:41.431Z,,,,,,,,,,,3827.013999856892,completion,,,,,,,high,high,,,,,,,false,,,,,false,852425.899999857,852425.399999857,848581.654,848594.2999999523,848598.386,852431.708,5,600,,
trial,html.Screen,10_2_0,2023-11-27T20:49:46.893Z,,,,1,-0.0158987717472563,-0.0292472192292015,,0.04,true,ll,5455.891999904648,response,-0.7571779700096857,0.9861757116216104,-0.8028827415971973,-0.7705794129828005,1.019618223749607,-0.729036603819675,low,low,,ISIC_1366765.JPG,9,ISIC_0011343.JPG,28,61,false,0.1,ll,keypress(f),0,false,857887.899999857,857887.5999999046,852415.198,852426.0999999046,852431.708,857898.358,5,600,3,
break,html.Screen,10_2_1,2023-11-27T20:49:46.894Z,,,,,,,,,,,NaN,,,,,,,,low,low,,,,,,,false,,,,,false,857888.7999999523,857888.5999999046,,857888.1999998093,,857898.358,5,600,,
break_continue,html.Screen,10_2_2,2023-11-27T20:49:46.894Z,,,,,,,,,,,NaN,,,,,,,,low,low,,,,,,,false,,,,,false,857889.399999857,857889.2999999523,,857889,,857898.358,5,600,,
sequence,flow.Sequence,10_2,2023-11-27T20:49:46.894Z,,,,,,,,,,,5457.591999952332,completion,,,,,,,low,low,,,,,,,false,,,,,false,857889.6999998093,857889.2999999523,852415.198,852426.0999999046,852431.708,857898.358,5,600,,
trial,html.Screen,10_3_0,2023-11-27T20:49:49.628Z,,,,1,0.0361875505619981,-0.0291457404567876,,0.04,false,lh,2724.441999952309,response,-0.6795011676675823,0.9861757116216104,-0.8028827415971973,0.9453006131304652,1.019618223749607,-0.729036603819675,low,high,,ISIC_0027480.JPG,9,ISIC_4229473.JPG,28,31,false,0.14,ll,keypress(f),0,false,860622.899999857,860622.7999999523,857881.736,857889.899999857,857898.358,860631.785,5,600,4,
break,html.Screen,10_3_1,2023-11-27T20:49:49.628Z,,,,,,,,,,,NaN,,,,,,,,low,high,,,,,,,false,,,,,false,860623.1999998093,860623.0999999046,,860623,,860631.785,5,600,,
break_continue,html.Screen,10_3_2,2023-11-27T20:49:49.628Z,,,,,,,,,,,NaN,,,,,,,,low,high,,,,,,,false,,,,,false,860623.399999857,860623.2999999523,,860623.2999999523,,860631.785,5,600,,
sequence,flow.Sequence,10_3,2023-11-27T20:49:49.629Z,,,,,,,,,,,2724.941999952309,completion,,,,,,,low,high,,,,,,,false,,,,,false,860623.399999857,860623.2999999523,857881.736,857889.7999999523,857898.358,860631.785,5,600,,
trial,html.Screen,10_4_0,2023-11-27T20:49:54.916Z,,,,1,0.0361875505619981,-0.0291457404567876,,0.04,false,hl,5279.014999952284,response,0.8499166547141936,0.9861757116216104,-0.8028827415971973,-0.7036682097053684,1.019618223749607,-0.729036603819675,high,low,,ISIC_0027480.JPG,8,ISIC_0069743.JPG,28,29,false,0.14,ll,keypress(f),0,false,865910.7999999523,865910.7999999523,860615.262,860623.399999857,860631.785,865915,5,600,5,
break,html.Screen,10_4_1,2023-11-27T20:49:54.916Z,,,,,,,,,,,NaN,,,,,,,,high,low,,,,,,,false,,,,,false,865911.1999998093,865911.0999999046,,865911,,865915,5,600,,
break_continue,html.Screen,10_4_2,2023-11-27T20:49:54.916Z,,,,,,,,,,,NaN,,,,,,,,high,low,,,,,,,false,,,,,false,865911.1999998093,865911.1999998093,,865911.1999998093,,865915,5,600,,
sequence,flow.Sequence,10_4,2023-11-27T20:49:54.916Z,,,,,,,,,,,5279.4149998092325,completion,,,,,,,high,low,,,,,,,false,,,,,false,865911.2999999523,865911.1999998093,860615.262,860623.399999857,860631.785,865915,5,600,,
trial,html.Screen,10_5_0,2023-11-27T20:50:00.621Z,,,,1,-0.0350697500805515,-0.0166617848231997,,0.04,false,lh,5700.399999856949,response,-0.6714344890480403,0.9861757116216104,-0.8028827415971973,1.1317411618506656,1.019618223749607,-0.729036603819675,low,high,,ISIC_0024423.JPG,8,ISIC_3691320.JPG,28,31,false,0.14,hh,keypress(i),0,false,871615.5999999046,871615.399999857,865898.493,865911.2999999523,865915,871631.909,5,600,6,
break,html.Screen,10_5_1,2023-11-27T20:50:00.622Z,,,,,,,,,,,NaN,,,,,,,,low,high,,,,,,,false,,,,,false,871616.5999999046,871616.2999999523,,871615.899999857,,871631.909,5,600,,
break_continue,html.Screen,10_5_2,2023-11-27T20:50:00.622Z,,,,,,,,,,,NaN,,,,,,,,low,high,,,,,,,false,,,,,false,871617.0999999046,871616.899999857,,871616.6999998093,,871631.909,5,600,,
sequence,flow.Sequence,10_5,2023-11-27T20:50:00.622Z,,,,,,,,,,,5701.899999856949,completion,,,,,,,low,high,,,,,,,false,,,,,false,871617.2999999523,871616.899999857,865898.493,865911.2999999523,865915,871631.909,5,600,,
trial,html.Screen,10_6_0,2023-11-27T20:50:04.821Z,,,,1,-0.012810673904807,0.00400964452501,,0.04,true,ll,4183.79099980928,response,-0.7912462399808581,0.9861757116216104,-0.8028827415971973,-0.7917788270540937,1.019618223749607,-0.729036603819675,low,low,,ISIC_0064656.JPG,9,ISIC_2458253.JPG,28,61,false,0.1,ll,keypress(f),0,false,875816,875815.6999998093,871615.212,871617.5,871631.909,875848.587,5,600,7,
break,html.Screen,10_6_1,2023-11-27T20:50:04.822Z,,,,,,,,,,,NaN,,,,,,,,low,low,,,,,,,false,,,,,false,875816.899999857,875816.6999998093,,875816.2999999523,,875848.587,5,600,,
break_continue,html.Screen,10_6_2,2023-11-27T20:50:04.823Z,,,,,,,,,,,NaN,,,,,,,,low,low,,,,,,,false,,,,,false,875817.399999857,875817.2999999523,,875817.0999999046,,875848.587,5,600,,
sequence,flow.Sequence,10_6,2023-11-27T20:50:04.823Z,,,,,,,,,,,4185.390999952331,completion,,,,,,,low,low,,,,,,,false,,,,,false,875817.6999998093,875817.2999999523,871615.212,871617.5,871631.909,875848.587,5,600,,
trial,html.Screen,10_7_0,2023-11-27T20:50:11.012Z,,,,1,0.0361875505619981,-0.0291457404567876,,0.04,false,ll,6157.7129999522585,response,-0.7597421372185947,0.9861757116216104,-0.8028827415971973,-0.7152318781979511,1.019618223749607,-0.729036603819675,low,low,,ISIC_0027480.JPG,8,ISIC_0009894.JPG,28,61,false,0.1,hl,keypress(j),0,false,882006.399999857,882006.2999999523,875831.764,875817.899999857,875848.587,882014.934,5,600,8,
break,html.Screen,10_7_1,2023-11-27T20:50:11.012Z,,,,,,,,,,,NaN,,,,,,,,low,low,,,,,,,false,,,,,false,882006.6999998093,882006.6999998093,,882006.5,,882014.934,5,600,,
break_continue,html.Screen,10_7_2,2023-11-27T20:50:11.012Z,,,,,,,,,,,NaN,,,,,,,,low,low,,,,,,,false,,,,,false,882006.899999857,882006.7999999523,,882006.6999998093,,882014.934,5,600,,
sequence,flow.Sequence,10_7,2023-11-27T20:50:11.012Z,,,,,,,,,,,6158.2129999522585,completion,,,,,,,low,low,,,,,,,false,,,,,false,882006.899999857,882006.7999999523,875831.764,875817.7999999523,875848.587,882014.934,5,600,,
trial,html.Screen,10_8_0,2023-11-27T20:50:18.357Z,,,,1,-0.0118555311043871,-0.0087774532070196,,0.04,true,hl,7336.565999999992,response,0.8989956910662346,0.9861757116216104,-0.8028827415971973,-0.6402944347942278,1.019618223749607,-0.729036603819675,high,low,,ISIC_6488658.JPG,9,ISIC_1472731.JPG,28,29,false,0.14,hl,keypress(j),0,false,889351.7999999523,889351.5,881998.439,882007,882014.934,889364.967,5,600,9,
break,html.Screen,10_8_1,2023-11-27T20:50:18.358Z,,,,,,,,,,,NaN,,,,,,,,high,low,,,,,,,false,,,,,false,889352.6999998093,889352.5,,889352,,889364.967,5,600,,
break_continue,html.Screen,10_8_2,2023-11-27T20:50:18.358Z,,,,,,,,,,,NaN,,,,,,,,high,low,,,,,,,false,,,,,false,889353.2999999523,889353.0999999046,,889352.899999857,,889364.967,5,600,,
sequence,flow.Sequence,10_8,2023-11-27T20:50:18.359Z,,,,,,,,,,,7338.165999904624,completion,,,,,,,high,low,,,,,,,false,,,,,false,889353.5,889353.0999999046,881998.439,882007,882014.934,889364.967,5,600,,
trial,html.Screen,10_9_0,2023-11-27T20:50:21.227Z,,,,1,0.0127320821962457,-0.0315308940184827,,0.04,false,hl,2857.232999809319,response,0.9514031565526356,0.9861757116216104,-0.8028827415971973,-0.5958556817214221,1.019618223749607,-0.729036603819675,high,low,,ISIC_8156101.JPG,9,ISIC_0067412.JPG,28,29,false,0.14,ll,keypress(f),0,false,892222.2999999523,892222.1999998093,889348.333,889353.6999998093,889364.967,892231.583,5,600,10,
break,html.Screen,10_9_1,2023-11-27T20:50:21.228Z,,,,,,,,,,,NaN,,,,,,,,high,low,,,,,,,false,,,,,false,892222.6999998093,892222.5,,892222.399999857,,892231.583,5,600,,
break_continue,html.Screen,10_9_2,2023-11-27T20:50:21.228Z,,,,,,,,,,,NaN,,,,,,,,high,low,,,,,,,false,,,,,false,892222.7999999523,892222.7999999523,,892222.6999998093,,892231.583,5,600,,
sequence,flow.Sequence,10_9,2023-11-27T20:50:21.228Z,,,,,,,,,,,2857.8329999523703,completion,,,,,,,high,low,,,,,,,false,,,,,false,892222.899999857,892222.7999999523,889348.333,889353.5999999046,889364.967,892231.583,5,600,,
trial,html.Screen,10_10_0,2023-11-27T20:50:27.156Z,,,,1,-0.0377791839943904,0.0227626648172468,,0.04,true,hh,5919.316999856965,response,1.0437497612294713,0.9861757116216104,-0.8028827415971973,0.93059645456522,1.019618223749607,-0.729036603819675,high,high,,ISIC_7167479.JPG,9,ISIC_0032357.JPG,28,27,false,0.11,hh,keypress(i),0,false,898151.1999998093,898150.899999857,892214.912,892222.899999857,892231.583,898164.976,5,600,11,
break,html.Screen,10_10_1,2023-11-27T20:50:27.157Z,,,,,,,,,,,NaN,,,,,,,,high,high,,,,,,,false,,,,,false,898152.1999998093,898152,,898151.5999999046,,898164.976,5,600,,
break_continue,html.Screen,10_10_2,2023-11-27T20:50:27.158Z,,,,,,,,,,,NaN,,,,,,,,high,high,,,,,,,false,,,,,false,898152.5,898152.5,,898152.399999857,,898164.976,5,600,,
sequence,flow.Sequence,10_10,2023-11-27T20:50:27.158Z,,,,,,,,,,,5920.917000000016,completion,,,,,,,high,high,,,,,,,false,,,,,false,898152.5999999046,898152.5,892214.912,892222.899999857,892231.583,898164.976,5,600,,
trial,html.Screen,10_11_0,2023-11-27T20:50:38.356Z,,,,1,0.0063515208248796,0.0194177605767913,,0.04,true,lh,11185.623999904608,response,-0.6669021150735244,0.9861757116216104,-0.8028827415971973,1.0443315451754065,1.019618223749607,-0.729036603819675,low,high,,ISIC_5281908.JPG,8,ISIC_9163466.JPG,28,31,false,0.14,lh,keypress(e),0,false,909350.5999999046,909350.5999999046,898148.049,898152.6999998093,898164.976,909364.958,5,600,12,
break,html.Screen,10_11_1,2023-11-27T20:50:38.356Z,,,,,,,,,,,NaN,,,,,,,,low,high,,,,,,,false,,,,,false,909351,909350.899999857,,909350.7999999523,,909364.958,5,600,,
break_continue,html.Screen,10_11_2,2023-11-27T20:50:38.356Z,,,,,,,,,,,NaN,,,,,,,,low,high,,,,,,,false,,,,,false,909351.1999998093,909351.0999999046,,909351,,909364.958,5,600,,
sequence,flow.Sequence,10_11,2023-11-27T20:50:38.356Z,,,,,,,,,,,11186.123999904608,completion,,,,,,,low,high,,,,,,,false,,,,,false,909351.1999998093,909351.0999999046,898148.049,898152.6999998093,898164.976,909364.958,5,600,,
trial,html.Screen,10_12_0,2023-11-27T20:50:42.326Z,,,,1,0.0361875505619981,-0.0291457404567876,,0.04,true,hh,3955.1419999046484,response,0.9116506478817816,0.9861757116216104,-0.8028827415971973,1.0416072379908032,1.019618223749607,-0.729036603819675,high,high,,ISIC_0027480.JPG,9,ISIC_3273370.JPG,28,27,false,0.11,hh,keypress(i),0,false,913320.5,913320.0999999046,909348.378,909351.2999999523,909364.958,913331.488,5,600,13,
break,html.Screen,10_12_1,2023-11-27T20:50:42.327Z,,,,,,,,,,,NaN,,,,,,,,high,high,,,,,,,false,,,,,false,913321.399999857,913321.0999999046,,913320.7999999523,,913331.488,5,600,,
break_continue,html.Screen,10_12_2,2023-11-27T20:50:42.327Z,,,,,,,,,,,NaN,,,,,,,,high,high,,,,,,,false,,,,,false,913322.0999999046,913321.899999857,,913321.6999998093,,913331.488,5,600,,
sequence,flow.Sequence,10_12,2023-11-27T20:50:42.327Z,,,,,,,,,,,3956.9419998569647,completion,,,,,,,high,high,,,,,,,false,,,,,false,913322.2999999523,913321.899999857,909348.378,909351.1999998093,909364.958,913331.488,5,600,,
trial,html.Screen,10_13_0,2023-11-27T20:50:51.212Z,,,,1,-0.0166849894750452,0.0371614812368835,,0.04,false,hl,8875.011999999988,response,0.8486362356359535,0.9861757116216104,-0.8028827415971973,-0.5896270803185307,1.019618223749607,-0.729036603819675,high,low,,ISIC_6231450.JPG,9,ISIC_0030404.JPG,28,29,false,0.14,lh,keypress(e),0,false,922206.5999999046,922206.5,913314.998,913322.5,913331.488,922214.834,5,600,14,
break,html.Screen,10_13_1,2023-11-27T20:50:51.213Z,,,,,,,,,,,NaN,,,,,,,,high,low,,,,,,,false,,,,,false,922206.7999999523,922206.7999999523,,922206.5999999046,,922214.834,5,600,,
break_continue,html.Screen,10_13_2,2023-11-27T20:50:51.213Z,,,,,,,,,,,NaN,,,,,,,,high,low,,,,,,,false,,,,,false,922206.899999857,922206.899999857,,922206.899999857,,922214.834,5,600,,
sequence,flow.Sequence,10_13,2023-11-27T20:50:51.213Z,,,,,,,,,,,8875.411999856937,completion,,,,,,,high,low,,,,,,,false,,,,,false,922207,922206.899999857,913314.998,913322.5,913331.488,922214.834,5,600,,
trial,html.Screen,10_14_0,2023-11-27T20:50:53.789Z,,,,1,0.0365981355399771,0.0162670920008846,,0.04,false,lh,2568.3659998092335,response,-0.9046170303418553,0.9861757116216104,-0.8028827415971973,1.0063426986460375,1.019618223749607,-0.729036603819675,low,high,,ISIC_0982855.JPG,8,ISIC_0055759.JPG,28,31,false,0.14,ll,keypress(f),0,false,924783.399999857,924783.1999998093,922198.309,922207.0999999046,922214.834,924798.401,5,600,15,
break,html.Screen,10_14_1,2023-11-27T20:50:53.790Z,,,,,,,,,,,NaN,,,,,,,,low,high,,,,,,,false,,,,,false,924784.2999999523,924784.0999999046,,924783.6999998093,,924798.401,5,600,,
break_continue,html.Screen,10_14_2,2023-11-27T20:50:53.791Z,,,,,,,,,,,NaN,,,,,,,,low,high,,,,,,,false,,,,,false,924784.899999857,924784.6999998093,,924784.5,,924798.401,5,600,,
sequence,flow.Sequence,10_14,2023-11-27T20:50:53.791Z,,,,,,,,,,,2569.8659998092335,completion,,,,,,,low,high,,,,,,,false,,,,,false,924785,924784.6999998093,922198.309,922207,922214.834,924798.401,5,600,,
trial,html.Screen,10_15_0,2023-11-27T20:50:55.718Z,,,,1,-0.0350697500805515,-0.0166617848231997,,0.04,false,hh,1913.6989999046782,response,1.0437497612294713,0.9861757116216104,-0.8028827415971973,0.93059645456522,1.019618223749607,-0.729036603819675,high,high,,ISIC_0024423.JPG,8,ISIC_0032357.JPG,28,27,false,0.11,ll,keypress(f),0,false,926712.399999857,926712.0999999046,924781.711,924785.2999999523,924798.401,926714.864,5,600,16,
break,html.Screen,10_15_1,2023-11-27T20:50:55.719Z,,,,,,,,,,,NaN,,,,,,,,high,high,,,,,,,false,,,,,false,926713.2999999523,926713.0999999046,,926712.6999998093,,926714.864,5,600,,
break_continue,html.Screen,10_15_2,2023-11-27T20:50:55.720Z,,,,,,,,,,,NaN,,,,,,,,high,high,,,,,,,false,,,,,false,926714,926713.6999998093,,926713.5,,926714.864,5,600,,
sequence,flow.Sequence,10_15,2023-11-27T20:50:55.720Z,,,,,,,,,,,1915.2989998093108,completion,,,,,,,high,high,,,,,,,false,,,,,false,926714.1999998093,926713.6999998093,924781.711,924785.2999999523,924798.401,926714.864,5,600,,
trial,html.Screen,10_16_0,2023-11-27T20:50:57.013Z,,,,1,0.0063515208248796,0.0194177605767913,,0.04,true,hh,1292.6360000000568,response,1.0437497612294713,0.9861757116216104,-0.8028827415971973,0.93059645456522,1.019618223749607,-0.729036603819675,high,high,,ISIC_5281908.JPG,9,ISIC_0032357.JPG,28,27,false,0.11,hh,keypress(i),0,false,928007.7999999523,928007.5,926698.308,926714.399999857,926714.864,928014.829,5,600,17,
break,html.Screen,10_16_1,2023-11-27T20:50:57.014Z,,,,,,,,,,,NaN,,,,,,,,high,high,,,,,,,false,,,,,false,928008.6999998093,928008.5,,928008.1999998093,,928014.829,5,600,,
break_continue,html.Screen,10_16_2,2023-11-27T20:50:57.015Z,,,,,,,,,,,NaN,,,,,,,,high,high,,,,,,,false,,,,,false,928009.2999999523,928009.0999999046,,928008.899999857,,928014.829,5,600,,
sequence,flow.Sequence,10_16,2023-11-27T20:50:57.015Z,,,,,,,,,,,1294.2359999046894,completion,,,,,,,high,high,,,,,,,false,,,,,false,928009.5999999046,928009.0999999046,926698.308,926714.2999999523,926714.864,928014.829,5,600,,
trial,html.Screen,10_17_0,2023-11-27T20:50:58.293Z,,,,1,0.0321039635696159,0.020496766286318,,0.04,false,hl,1272.4709999522893,response,1.0140243022958364,0.9861757116216104,-0.8028827415971973,-0.7084305941404812,1.019618223749607,-0.729036603819675,high,low,,ISIC_0058063.JPG,9,ISIC_0014946.JPG,28,29,false,0.14,lh,keypress(e),0,false,929287.5,929287.2999999523,927998.316,928009.6999998093,928014.829,929298.298,5,600,18,
break,html.Screen,10_17_1,2023-11-27T20:50:58.294Z,,,,,,,,,,,NaN,,,,,,,,high,low,,,,,,,false,,,,,false,929288.5,929288.1999998093,,929287.7999999523,,929298.298,5,600,,
break_continue,html.Screen,10_17_2,2023-11-27T20:50:58.295Z,,,,,,,,,,,NaN,,,,,,,,high,low,,,,,,,false,,,,,false,929289.0999999046,929288.7999999523,,929288.5999999046,,929298.298,5,600,,
sequence,flow.Sequence,10_17,2023-11-27T20:50:58.295Z,,,,,,,,,,,1273.9709999522893,completion,,,,,,,high,low,,,,,,,false,,,,,false,929289.1999998093,929288.7999999523,927998.316,928009.6999998093,928014.829,929298.298,5,600,,
trial,html.Screen,10_18_0,2023-11-27T20:50:59.733Z,,,,1,0.0321039635696159,0.020496766286318,,0.04,true,hl,1429.2020000000484,response,0.9372133071132136,0.9861757116216104,-0.8028827415971973,-0.619321681341393,1.019618223749607,-0.729036603819675,high,low,,ISIC_0058063.JPG,8,ISIC_6450034.JPG,28,29,false,0.14,hl,keypress(j),0,false,930727.6999998093,930727.5,929281.734,929289.399999857,929298.298,930731.522,5,600,19,
break,html.Screen,10_18_1,2023-11-27T20:50:59.735Z,,,,,,,,,,,NaN,,,,,,,,high,low,,,,,,,false,,,,,false,930728.7999999523,930728.5999999046,,930728.0999999046,,930731.522,5,600,,
break_continue,html.Screen,10_18_2,2023-11-27T20:50:59.735Z,,,,,,,,,,,NaN,,,,,,,,high,low,,,,,,,false,,,,,false,930729.5,930729.1999998093,,930729,,930731.522,5,600,,
sequence,flow.Sequence,10_18,2023-11-27T20:50:59.735Z,,,,,,,,,,,1430.9019998093136,completion,,,,,,,high,low,,,,,,,false,,,,,false,930729.5999999046,930729.1999998093,929281.734,929289.399999857,929298.298,930731.522,5,600,,
trial,html.Screen,10_19_0,2023-11-27T20:51:01.157Z,,,,1,-0.012020985739544,0.0126097407389903,,0.04,false,lh,1419.3779998569516,response,-0.6664216411092332,0.9861757116216104,-0.8028827415971973,1.0200778943729398,1.019618223749607,-0.729036603819675,low,high,,ISIC_0069379.JPG,9,ISIC_8785329.JPG,28,31,false,0.14,hh,keypress(i),0,false,932151.1999998093,932150.899999857,930715.027,930729.7999999523,930731.522,932181.694,5,600,20,
break,html.Screen,10_19_1,2023-11-27T20:51:01.158Z,,,,,,,,,,,NaN,,,,,,,,low,high,,,,,,,false,,,,,false,932152.1999998093,932151.899999857,,932151.5,,932181.694,5,600,,
break_continue,html.Screen,10_19_2,2023-11-27T20:51:01.158Z,,,,,,,,,,,NaN,,,,,,,,low,high,,,,,,,false,,,,,false,932152.6999998093,932152.5,,932152.2999999523,,932181.694,5,600,,
sequence,flow.Sequence,10_19,2023-11-27T20:51:01.159Z,,,,,,,,,,,1420.9780000000028,completion,,,,,,,low,high,,,,,,,false,,,,,false,932152.899999857,932152.5,930715.027,930729.7999999523,930731.522,932181.694,5,600,,
trial,html.Screen,10_20_0,2023-11-27T20:51:02.412Z,,,,1,-0.0057914759495055,0.018500200317654,,0.04,false,ll,1224.9059999046149,response,-0.8752617287758995,0.9861757116216104,-0.8028827415971973,-0.8023740329006754,1.019618223749607,-0.729036603819675,low,low,,ISIC_0058723.JPG,9,ISIC_0033968.JPG,28,61,false,0.1,lh,keypress(e),0,false,933406.6999998093,933406.5999999046,932165.085,932153,932181.694,933414.945,5,600,21,
break,html.Screen,10_20_1,2023-11-27T20:51:02.413Z,,,,,,,,,,,NaN,,,,,,,,low,low,,,,,,,false,,,,,false,933407,933406.899999857,,933406.7999999523,,933414.945,5,600,,
break_continue,html.Screen,10_20_2,2023-11-27T20:51:02.413Z,,,,,,,,,,,NaN,,,,,,,,low,low,,,,,,,false,,,,,false,933407.0999999046,933407.0999999046,,933407,,933414.945,5,600,,
sequence,flow.Sequence,10_20,2023-11-27T20:51:02.413Z,,,,,,,,,,,1225.4059999046149,completion,,,,,,,low,low,,,,,,,false,,,,,false,933407.1999998093,933407.0999999046,932165.085,932153,932181.694,933414.945,5,600,,
trial,html.Screen,10_21_0,2023-11-27T20:51:11.477Z,,,,1,-0.0399381815506136,-0.0177751789152893,,0.04,true,ll,9056.154999904684,response,-0.8650250639951559,0.9861757116216104,-0.8028827415971973,-0.7706339518336388,1.019618223749607,-0.729036603819675,low,low,,ISIC_3981425.JPG,9,ISIC_0061141.JPG,28,61,false,0.1,ll,keypress(f),0,false,942471.399999857,942471.0999999046,933398.284,933407.2999999523,933414.945,942481.517,5,600,22,
break,html.Screen,10_21_1,2023-11-27T20:51:11.478Z,,,,,,,,,,,NaN,,,,,,,,low,low,,,,,,,false,,,,,false,942472.1999998093,942472,,942471.6999998093,,942481.517,5,600,,
break_continue,html.Screen,10_21_2,2023-11-27T20:51:11.478Z,,,,,,,,,,,NaN,,,,,,,,low,low,,,,,,,false,,,,,false,942472.6999998093,942472.5999999046,,942472.399999857,,942481.517,5,600,,
sequence,flow.Sequence,10_21,2023-11-27T20:51:11.479Z,,,,,,,,,,,9057.654999904684,completion,,,,,,,low,low,,,,,,,false,,,,,false,942472.899999857,942472.5999999046,933398.284,933407.2999999523,933414.945,942481.517,5,600,,
trial,html.Screen,10_22_0,2023-11-27T20:51:17.070Z,,,,1,-0.0350697500805515,-0.0166617848231997,,0.04,false,ll,5582.08299990464,response,-0.9023543161929216,0.9861757116216104,-0.8028827415971973,-0.7501425690802794,1.019618223749607,-0.729036603819675,low,low,,ISIC_0024423.JPG,9,ISIC_0953317.JPG,28,61,false,0.1,hh,keypress(i),0,false,948063.7999999523,948063.5999999046,942465.052,942473.0999999046,942481.517,948098.353,5,600,23,
break,html.Screen,10_22_1,2023-11-27T20:51:17.070Z,,,,,,,,,,,NaN,,,,,,,,low,low,,,,,,,false,,,,,false,948064.6999998093,948064.5,,948064.0999999046,,948098.353,5,600,,
break_continue,html.Screen,10_22_2,2023-11-27T20:51:17.071Z,,,,,,,,,,,NaN,,,,,,,,low,low,,,,,,,false,,,,,false,948065.2999999523,948065.0999999046,,948065,,948098.353,5,600,,
sequence,flow.Sequence,10_22,2023-11-27T20:51:17.071Z,,,,,,,,,,,5583.58299990464,completion,,,,,,,low,low,,,,,,,false,,,,,false,948065.5,948065.0999999046,942465.052,942473,942481.517,948098.353,5,600,,
trial,html.Screen,10_23_0,2023-11-27T20:51:19.173Z,,,,1,-0.012020985739544,0.0126097407389903,,0.04,false,hl,2069.046999856946,response,0.8782218708012578,0.9861757116216104,-0.8028827415971973,-0.6143247269189396,1.019618223749607,-0.729036603819675,high,low,,ISIC_0069379.JPG,9,ISIC_3578186.JPG,28,29,false,0.14,ll,keypress(f),0,false,950167.6999998093,950167.399999857,948081.638,948065.6999998093,948098.353,950181.672,5,600,24,
break,html.Screen,10_23_1,2023-11-27T20:51:19.174Z,,,,,,,,,,,NaN,,,,,,,,high,low,,,,,,,false,,,,,false,950168.6999998093,950168.399999857,,950168,,950181.672,5,600,,
break_continue,html.Screen,10_23_2,2023-11-27T20:51:19.175Z,,,,,,,,,,,NaN,,,,,,,,high,low,,,,,,,false,,,,,false,950169.1999998093,950169,,950168.7999999523,,950181.672,5,600,,
sequence,flow.Sequence,10_23,2023-11-27T20:51:19.175Z,,,,,,,,,,,2070.646999999997,completion,,,,,,,high,low,,,,,,,false,,,,,false,950169.399999857,950169,948081.638,948065.6999998093,948098.353,950181.672,5,600,,
trial,html.Screen,10_24_0,2023-11-27T20:51:32.309Z,,,,1,0.0367218428225813,-0.0026956749740767,,0.04,false,hh,13121.627999952296,response,0.881950258866775,0.9861757116216104,-0.8028827415971973,1.1045276933275867,1.019618223749607,-0.729036603819675,high,high,,ISIC_7212271.JPG,9,ISIC_4718237.JPG,28,27,false,0.11,hl,keypress(j),0,false,963303.5999999046,963303.2999999523,950164.93,950169.6999998093,950181.672,963314.72,5,600,25,
break,html.Screen,10_24_1,2023-11-27T20:51:32.310Z,,,,,,,,,,,NaN,,,,,,,,high,high,,,,,,,false,,,,,false,963304.6999998093,963304.399999857,,963303.899999857,,963314.72,5,600,,
break_continue,html.Screen,10_24_2,2023-11-27T20:51:32.311Z,,,,,,,,,,,NaN,,,,,,,,high,high,,,,,,,false,,,,,false,963305.1999998093,963305,,963304.899999857,,963314.72,5,600,,
sequence,flow.Sequence,10_24,2023-11-27T20:51:32.311Z,,,,,,,,,,,13123.32799999998,completion,,,,,,,high,high,,,,,,,false,,,,,false,963305.5,963305,950164.93,950169.5999999046,950181.672,963314.72,5,600,,
trial,html.Screen,10_25_0,2023-11-27T20:51:36.197Z,,,,1,-0.0158987717472563,-0.0292472192292015,,0.04,false,hl,3876.679999856977,response,0.9372133071132136,0.9861757116216104,-0.8028827415971973,-0.619321681341393,1.019618223749607,-0.729036603819675,high,low,,ISIC_1366765.JPG,9,ISIC_6450034.JPG,28,29,false,0.14,hh,keypress(i),0,false,967191.6999998093,967191.399999857,963298.206,963305.6999998093,963314.72,967198.055,5,600,26,
break,html.Screen,10_25_1,2023-11-27T20:51:36.198Z,,,,,,,,,,,NaN,,,,,,,,high,low,,,,,,,false,,,,,false,967192.6999998093,967192.5,,967192,,967198.055,5,600,,
break_continue,html.Screen,10_25_2,2023-11-27T20:51:36.199Z,,,,,,,,,,,NaN,,,,,,,,high,low,,,,,,,false,,,,,false,967193.2999999523,967193.0999999046,,967192.7999999523,,967198.055,5,600,,
sequence,flow.Sequence,10_25,2023-11-27T20:51:36.199Z,,,,,,,,,,,3878.3799999046605,completion,,,,,,,high,low,,,,,,,false,,,,,false,967193.5999999046,967193.0999999046,963298.206,963305.6999998093,963314.72,967198.055,5,600,,
trial,html.Screen,10_26_0,2023-11-27T20:51:43.575Z,,,,1,-0.00126575685933,-0.0325046559638838,,0.04,false,hl,7370.444999999949,response,1.1162273456306029,0.9861757116216104,-0.8028827415971973,-0.7890271955816722,1.019618223749607,-0.729036603819675,high,low,,ISIC_5682259.JPG,9,ISIC_0011564.JPG,28,29,false,0.14,ll,keypress(f),0,false,974568.7999999523,974568.5,967181.251,967193.6999998093,967198.055,974581.41,5,600,27,
break,html.Screen,10_26_1,2023-11-27T20:51:43.576Z,,,,,,,,,,,NaN,,,,,,,,high,low,,,,,,,false,,,,,false,974569.7999999523,974569.5,,974569.1999998093,,974581.41,5,600,,
break_continue,html.Screen,10_26_2,2023-11-27T20:51:43.576Z,,,,,,,,,,,NaN,,,,,,,,high,low,,,,,,,false,,,,,false,974570.399999857,974570.2999999523,,974570,,974581.41,5,600,,
sequence,flow.Sequence,10_26,2023-11-27T20:51:43.576Z,,,,,,,,,,,7372.244999952265,completion,,,,,,,high,low,,,,,,,false,,,,,false,974570.6999998093,974570.2999999523,967181.251,967193.6999998093,967198.055,974581.41,5,600,,
trial,html.Screen,10_27_0,2023-11-27T20:51:54.214Z,,,,1,-0.0071892445601978,0.0246015408628738,,0.04,false,ll,10625.989999856916,response,-0.736633731922287,0.9861757116216104,-0.8028827415971973,-0.7752666427998813,1.019618223749607,-0.729036603819675,low,low,,ISIC_0014133.JPG,8,ISIC_0064284.JPG,28,61,false,0.1,lh,keypress(e),0,false,985207.6999998093,985207.399999857,974564.881,974570.7999999523,974581.41,985214.675,5,600,28,
break,html.Screen,10_27_1,2023-11-27T20:51:54.215Z,,,,,,,,,,,NaN,,,,,,,,low,low,,,,,,,false,,,,,false,985208.6999998093,985208.399999857,,985208,,985214.675,5,600,,
break_continue,html.Screen,10_27_2,2023-11-27T20:51:54.215Z,,,,,,,,,,,NaN,,,,,,,,low,low,,,,,,,false,,,,,false,985209.1999998093,985209,,985208.899999857,,985214.675,5,600,,
sequence,flow.Sequence,10_27,2023-11-27T20:51:54.216Z,,,,,,,,,,,10627.589999999967,completion,,,,,,,low,low,,,,,,,false,,,,,false,985209.5,985209,974564.881,974570.6999998093,974581.41,985214.675,5,600,,
trial,html.Screen,10_28_0,2023-11-27T20:52:09.534Z,,,,1,-0.0166849894750452,0.0371614812368835,,0.04,true,hl,15312.824999999953,response,1.1224745971429997,0.9861757116216104,-0.8028827415971973,-0.8423270217438888,1.019618223749607,-0.729036603819675,high,low,,ISIC_6231450.JPG,9,ISIC_0057032.JPG,28,29,false,0.14,hl,keypress(j),0,false,1000527.7999999523,1000527.5,985198.165,985209.6999998093,985214.675,1000531.295,5,600,29,
break,html.Screen,10_28_1,2023-11-27T20:52:09.535Z,,,,,,,,,,,NaN,,,,,,,,high,low,,,,,,,false,,,,,false,1000528.6999998093,1000528.399999857,,1000528.0999999046,,1000531.295,5,600,,
break_continue,html.Screen,10_28_2,2023-11-27T20:52:09.536Z,,,,,,,,,,,NaN,,,,,,,,high,low,,,,,,,false,,,,,false,1000529.2999999523,1000529.0999999046,,1000528.899999857,,1000531.295,5,600,,
sequence,flow.Sequence,10_28,2023-11-27T20:52:09.536Z,,,,,,,,,,,15314.424999904586,completion,,,,,,,high,low,,,,,,,false,,,,,false,1000529.5999999046,1000529.0999999046,985198.165,985209.6999998093,985214.675,1000531.295,5,600,,
trial,html.Screen,10_29_0,2023-11-27T20:52:15.589Z,,,,1,0.0127320821962457,-0.0315308940184827,,0.04,false,hl,6051.704999999958,response,0.9372133071132136,0.9861757116216104,-0.8028827415971973,-0.619321681341393,1.019618223749607,-0.729036603819675,high,low,,ISIC_8156101.JPG,9,ISIC_6450034.JPG,28,29,false,0.14,hh,keypress(i),0,false,1006583.2999999523,1006583,1000514.66,1000529.6999998093,1000531.295,1006598.09,5,600,30,
break,html.Screen,10_29_1,2023-11-27T20:52:15.590Z,,,,,,,,,,,NaN,,,,,,,,high,low,,,,,,,false,,,,,false,1006584.0999999046,1006583.899999857,,1006583.5,,1006598.09,5,600,,
break_continue,html.Screen,10_29_2,2023-11-27T20:52:15.591Z,,,,,,,,,,,NaN,,,,,,,,high,low,,,,,,,false,,,,,false,1006584.6999998093,1006584.5999999046,,1006584.399999857,,1006598.09,5,600,,
sequence,flow.Sequence,10_29,2023-11-27T20:52:15.591Z,,,,,,,,,,,6053.304999904591,completion,,,,,,,high,low,,,,,,,false,,,,,false,1006584.899999857,1006584.5999999046,1000514.66,1000529.6999998093,1000531.295,1006598.09,5,600,,
trial,html.Screen,10_30_0,2023-11-27T20:52:18.686Z,,,,1,0.0051046740562181,-0.0178832721027728,,0.04,true,hh,3081.009999904665,response,0.9658792885069516,0.9861757116216104,-0.8028827415971973,0.916173605730014,1.019618223749607,-0.729036603819675,high,high,,ISIC_9545819.JPG,9,ISIC_8979275.JPG,28,27,false,0.11,hh,keypress(i),0,false,1009679.2999999523,1009679.0999999046,1006581.264,1006585.1999998093,1006598.09,1009681.325,5,600,31,
break,html.Screen,10_30_1,2023-11-27T20:52:18.686Z,,,,,,,,,,,NaN,,,,,,,,high,high,,,,,,,false,,,,,false,1009680.2999999523,1009680,,1009679.5999999046,,1009681.325,5,600,,
break_continue,html.Screen,10_30_2,2023-11-27T20:52:18.687Z,,,,,,,,,,,NaN,,,,,,,,high,high,,,,,,,false,,,,,false,1009680.7999999523,1009680.5999999046,,1009680.399999857,,1009681.325,5,600,,
sequence,flow.Sequence,10_30,2023-11-27T20:52:18.687Z,,,,,,,,,,,3082.509999904665,completion,,,,,,,high,high,,,,,,,false,,,,,false,1009681,1009680.5999999046,1006581.264,1006585,1006598.09,1009681.325,5,600,,
trial,html.Screen,10_31_0,2023-11-27T20:52:22.119Z,,,,1,0.010035581303589,-0.0100711721396864,,0.04,false,hl,3430.774999904679,response,0.8992797280914934,0.9861757116216104,-0.8028827415971973,-0.6402034354815018,1.019618223749607,-0.729036603819675,high,low,,ISIC_0030592.JPG,9,ISIC_7980339.JPG,28,29,false,0.14,hh,keypress(i),0,false,1013112.399999857,1013112.0999999046,1009664.649,1009681.1999998093,1009681.325,1013114.658,5,600,32,
break,html.Screen,10_31_1,2023-11-27T20:52:22.120Z,,,,,,,,,,,NaN,,,,,,,,high,low,,,,,,,false,,,,,false,1013113.2999999523,1013113.0999999046,,1013112.6999998093,,1013114.658,5,600,,
break_continue,html.Screen,10_31_2,2023-11-27T20:52:22.120Z,,,,,,,,,,,NaN,,,,,,,,high,low,,,,,,,false,,,,,false,1013113.899999857,1013113.6999998093,,1013113.5,,1013114.658,5,600,,
sequence,flow.Sequence,10_31,2023-11-27T20:52:22.120Z,,,,,,,,,,,3432.3749998093117,completion,,,,,,,high,low,,,,,,,false,,,,,false,1013114.0999999046,1013113.6999998093,1009664.649,1009681.1999998093,1009681.325,1013114.658,5,600,,
trial,html.Screen,10_32_0,2023-11-27T20:52:31.782Z,,,,1,-0.0071892445601978,0.0246015408628738,,0.04,true,ll,9660.941999904579,response,-0.7292143023821654,0.9861757116216104,-0.8028827415971973,-0.6422549950969316,1.019618223749607,-0.729036603819675,low,low,,ISIC_0014133.JPG,9,ISIC_0028505.JPG,28,61,false,0.1,ll,keypress(f),0,false,1022775.899999857,1022775.5999999046,1013097.984,1013114.399999857,1013114.658,1022781.284,5,600,33,
break,html.Screen,10_32_1,2023-11-27T20:52:31.783Z,,,,,,,,,,,NaN,,,,,,,,low,low,,,,,,,false,,,,,false,1022777,1022776.6999998093,,1022776.2999999523,,1022781.284,5,600,,
break_continue,html.Screen,10_32_2,2023-11-27T20:52:31.784Z,,,,,,,,,,,NaN,,,,,,,,low,low,,,,,,,false,,,,,false,1022777.6999998093,1022777.5,,1022777.2999999523,,1022781.284,5,600,,
sequence,flow.Sequence,10_32,2023-11-27T20:52:31.784Z,,,,,,,,,,,9662.841999999946,completion,,,,,,,low,low,,,,,,,false,,,,,false,1022777.899999857,1022777.5,1013097.984,1013114.2999999523,1013114.658,1022781.284,5,600,,
trial,html.Screen,10_33_0,2023-11-27T20:52:34.439Z,,,,1,0.0063515208248796,0.0194177605767913,,0.04,true,hh,2650.8159999046475,response,0.9462198986993904,0.9861757116216104,-0.8028827415971973,1.067111862128132,1.019618223749607,-0.729036603819675,high,high,,ISIC_5281908.JPG,8,ISIC_3564461.JPG,28,27,false,0.11,hh,keypress(i),0,false,1025432.2999999523,1025432.0999999046,1022764.718,1022778.1999998093,1022781.284,1025448.055,5,600,34,
break,html.Screen,10_33_1,2023-11-27T20:52:34.439Z,,,,,,,,,,,NaN,,,,,,,,high,high,,,,,,,false,,,,,false,1025433.1999998093,1025433,,1025432.6999998093,,1025448.055,5,600,,
break_continue,html.Screen,10_33_2,2023-11-27T20:52:34.440Z,,,,,,,,,,,NaN,,,,,,,,high,high,,,,,,,false,,,,,false,1025433.6999998093,1025433.5999999046,,1025433.399999857,,1025448.055,5,600,,
sequence,flow.Sequence,10_33,2023-11-27T20:52:34.440Z,,,,,,,,,,,2652.3159999046475,completion,,,,,,,high,high,,,,,,,false,,,,,false,1025434,1025433.5999999046,1022764.718,1022778.0999999046,1022781.284,1025448.055,5,600,,
trial,html.Screen,10_34_0,2023-11-27T20:52:42.597Z,,,,1,0.0127320821962457,-0.0315308940184827,,0.04,false,hh,8142.444999999949,response,0.9487751044258608,0.9861757116216104,-0.8028827415971973,0.9230722071334148,1.019618223749607,-0.729036603819675,high,high,,ISIC_8156101.JPG,9,ISIC_4568084.JPG,28,27,false,0.11,lh,keypress(e),0,false,1033590.5999999046,1033590.5,1025431.347,1025434.1999998093,1025448.055,1033597.846,5,600,35,
break,html.Screen,10_34_1,2023-11-27T20:52:42.597Z,,,,,,,,,,,NaN,,,,,,,,high,high,,,,,,,false,,,,,false,1033590.899999857,1033590.899999857,,1033590.6999998093,,1033597.846,5,600,,
break_continue,html.Screen,10_34_2,2023-11-27T20:52:42.597Z,,,,,,,,,,,NaN,,,,,,,,high,high,,,,,,,false,,,,,false,1033591,1033591,,1033590.899999857,,1033597.846,5,600,,
sequence,flow.Sequence,10_34,2023-11-27T20:52:42.597Z,,,,,,,,,,,8142.944999999949,completion,,,,,,,high,high,,,,,,,false,,,,,false,1033591.0999999046,1033591,1025431.347,1025434.1999998093,1025448.055,1033597.846,5,600,,
trial,html.Screen,10_35_0,2023-11-27T20:52:47.198Z,,,,1,-0.012810673904807,0.00400964452501,,0.04,false,hl,4593.453999952297,response,0.9514031565526356,0.9861757116216104,-0.8028827415971973,-0.5958556817214221,1.019618223749607,-0.729036603819675,high,low,,ISIC_0064656.JPG,9,ISIC_0067412.JPG,28,29,false,0.14,ll,keypress(f),0,false,1038191.5999999046,1038191.2999999523,1033581.442,1033591.0999999046,1033597.846,1038197.86,5,600,36,
break,html.Screen,10_35_1,2023-11-27T20:52:47.199Z,,,,,,,,,,,NaN,,,,,,,,high,low,,,,,,,false,,,,,false,1038192.5999999046,1038192.2999999523,,1038191.899999857,,1038197.86,5,600,,
break_continue,html.Screen,10_35_2,2023-11-27T20:52:47.199Z,,,,,,,,,,,NaN,,,,,,,,high,low,,,,,,,false,,,,,false,1038193.1999998093,1038193,,1038192.6999998093,,1038197.86,5,600,,
sequence,flow.Sequence,10_35,2023-11-27T20:52:47.200Z,,,,,,,,,,,4595.15399999998,completion,,,,,,,high,low,,,,,,,false,,,,,false,1038193.399999857,1038193,1033581.442,1033591.0999999046,1033597.846,1038197.86,5,600,,
trial,html.Screen,10_36_0,2023-11-27T20:52:49.574Z,,,,1,0.0365981355399771,0.0162670920008846,,0.04,true,ll,2369.339999809279,response,-0.8172719099003396,0.9861757116216104,-0.8028827415971973,-0.8014701937077862,1.019618223749607,-0.729036603819675,low,low,,ISIC_0982855.JPG,9,ISIC_0011794.JPG,28,61,false,0.1,ll,keypress(f),0,false,1040567.5,1040567.1999998093,1038181.358,1038193.6999998093,1038197.86,1040581.41,5,600,37,
break,html.Screen,10_36_1,2023-11-27T20:52:49.575Z,,,,,,,,,,,NaN,,,,,,,,low,low,,,,,,,false,,,,,false,1040568.5,1040568.1999998093,,1040567.7999999523,,1040581.41,5,600,,
break_continue,html.Screen,10_36_2,2023-11-27T20:52:49.576Z,,,,,,,,,,,NaN,,,,,,,,low,low,,,,,,,false,,,,,false,1040568.899999857,1040568.7999999523,,1040568.5999999046,,1040581.41,5,600,,
sequence,flow.Sequence,10_36,2023-11-27T20:52:49.576Z,,,,,,,,,,,2370.9399999523303,completion,,,,,,,low,low,,,,,,,false,,,,,false,1040569.1999998093,1040568.7999999523,1038181.358,1038193.5999999046,1038197.86,1040581.41,5,600,,
trial,html.Screen,10_37_0,2023-11-27T20:52:56.207Z,,,,1,-0.0050679133050021,-0.0174815595031679,,0.04,true,hl,6618.6899999046,response,0.9048081691860408,0.9861757116216104,-0.8028827415971973,-0.6848173339051019,1.019618223749607,-0.729036603819675,high,low,,ISIC_9848743.JPG,9,ISIC_0068677.JPG,28,29,false,0.14,hl,keypress(j),0,false,1047200.2999999523,1047200.0999999046,1040564.433,1040569.399999857,1040581.41,1047214.681,5,600,38,
break,html.Screen,10_37_1,2023-11-27T20:52:56.208Z,,,,,,,,,,,NaN,,,,,,,,high,low,,,,,,,false,,,,,false,1047201.2999999523,1047201,,1047200.5999999046,,1047214.681,5,600,,
break_continue,html.Screen,10_37_2,2023-11-27T20:52:56.209Z,,,,,,,,,,,NaN,,,,,,,,high,low,,,,,,,false,,,,,false,1047201.899999857,1047201.5999999046,,1047201.5,,1047214.681,5,600,,
sequence,flow.Sequence,10_37,2023-11-27T20:52:56.209Z,,,,,,,,,,,6620.1899999046,completion,,,,,,,high,low,,,,,,,false,,,,,false,1047202.0999999046,1047201.5999999046,1040564.433,1040569.2999999523,1040581.41,1047214.681,5,600,,
