sender,sender_type,sender_id,timestamp,meta,,age,blockNo,c1,c2,condition,control_tolerance,correct,correctResponse,duration,ended_on,f1,f1_high,f1_low,f2,f2_high,f2_low,feature_level1,feature_level2,gender,img_left,img_reveal,img_right,n_control_images,n_target_images,practice,range_tolerance,response,response_action,selection_duration,staircase,time_commit,time_end,time_render,time_run,time_show,time_switch,total_blocks,total_trials,trialNo,url
informed_consent,html.Screen,0,2023-11-20T17:25:57.158Z,"{""labjs_version"":""20.2.4"",""labjs_build"":{""flavor"":""development"",""commit"":""f5b4a49f956347addd546a832a3327688c2c0fef""},""location"":""https://labjs.felixhenninger.com/api/labjs_preview/index.html"",""userAgent"":""Mozilla/5.0 (Windows NT 10.0; Win64; x64) AppleWebKit/537.36 (KHTML, like Gecko) Chrome/119.0.0.0 Safari/537.36"",""platform"":""Win32"",""language"":""en-US"",""locale"":""en-US"",""timeZone"":""America/Chicago"",""timezoneOffset"":360,""screen_width"":1680,""screen_height"":1050,""scroll_width"":825,""scroll_height"":888,""window_innerWidth"":825,""window_innerHeight"":936,""devicePixelRatio"":1}",,,,,,,,,,18950.203,response,,,,,,,,,,,,,,,,,consent,click button,,,19694.100000023842,19685,718.194,904.7000000476837,734.797,19504.716,,,,{}
Demography form,html.Form,1,2023-11-20T17:26:02.630Z,,,18,,,,,,,,5661.484000047683,form submission,,,,,,,,,male,,,,,,,,,,,,25166.299999952316,25166.200000047684,19488.088,19694.399999976158,19504.716,24982.077,,,,
Welcome,html.Screen,2,2023-11-20T17:26:26.421Z,,,,,,,"[""asym"",""bor""]",,,,23974.722999952315,response,,,,,,,,,,,,,,,,,continue,click button,,,48957.299999952316,48956.799999952316,24965.377,25166.399999976158,24982.077,48778.341,,,,
demo_instructions,html.Screen,3,2023-11-20T17:27:09.318Z,,,,,,,,,,,43074.75900002384,response,,,,,,,,,,,,,,,,,continue,click button,,,91853.70000004768,91853.10000002384,48761.826,48957.39999997616,48778.341,91661.78,,,,
trial,html.Screen,4_0_0,2023-11-20T17:27:17.402Z,,,,0,-1.247270138097585,-1.1704704713504994,,,true,hh,8275.519999952317,response,1.3189473926989124,1.2,-1.2,1.0770264364718942,1.2,-1.2,high,high,,ISIC_0065774.JPG,,ISIC_6093728.JPG,,26,true,0.15000000000000002,hh,keypress(i),100,false,99937.5,99937.29999995232,91645.331,91853.89999997616,91661.78,99760.967,1,16,1,
sequence,flow.Sequence,4_0,2023-11-20T17:27:17.409Z,,,,,,,,,,,8275.519999952317,completion,,,,,,,high,high,,,,,,,true,,,,,false,99944.70000004768,99937.29999995232,91645.331,91853.89999997616,91661.78,99760.967,1,16,,
trial,html.Screen,4_1_0,2023-11-20T17:27:20.059Z,,,,0,-1.2493792664822851,-1.1336008561684745,,,true,hh,2832.932999976154,response,1.0717785279820962,1.2,-1.2,1.1267239445830604,1.2,-1.2,high,high,,ISIC_0061475.JPG,,ISIC_9948815.JPG,,26,true,0.15000000000000002,hh,keypress(i),100,false,102594.5,102593.89999997616,99744.172,99944.79999995232,99760.967,102416.12,1,16,2,
sequence,flow.Sequence,4_1,2023-11-20T17:27:20.060Z,,,,,,,,,,,2832.932999976154,completion,,,,,,,high,high,,,,,,,true,,,,,false,102595.29999995232,102593.89999997616,99744.172,99944.79999995232,99760.967,102416.12,1,16,,
trial,html.Screen,4_2_0,2023-11-20T17:27:23.844Z,,,,0,-1.101214461533281,-1.1849883512428183,,,true,hh,3963.279999976163,response,1.0789197754694622,1.2,-1.2,1.1654690806750023,1.2,-1.2,high,high,,ISIC_0064943.JPG,,ISIC_1576437.JPG,,26,true,0.15000000000000002,hh,keypress(i),100,false,106379.79999995232,106379.39999997616,102399.469,102595.79999995232,102416.12,106206.777,1,16,3,
sequence,flow.Sequence,4_2,2023-11-20T17:27:23.845Z,,,,,,,,,,,3963.279999976163,completion,,,,,,,high,high,,,,,,,true,,,,,false,106380.70000004768,106379.39999997616,102399.469,102595.60000002384,102416.12,106206.777,1,16,,
trial,html.Screen,4_3_0,2023-11-20T17:27:26.362Z,,,,0,-1.2750452296609045,-1.1682369131232675,,,true,hh,2690.0229999523144,response,1.2318069697449794,1.2,-1.2,1.1703576816778267,1.2,-1.2,high,high,,ISIC_0066399.JPG,,ISIC_2732573.JPG,,26,true,0.15000000000000002,hh,keypress(i),100,false,108897.5,108896.79999995232,106190.176,106381,106206.777,108728.35,1,16,4,
sequence,flow.Sequence,4_3,2023-11-20T17:27:26.362Z,,,,,,,,,,,2690.0229999523144,completion,,,,,,,high,high,,,,,,,true,,,,,false,108898.20000004768,108896.79999995232,106190.176,106380.89999997616,106206.777,108728.35,1,16,,
trial,html.Screen,4_4_0,2023-11-20T17:27:30.033Z,,,,0,1.241406480986552,1.081912821786771,,,true,ll,3838.649999999994,response,-1.101346104814838,1.2,-1.2,-1.1225813067473052,1.2,-1.2,low,low,,ISIC_4223155.JPG,,ISIC_8175453.JPG,,30,true,0.1,ll,keypress(f),100,false,112567.60000002384,112567,108711.668,108898.5,108728.35,112402.391,1,16,5,
sequence,flow.Sequence,4_4,2023-11-20T17:27:30.033Z,,,,,,,,,,,3838.649999999994,completion,,,,,,,low,low,,,,,,,true,,,,,false,112568.20000004768,112567,108711.668,108898.39999997616,108728.35,112402.391,1,16,,
trial,html.Screen,4_5_0,2023-11-20T17:27:32.070Z,,,,0,1.2318069697449794,1.1703576816778267,,,true,ll,2201.908999952313,response,-1.1033977063872138,1.2,-1.2,-1.2513071571733083,1.2,-1.2,low,low,,ISIC_2732573.JPG,,ISIC_0025472.JPG,,53,true,0.15000000000000002,ll,keypress(f),100,false,114604.70000004768,114604.29999995232,112385.519,112568.60000002384,112402.391,114439.7,1,16,6,
sequence,flow.Sequence,4_5,2023-11-20T17:27:32.070Z,,,,,,,,,,,2201.908999952313,completion,,,,,,,low,low,,,,,,,true,,,,,false,114605.39999997616,114604.29999995232,112385.519,112568.5,112402.391,114439.7,1,16,,
trial,html.Screen,4_6_0,2023-11-20T17:27:35.021Z,,,,0,1.0858641668099058,1.1638942560200525,,,true,ll,3115.4000000238448,response,-1.3150500754357115,1.2,-1.2,-1.2575260551085132,1.2,-1.2,low,low,,ISIC_5439597.JPG,,ISIC_0029591.JPG,,53,true,0.15000000000000002,ll,keypress(f),100,false,117555.5,117555.10000002384,114422.814,114605.70000004768,114439.7,117378.524,1,16,7,
sequence,flow.Sequence,4_6,2023-11-20T17:27:35.021Z,,,,,,,,,,,3115.4000000238448,completion,,,,,,,low,low,,,,,,,true,,,,,false,117556,117555.10000002384,114422.814,114605.60000002384,114439.7,117378.524,1,16,,
trial,html.Screen,4_7_0,2023-11-20T17:27:37.458Z,,,,0,1.09666761087476,1.1072126870290426,,,true,ll,2614.475999999995,response,-1.0698162624196283,1.2,-1.2,-1.219634566983089,1.2,-1.2,low,low,,ISIC_0071754.JPG,,ISIC_0030552.JPG,,53,true,0.15000000000000002,ll,keypress(f),100,false,119993.39999997616,119993,117361.918,117556.29999995232,117378.524,119849.95,1,16,8,
sequence,flow.Sequence,4_7,2023-11-20T17:27:37.459Z,,,,,,,,,,,2614.475999999995,completion,,,,,,,low,low,,,,,,,true,,,,,false,119994,119993,117361.918,117556.20000004768,117378.524,119849.95,1,16,,
trial,html.Screen,4_8_0,2023-11-20T17:27:46.320Z,,,,0,1.0143509683988825,-1.3163955902021656,,,true,lh,9004.84999995232,response,-0.8092423703106274,1.2,-1.2,1.1870093485714288,1.2,-1.2,low,high,,ISIC_0062031.JPG,,ISIC_8592235.JPG,,27,true,0.42000000000000026,lh,keypress(e),100,false,128855.20000004768,128854.79999995232,119800.002,119994.29999995232,119849.95,128700.534,1,16,9,
sequence,flow.Sequence,4_8,2023-11-20T17:27:46.321Z,,,,,,,,,,,9004.84999995232,completion,,,,,,,low,high,,,,,,,true,,,,,false,128856,128854.79999995232,119800.002,119994.20000004768,119849.95,128700.534,1,16,,
trial,html.Screen,4_9_0,2023-11-20T17:27:48.368Z,,,,0,1.1181734135756094,-0.944560381774994,,,true,lh,2202.666000047684,response,-0.8655167308525522,1.2,-1.2,0.9298580423306444,1.2,-1.2,low,high,,ISIC_9688534.JPG,,ISIC_4603706.JPG,,27,true,0.42000000000000026,lh,keypress(e),100,false,130903.29999995232,130903.20000004768,128667.215,128856.29999995232,128700.534,130737.845,1,16,10,
sequence,flow.Sequence,4_9,2023-11-20T17:27:48.369Z,,,,,,,,,,,2202.666000047684,completion,,,,,,,low,high,,,,,,,true,,,,,false,130903.39999997616,130903.20000004768,128667.215,128856.20000004768,128700.534,130737.845,1,16,,
trial,html.Screen,4_10_0,2023-11-20T17:27:50.768Z,,,,0,1.0865333402803938,-1.0542635307358266,,,true,lh,2565.154999999999,response,-1.276222161935671,1.2,-1.2,0.9657780821973284,1.2,-1.2,low,high,,ISIC_0034006.JPG,,ISIC_6710411.JPG,,27,true,0.42000000000000026,lh,keypress(e),100,false,133303,133303,130721.17,130903.5,130737.845,133125.83,1,16,11,
sequence,flow.Sequence,4_10,2023-11-20T17:27:50.768Z,,,,,,,,,,,2565.154999999999,completion,,,,,,,low,high,,,,,,,true,,,,,false,133303.20000004768,133303,130721.17,130903.5,130737.845,133125.83,1,16,,
trial,html.Screen,4_11_0,2023-11-20T17:27:53.531Z,,,,0,1.0143509683988825,-1.3163955902021656,,,true,lh,2939.469999952329,response,-0.7809949855371787,1.2,-1.2,0.8493861117004308,1.2,-1.2,low,high,,ISIC_0062031.JPG,,ISIC_7450481.JPG,,27,true,0.42000000000000026,lh,keypress(e),100,false,136065.60000002384,136065.29999995232,133109.112,133303.29999995232,133125.83,135914.566,1,16,12,
sequence,flow.Sequence,4_11,2023-11-20T17:27:53.531Z,,,,,,,,,,,2939.469999952329,completion,,,,,,,low,high,,,,,,,true,,,,,false,136066,136065.29999995232,133109.112,133303.20000004768,133125.83,135914.566,1,16,,
trial,html.Screen,4_12_0,2023-11-20T17:27:57.593Z,,,,0,-0.8200962008791046,0.7936051642828523,,,true,hl,4212.934000000008,response,0.8979276789594874,1.2,-1.2,-0.925374811016654,1.2,-1.2,high,low,,ISIC_0027031.JPG,,ISIC_4208361.JPG,,26,true,0.3600000000000002,hl,keypress(j),100,false,140127.89999997616,140127.5,135881.254,136066.29999995232,135914.566,139972.473,1,16,13,
sequence,flow.Sequence,4_12,2023-11-20T17:27:57.594Z,,,,,,,,,,,4212.934000000008,completion,,,,,,,high,low,,,,,,,true,,,,,false,140128.5,140127.5,135881.254,136066.29999995232,135914.566,139972.473,1,16,,
trial,html.Screen,4_13_0,2023-11-20T17:27:59.995Z,,,,0,-0.7809949855371787,0.8493861117004308,,,true,hl,2556.6270000238437,response,1.0656673213158945,1.2,-1.2,-0.8082541692781954,1.2,-1.2,high,low,,ISIC_7450481.JPG,,ISIC_0033985.JPG,,33,true,0.42000000000000026,hl,keypress(j),100,false,142529.5,142529.10000002384,139939.147,140128.70000004768,139972.473,142377.156,1,16,14,
sequence,flow.Sequence,4_13,2023-11-20T17:27:59.995Z,,,,,,,,,,,2556.6270000238437,completion,,,,,,,high,low,,,,,,,true,,,,,false,142530,142529.10000002384,139939.147,140128.70000004768,139972.473,142377.156,1,16,,
trial,html.Screen,4_14_0,2023-11-20T17:28:02.312Z,,,,0,-0.809764442462202,1.005337148078696,,,true,hl,2469.344000000012,response,0.8179805381029407,1.2,-1.2,-0.8578467162767749,1.2,-1.2,high,low,,ISIC_2379379.JPG,,ISIC_0067253.JPG,,33,true,0.42000000000000026,hl,keypress(j),100,false,144846.89999997616,144846.5,142343.848,142530.20000004768,142377.156,144681.641,1,16,15,
sequence,flow.Sequence,4_14,2023-11-20T17:28:02.312Z,,,,,,,,,,,2469.344000000012,completion,,,,,,,high,low,,,,,,,true,,,,,false,144847.39999997616,144846.5,142343.848,142530.20000004768,142377.156,144681.641,1,16,,
trial,html.Screen,4_15_0,2023-11-20T17:28:03.832Z,,,,0,-0.9388660854518424,0.79533948698576,,,true,hl,1684.4590000238386,response,1.2331439637486756,1.2,-1.2,-0.9691143900156988,1.2,-1.2,high,low,,ISIC_9291926.JPG,,ISIC_7877488.JPG,,33,true,0.42000000000000026,hl,keypress(j),100,false,146366.5,146366.10000002384,144665.012,144847.60000002384,144681.641,146201.279,1,16,16,
sequence,flow.Sequence,4_15,2023-11-20T17:28:03.832Z,,,,,,,,,,,1684.4590000238386,completion,,,,,,,high,low,,,,,,,true,,,,,false,146367,146366.10000002384,144665.012,144847.60000002384,144681.641,146201.279,1,16,,
demonstration_loop,flow.Loop,4,2023-11-20T17:28:03.832Z,,,,,,,,,,,54704.32000002384,completion,,,,,,,,,,,,,,,true,,,,,false,146367.39999997616,146366.10000002384,91645.331,91853.89999997616,91661.78,146201.279,1,16,,
practice_instructions,html.Screen,5,2023-11-20T17:28:10.262Z,,,,,,,,,,,6587.821000023832,response,,,,,,,,,,,,,,,,,continue,click button,,,152796.89999997616,152789.10000002384,146184.668,146367.5,146201.279,152647.123,,,,
trial,html.Screen,6_0_0,2023-11-20T17:28:26.101Z,,,,1,-1.4092385398614515,1.3046237992197836,,,,,15797.482000000018,timeout,0.991282840649944,1.2,-1.2,-0.9397921099839784,1.2,-1.2,high,low,,ISIC_7254359.JPG,,ISIC_0000463.JPG,,26,true,0.3600000000000002,,,0,false,168635.5,168635,152580.594,152797,152647.123,168444.605,1,40,1,
sequence,flow.Sequence,6_0,2023-11-20T17:28:26.101Z,,,,,,,,,,,15987.877000000008,completion,,,,,,,high,low,,,,,,,true,,,,,false,168636.10000002384,168635,152580.594,152797,152647.123,168444.605,1,40,,
trial,html.Screen,6_1_0,2023-11-20T17:28:31.390Z,,,,1,1.2706447584800626,1.0903308007916603,,,true,ll,5479.794999976148,response,-1.042408629210669,1.2,-1.2,-0.7942237284714229,1.2,-1.2,low,low,,ISIC_9425937.JPG,,ISIC_0026738.JPG,,339,true,0.42000000000000026,ll,keypress(f),0,false,173924.5,173924.39999997616,168427.932,168636.29999995232,168444.605,173771.602,1,40,2,
sequence,flow.Sequence,6_1,2023-11-20T17:28:31.390Z,,,,,,,,,,,5479.794999976148,completion,,,,,,,low,low,,,,,,,true,,,,,false,173924.60000002384,173924.39999997616,168427.932,168636.29999995232,168444.605,173771.602,1,40,,
trial,html.Screen,6_2_0,2023-11-20T17:28:35.161Z,,,,1,-1.4092385398614515,1.3046237992197836,,,false,hl,3923.09800004767,response,1.2695509547992938,1.2,-1.2,-0.9641099676945492,1.2,-1.2,high,low,,ISIC_7254359.JPG,,ISIC_0025841.JPG,,26,true,0.3600000000000002,hh,keypress(i),0,false,177695,177694.70000004768,173721.683,173924.60000002384,173771.602,177512.221,1,40,3,
sequence,flow.Sequence,6_2,2023-11-20T17:28:35.161Z,,,,,,,,,,,3923.09800004767,completion,,,,,,,high,low,,,,,,,true,,,,,false,177695.60000002384,177694.70000004768,173721.683,173924.60000002384,173771.602,177512.221,1,40,,
trial,html.Screen,6_3_0,2023-11-20T17:28:39.136Z,,,,1,0.8979276789594874,-0.925374811016654,,,false,lh,4157.678999976168,response,-0.8816288864119318,1.2,-1.2,0.801867301188093,1.2,-1.2,low,high,,ISIC_4208361.JPG,,ISIC_9196783.JPG,,27,true,0.42000000000000026,hl,keypress(j),0,false,181670.10000002384,181669.89999997616,177495.715,177695.79999995232,177512.221,181486.617,1,40,4,
sequence,flow.Sequence,6_3,2023-11-20T17:28:39.136Z,,,,,,,,,,,4157.678999976168,completion,,,,,,,low,high,,,,,,,true,,,,,false,181670.29999995232,181669.89999997616,177495.715,177695.79999995232,177512.221,181486.617,1,40,,
trial,html.Screen,6_4_0,2023-11-20T17:28:42.631Z,,,,1,1.011737552725394,-0.8500530224490773,,,false,lh,3678.4830000238435,response,-0.7833710010171356,1.2,-1.2,0.9315588090336896,1.2,-1.2,low,high,,ISIC_2998367.JPG,,ISIC_3826102.JPG,,27,true,0.42000000000000026,ll,keypress(f),0,false,185165.29999995232,185165.10000002384,181470.045,181670.39999997616,181486.617,184993.451,1,40,5,
sequence,flow.Sequence,6_4,2023-11-20T17:28:42.631Z,,,,,,,,,,,3678.4830000238435,completion,,,,,,,low,high,,,,,,,true,,,,,false,185165.60000002384,185165.10000002384,181470.045,181670.29999995232,181486.617,184993.451,1,40,,
trial,html.Screen,6_5_0,2023-11-20T17:28:47.753Z,,,,1,-1.0115965332688306,0.8282633603842442,,,false,hl,5293.348999952315,response,0.8579451262594331,1.2,-1.2,-0.9633172970727744,1.2,-1.2,high,low,,ISIC_1069587.JPG,,ISIC_0067172.JPG,,26,true,0.3600000000000002,hh,keypress(i),0,false,190287.20000004768,190286.79999995232,184960.27,185165.70000004768,184993.451,190103.388,1,40,6,
sequence,flow.Sequence,6_5,2023-11-20T17:28:47.754Z,,,,,,,,,,,5293.348999952315,completion,,,,,,,high,low,,,,,,,true,,,,,false,190287.79999995232,190286.79999995232,184960.27,185165.60000002384,184993.451,190103.388,1,40,,
trial,html.Screen,6_6_0,2023-11-20T17:28:52.161Z,,,,1,-1.185875658992962,-1.2635548590325487,,,false,hh,4591.511999976152,response,0.8778348457214913,1.2,-1.2,0.8379442136072591,1.2,-1.2,high,high,,ISIC_0011703.JPG,,ISIC_0013213.JPG,,253,true,0.42000000000000026,hl,keypress(j),0,false,194695.10000002384,194694.89999997616,190086.871,190288.10000002384,190103.388,194511.939,1,40,7,
sequence,flow.Sequence,6_6,2023-11-20T17:28:52.161Z,,,,,,,,,,,4591.511999976152,completion,,,,,,,high,high,,,,,,,true,,,,,false,194695.60000002384,194694.89999997616,190086.871,190288,190103.388,194511.939,1,40,,
trial,html.Screen,6_7_0,2023-11-20T17:28:55.721Z,,,,1,-1.2254187569955004,-1.174555235109734,,,true,hh,3742.8609999523032,response,1.0870240111136478,1.2,-1.2,1.332340670965917,1.2,-1.2,high,high,,ISIC_0027187.JPG,,ISIC_0000660.JPG,,26,true,0.15000000000000002,hh,keypress(i),0,false,198255.10000002384,198254.79999995232,194495.54,194695.89999997616,194511.939,198102.288,1,40,8,
sequence,flow.Sequence,6_7,2023-11-20T17:28:55.721Z,,,,,,,,,,,3742.8609999523032,completion,,,,,,,high,high,,,,,,,true,,,,,false,198255.70000004768,198254.79999995232,194495.54,194695.79999995232,194511.939,198102.288,1,40,,
trial,html.Screen,6_8_0,2023-11-20T17:28:58.961Z,,,,1,1.2075172235545184,-0.9116724966267612,,,false,lh,3392.4120000476833,response,-0.948927472020595,1.2,-1.2,1.0660437155921598,1.2,-1.2,low,high,,ISIC_0024235.JPG,,ISIC_5808758.JPG,,27,true,0.42000000000000026,ll,keypress(f),0,false,201495,201494.70000004768,198052.395,198256,198102.288,201308.659,1,40,9,
sequence,flow.Sequence,6_8,2023-11-20T17:28:58.961Z,,,,,,,,,,,3392.4120000476833,completion,,,,,,,low,high,,,,,,,true,,,,,false,201495.60000002384,201494.70000004768,198052.395,198255.89999997616,198102.288,201308.659,1,40,,
trial,html.Screen,6_9_0,2023-11-20T17:29:02.041Z,,,,1,-1.2750452296609045,-1.1682369131232675,,,true,hh,3266.0410000476695,response,1.0565911491759823,1.2,-1.2,1.0221582682700174,1.2,-1.2,high,high,,ISIC_0066399.JPG,,ISIC_6604862.JPG,,179,true,0.3600000000000002,hh,keypress(i),0,false,204575.10000002384,204574.70000004768,201291.911,201495.79999995232,201308.659,204414.564,1,40,10,
sequence,flow.Sequence,6_9,2023-11-20T17:29:02.041Z,,,,,,,,,,,3266.0410000476695,completion,,,,,,,high,high,,,,,,,true,,,,,false,204575.70000004768,204574.70000004768,201291.911,201495.70000004768,201308.659,204414.564,1,40,,
trial,html.Screen,6_10_0,2023-11-20T17:29:05.705Z,,,,1,-1.276222161935671,0.9657780821973284,,,false,hl,3824.2359999523032,response,0.9454713230140772,1.2,-1.2,-0.9245167441969216,1.2,-1.2,high,low,,ISIC_6710411.JPG,,ISIC_9101055.JPG,,26,true,0.3600000000000002,lh,keypress(e),0,false,208239.20000004768,208238.79999995232,204364.73,204575.89999997616,204414.564,208055.082,1,40,11,
sequence,flow.Sequence,6_10,2023-11-20T17:29:05.705Z,,,,,,,,,,,3824.2359999523032,completion,,,,,,,high,low,,,,,,,true,,,,,false,208239.70000004768,208238.79999995232,204364.73,204575.89999997616,204414.564,208055.082,1,40,,
trial,html.Screen,6_11_0,2023-11-20T17:29:09.151Z,,,,1,-1.247270138097585,-1.1704704713504994,,,true,hh,3630.3179999761633,response,1.1508713823316503,1.2,-1.2,1.5479614913480244,1.2,-1.2,high,high,,ISIC_0065774.JPG,,ISIC_5859812.JPG,,253,true,0.42000000000000026,hh,keypress(i),0,false,211685.5,211685.39999997616,208038.478,208239.89999997616,208055.082,211494.996,1,40,12,
sequence,flow.Sequence,6_11,2023-11-20T17:29:09.151Z,,,,,,,,,,,3630.3179999761633,completion,,,,,,,high,high,,,,,,,true,,,,,false,211685.60000002384,211685.39999997616,208038.478,208239.89999997616,208055.082,211494.996,1,40,,
trial,html.Screen,6_12_0,2023-11-20T17:29:15.169Z,,,,1,1.2711018615747949,1.1042234044781618,,,false,ll,6207.803999952303,response,-1.2493792664822851,1.2,-1.2,-1.1336008561684745,1.2,-1.2,low,low,,ISIC_8603734.JPG,,ISIC_0061475.JPG,,30,true,0.1,lh,keypress(e),0,false,217703.10000002384,217702.79999995232,211478.575,211685.70000004768,211494.996,217523.429,1,40,13,
sequence,flow.Sequence,6_12,2023-11-20T17:29:15.169Z,,,,,,,,,,,6207.803999952303,completion,,,,,,,low,low,,,,,,,true,,,,,false,217703.70000004768,217702.79999995232,211478.575,211685.60000002384,211494.996,217523.429,1,40,,
trial,html.Screen,6_13_0,2023-11-20T17:29:19.968Z,,,,1,1.201100953917304,1.1751492358160105,,,true,ll,4978.27100004768,response,-1.2322060291690602,1.2,-1.2,-1.2686491386389651,1.2,-1.2,low,low,,ISIC_0647224.JPG,,ISIC_0011697.JPG,,53,true,0.15000000000000002,ll,keypress(f),0,false,222501.89999997616,222501.70000004768,217506.899,217704,217523.429,222349.448,1,40,14,
sequence,flow.Sequence,6_13,2023-11-20T17:29:19.968Z,,,,,,,,,,,4978.27100004768,completion,,,,,,,low,low,,,,,,,true,,,,,false,222502,222501.70000004768,217506.899,217703.89999997616,217523.429,222349.448,1,40,,
trial,html.Screen,6_14_0,2023-11-20T17:29:24.801Z,,,,1,-0.9873794329144926,0.7991077882008257,,,false,hl,4985.351999952312,response,1.0751036484083878,1.2,-1.2,-1.143906455483852,1.2,-1.2,high,low,,ISIC_0013498.JPG,,ISIC_0064406.JPG,,26,true,0.3600000000000002,ll,keypress(f),0,false,227335.10000002384,227334.79999995232,222299.606,222502,222349.448,227160.127,1,40,15,
sequence,flow.Sequence,6_14,2023-11-20T17:29:24.801Z,,,,,,,,,,,4985.351999952312,completion,,,,,,,high,low,,,,,,,true,,,,,false,227335.60000002384,227334.79999995232,222299.606,222502,222349.448,227160.127,1,40,,
trial,html.Screen,6_15_0,2023-11-20T17:29:29.833Z,,,,1,1.3189473926989124,1.0770264364718942,,,false,ll,5206.672999952309,response,-0.943978570218156,1.2,-1.2,-0.9420387258741144,1.2,-1.2,low,low,,ISIC_6093728.JPG,,ISIC_0011642.JPG,,339,true,0.42000000000000026,lh,keypress(e),0,false,232367.10000002384,232366.79999995232,227125.636,227335.79999995232,227160.127,232201.998,1,40,16,
sequence,flow.Sequence,6_15,2023-11-20T17:29:29.834Z,,,,,,,,,,,5206.672999952309,completion,,,,,,,low,low,,,,,,,true,,,,,false,232367.5,232366.79999995232,227125.636,227335.70000004768,227160.127,232201.998,1,40,,
trial,html.Screen,6_16_0,2023-11-20T17:29:34.642Z,,,,1,1.011737552725394,-0.8500530224490773,,,false,lh,4973.002000000008,response,-0.809764442462202,1.2,-1.2,1.005337148078696,1.2,-1.2,low,high,,ISIC_2998367.JPG,,ISIC_2379379.JPG,,27,true,0.42000000000000026,hh,keypress(i),0,false,237175.29999995232,237175,232168.719,232367.79999995232,232201.998,236994.665,1,40,17,
sequence,flow.Sequence,6_16,2023-11-20T17:29:34.642Z,,,,,,,,,,,4973.002000000008,completion,,,,,,,low,high,,,,,,,true,,,,,false,237175.89999997616,237175,232168.719,232367.70000004768,232201.998,236994.665,1,40,,
trial,html.Screen,6_17_0,2023-11-20T17:29:41.145Z,,,,1,1.2331439637486756,-0.9691143900156988,,,false,lh,6684.134999952308,response,-1.0115965332688306,1.2,-1.2,0.8282633603842442,1.2,-1.2,low,high,,ISIC_7877488.JPG,,ISIC_1069587.JPG,,27,true,0.42000000000000026,ll,keypress(f),0,false,243679,243678.79999995232,236977.999,237176.10000002384,236994.665,243490.696,1,40,18,
sequence,flow.Sequence,6_17,2023-11-20T17:29:41.146Z,,,,,,,,,,,6684.134999952308,completion,,,,,,,low,high,,,,,,,true,,,,,false,243679.5,243678.79999995232,236977.999,237176.10000002384,236994.665,243490.696,1,40,,
trial,html.Screen,6_18_0,2023-11-20T17:29:45.210Z,,,,1,-1.2322060291690602,-1.2686491386389651,,,false,hh,4252.304000000004,response,1.3484513254017945,1.2,-1.2,0.9900809605367444,1.2,-1.2,high,high,,ISIC_0011697.JPG,,ISIC_0033081.JPG,,179,true,0.3600000000000002,ll,keypress(f),0,false,247743.39999997616,247743,243474.085,243679.79999995232,243490.696,247565.323,1,40,19,
sequence,flow.Sequence,6_18,2023-11-20T17:29:45.210Z,,,,,,,,,,,4252.304000000004,completion,,,,,,,high,high,,,,,,,true,,,,,false,247743.79999995232,247743,243474.085,243679.70000004768,243490.696,247565.323,1,40,,
trial,html.Screen,6_19_0,2023-11-20T17:29:50.674Z,,,,1,-1.185875658992962,-1.2635548590325487,,,true,hh,5641.576999976154,response,1.0959058628476686,1.2,-1.2,1.1684835186766898,1.2,-1.2,high,high,,ISIC_0011703.JPG,,ISIC_5920470.JPG,,26,true,0.15000000000000002,hh,keypress(i),0,false,253207.20000004768,253206.89999997616,247548.516,247744.20000004768,247565.323,253059.269,1,40,20,
sequence,flow.Sequence,6_19,2023-11-20T17:29:50.674Z,,,,,,,,,,,5641.576999976154,completion,,,,,,,high,high,,,,,,,true,,,,,false,253207.79999995232,253206.89999997616,247548.516,247744.10000002384,247565.323,253059.269,1,40,,
trial,html.Screen,6_20_0,2023-11-20T17:29:53.872Z,,,,1,-0.8035152873995188,0.82868450251632,,,false,hl,3346.030999952316,response,1.2075172235545184,1.2,-1.2,-0.9116724966267612,1.2,-1.2,high,low,,ISIC_0010671.JPG,,ISIC_0024235.JPG,,26,true,0.3600000000000002,hh,keypress(i),0,false,256405.5,256405.29999995232,253009.275,253208.10000002384,253059.269,256215.401,1,40,21,
sequence,flow.Sequence,6_20,2023-11-20T17:29:53.872Z,,,,,,,,,,,3346.030999952316,completion,,,,,,,high,low,,,,,,,true,,,,,false,256405.60000002384,256405.29999995232,253009.275,253208,253059.269,256215.401,1,40,,
trial,html.Screen,6_21_0,2023-11-20T17:30:00.474Z,,,,1,1.3411179702686655,1.255103311449152,,,false,ll,6791.598999999987,response,-0.8835058339726064,1.2,-1.2,-1.035612893059322,1.2,-1.2,low,low,,ISIC_5611010.JPG,,ISIC_0069595.JPG,,339,true,0.42000000000000026,hl,keypress(j),0,false,263007.2000000477,263007,256198.716,256405.70000004768,256215.401,262828.351,1,40,22,
sequence,flow.Sequence,6_21,2023-11-20T17:30:00.474Z,,,,,,,,,,,6791.598999999987,completion,,,,,,,low,low,,,,,,,true,,,,,false,263007.7000000477,263007,256198.716,256405.70000004768,256215.401,262828.351,1,40,,
trial,html.Screen,6_22_0,2023-11-20T17:30:03.504Z,,,,1,1.3411179702686655,1.255103311449152,,,true,ll,3209.448999952292,response,-1.1474466950560966,1.2,-1.2,-1.268445326285509,1.2,-1.2,low,low,,ISIC_5611010.JPG,,ISIC_5216586.JPG,,53,true,0.15000000000000002,ll,keypress(f),0,false,266037.7999999523,266037.7999999523,262811.538,263007.89999997616,262828.351,265884.219,1,40,23,
sequence,flow.Sequence,6_22,2023-11-20T17:30:03.504Z,,,,,,,,,,,3209.448999952292,completion,,,,,,,low,low,,,,,,,true,,,,,false,266038.10000002384,266037.7999999523,262811.538,263007.89999997616,262828.351,265884.219,1,40,,
trial,html.Screen,6_23_0,2023-11-20T17:30:06.201Z,,,,1,-0.8035152873995188,0.82868450251632,,,false,hl,2850.381000023859,response,1.0143509683988825,1.2,-1.2,-1.3163955902021656,1.2,-1.2,high,low,,ISIC_0010671.JPG,,ISIC_0062031.JPG,,26,true,0.3600000000000002,ll,keypress(f),0,false,268734.89999997616,268734.60000002384,265834.292,266038.10000002384,265884.219,268556.1,1,40,24,
sequence,flow.Sequence,6_23,2023-11-20T17:30:06.202Z,,,,,,,,,,,2850.381000023859,completion,,,,,,,high,low,,,,,,,true,,,,,false,268735.5,268734.60000002384,265834.292,266038.10000002384,265884.219,268556.1,1,40,,
trial,html.Screen,6_24_0,2023-11-20T17:30:11.050Z,,,,1,-0.991146183030456,0.9949639823722534,,,false,hl,5026.900000000023,response,1.1181734135756094,1.2,-1.2,-0.944560381774994,1.2,-1.2,high,low,,ISIC_6342224.JPG,,ISIC_9688534.JPG,,33,true,0.42000000000000026,hh,keypress(i),0,false,273583.39999997616,273583,268539.602,268735.7999999523,268556.1,273398.818,1,40,25,
sequence,flow.Sequence,6_24,2023-11-20T17:30:11.050Z,,,,,,,,,,,5026.900000000023,completion,,,,,,,high,low,,,,,,,true,,,,,false,273583.89999997616,273583,268539.602,268735.7999999523,268556.1,273398.818,1,40,,
trial,html.Screen,6_25_0,2023-11-20T17:30:14.922Z,,,,1,1.0858641668099058,1.1638942560200525,,,true,ll,4056.1819999999716,response,-1.2169050727663315,1.2,-1.2,-1.1067845563421794,1.2,-1.2,low,low,,ISIC_5439597.JPG,,ISIC_7016261.JPG,,339,true,0.42000000000000026,ll,keypress(f),0,false,277455.2999999523,277455,273382.248,273584.10000002384,273398.818,277273.32,1,40,26,
sequence,flow.Sequence,6_25,2023-11-20T17:30:14.922Z,,,,,,,,,,,4056.1819999999716,completion,,,,,,,low,low,,,,,,,true,,,,,false,277455.7999999523,277455,273382.248,273584,273398.818,277273.32,1,40,,
trial,html.Screen,6_26_0,2023-11-20T17:30:19.977Z,,,,1,-1.2952503640839694,-1.107234527385344,,,true,hh,5237.179999999993,response,1.1642596483638106,1.2,-1.2,1.109799097093339,1.2,-1.2,high,high,,ISIC_0034134.JPG,,ISIC_0765584.JPG,,26,true,0.15000000000000002,hh,keypress(i),0,false,282510.7999999523,282510.5,277256.617,277456,277273.32,282333.059,1,40,27,
sequence,flow.Sequence,6_26,2023-11-20T17:30:19.978Z,,,,,,,,,,,5237.179999999993,completion,,,,,,,high,high,,,,,,,true,,,,,false,282511.2000000477,282510.5,277256.617,277455.89999997616,277273.32,282333.059,1,40,,
trial,html.Screen,6_27_0,2023-11-20T17:30:22.658Z,,,,1,-1.185875658992962,-1.2635548590325487,,,true,hh,2858.0410000238335,response,1.1210325063849345,1.2,-1.2,1.1498648320956202,1.2,-1.2,high,high,,ISIC_0011703.JPG,,ISIC_0032162.JPG,,26,true,0.15000000000000002,hh,keypress(i),0,false,285191.2999999523,285191.10000002384,282316.349,282511.5,282333.059,285004.781,1,40,28,
sequence,flow.Sequence,6_27,2023-11-20T17:30:22.658Z,,,,,,,,,,,2858.0410000238335,completion,,,,,,,high,high,,,,,,,true,,,,,false,285191.89999997616,285191.10000002384,282316.349,282511.39999997616,282333.059,285004.781,1,40,,
trial,html.Screen,6_28_0,2023-11-20T17:30:25.698Z,,,,1,1.1210325063849345,1.1498648320956202,,,true,ll,3226.118999976141,response,-1.1877026569952844,1.2,-1.2,-1.1604367569896263,1.2,-1.2,low,low,,ISIC_0032162.JPG,,ISIC_0064589.JPG,,30,true,0.1,ll,keypress(f),0,false,288231.2000000477,288230.89999997616,284988.267,285192.2000000477,285004.781,288077.425,1,40,29,
sequence,flow.Sequence,6_28,2023-11-20T17:30:25.698Z,,,,,,,,,,,3226.118999976141,completion,,,,,,,low,low,,,,,,,true,,,,,false,288231.7999999523,288230.89999997616,284988.267,285192.10000002384,285004.781,288077.425,1,40,,
trial,html.Screen,6_29_0,2023-11-20T17:30:29.866Z,,,,1,1.2364994561934892,-0.9174173651516624,,,true,lh,4321.374999952328,response,-0.7870237732709365,1.2,-1.2,0.9172955251119376,1.2,-1.2,low,high,,ISIC_3481133.JPG,,ISIC_0057716.JPG,,27,true,0.42000000000000026,lh,keypress(e),0,false,292399.10000002384,292398.7999999523,288027.612,288232,288077.425,292218.929,1,40,30,
sequence,flow.Sequence,6_29,2023-11-20T17:30:29.867Z,,,,,,,,,,,4321.374999952328,completion,,,,,,,low,high,,,,,,,true,,,,,false,292399.5,292398.7999999523,288027.612,288232,288077.425,292218.929,1,40,,
trial,html.Screen,6_30_0,2023-11-20T17:30:34.154Z,,,,1,1.057008495826831,1.1278122585028287,,,true,ll,4468.070999999996,response,-0.8542403401067127,1.2,-1.2,-1.23040890403733,1.2,-1.2,low,low,,ISIC_2819798.JPG,,ISIC_0010140.JPG,,245,true,0.3600000000000002,ll,keypress(f),0,false,296687.39999997616,296687,292202.334,292399.7999999523,292218.929,296527.194,1,40,31,
sequence,flow.Sequence,6_30,2023-11-20T17:30:34.155Z,,,,,,,,,,,4468.070999999996,completion,,,,,,,low,low,,,,,,,true,,,,,false,296687.7999999523,296687,292202.334,292399.7000000477,292218.929,296527.194,1,40,,
trial,html.Screen,6_31_0,2023-11-20T17:30:37.417Z,,,,1,0.8487429103619056,-0.9778257804233036,,,false,lh,3422.506000047666,response,-1.4092385398614515,1.2,-1.2,1.3046237992197836,1.2,-1.2,low,high,,ISIC_4554863.JPG,,ISIC_7254359.JPG,,27,true,0.42000000000000026,hh,keypress(i),0,false,299949.89999997616,299949.7000000477,296477.258,296688.10000002384,296527.194,299766.852,1,40,32,
sequence,flow.Sequence,6_31,2023-11-20T17:30:37.417Z,,,,,,,,,,,3422.506000047666,completion,,,,,,,low,high,,,,,,,true,,,,,false,299950.10000002384,299949.7000000477,296477.258,296688,296527.194,299766.852,1,40,,
trial,html.Screen,6_32_0,2023-11-20T17:30:41.017Z,,,,1,0.8579451262594331,-0.9633172970727744,,,false,lh,3783.0479999761446,response,-1.0115965332688306,1.2,-1.2,0.8282633603842442,1.2,-1.2,low,high,,ISIC_0067172.JPG,,ISIC_1069587.JPG,,27,true,0.42000000000000026,ll,keypress(f),0,false,303550.10000002384,303549.89999997616,299750.281,299950.2000000477,299766.852,303357.192,1,40,33,
sequence,flow.Sequence,6_32,2023-11-20T17:30:41.017Z,,,,,,,,,,,3783.0479999761446,completion,,,,,,,low,high,,,,,,,true,,,,,false,303550.2999999523,303549.89999997616,299750.281,299950.10000002384,299766.852,303357.192,1,40,,
trial,html.Screen,6_33_0,2023-11-20T17:30:44.227Z,,,,1,-1.1383813631375823,-1.1319312220332556,,,true,hh,3402.1079999523354,response,1.101961018205887,1.2,-1.2,0.891963134716088,1.2,-1.2,high,high,,ISIC_6227397.JPG,,ISIC_5625747.JPG,,179,true,0.3600000000000002,hh,keypress(i),0,false,306759.60000002384,306759.2999999523,303340.613,303550.2999999523,303357.192,306580.268,1,40,34,
sequence,flow.Sequence,6_33,2023-11-20T17:30:44.227Z,,,,,,,,,,,3402.1079999523354,completion,,,,,,,high,high,,,,,,,true,,,,,false,306760.10000002384,306759.2999999523,303340.613,303550.2999999523,303357.192,306580.268,1,40,,
trial,html.Screen,6_34_0,2023-11-20T17:30:47.506Z,,,,1,1.0858641668099058,1.1638942560200525,,,true,ll,3458.732000000018,response,-1.1877026569952844,1.2,-1.2,-1.1604367569896263,1.2,-1.2,low,low,,ISIC_5439597.JPG,,ISIC_0064589.JPG,,30,true,0.1,ll,keypress(f),0,false,310039.39999997616,310039,306563.607,306760.2999999523,306580.268,309886.531,1,40,35,
sequence,flow.Sequence,6_34,2023-11-20T17:30:47.507Z,,,,,,,,,,,3458.732000000018,completion,,,,,,,low,low,,,,,,,true,,,,,false,310039.89999997616,310039,306563.607,306760.2000000477,306580.268,309886.531,1,40,,
trial,html.Screen,6_35_0,2023-11-20T17:30:52.434Z,,,,1,0.8979276789594874,-0.925374811016654,,,false,lh,5079.968999999983,response,-0.948927472020595,1.2,-1.2,1.0660437155921598,1.2,-1.2,low,high,,ISIC_4208361.JPG,,ISIC_5808758.JPG,,27,true,0.42000000000000026,hl,keypress(j),0,false,314966.7000000477,314966.5,309836.421,310040.2999999523,309886.531,314796.091,1,40,36,
sequence,flow.Sequence,6_35,2023-11-20T17:30:52.434Z,,,,,,,,,,,5079.968999999983,completion,,,,,,,low,high,,,,,,,true,,,,,false,314967.2999999523,314966.5,309836.421,310040.10000002384,309886.531,314796.091,1,40,,
trial,html.Screen,6_36_0,2023-11-20T17:30:54.946Z,,,,1,-0.9873794329144926,0.7991077882008257,,,false,hl,2683.009000023827,response,0.869932994914832,1.2,-1.2,-0.8880533324432531,1.2,-1.2,high,low,,ISIC_0013498.JPG,,ISIC_8617084.JPG,,26,true,0.3600000000000002,hh,keypress(i),0,false,317479.39999997616,317479.10000002384,314762.903,314967.5,314796.091,317300.957,1,40,37,
sequence,flow.Sequence,6_36,2023-11-20T17:30:54.947Z,,,,,,,,,,,2683.009000023827,completion,,,,,,,high,low,,,,,,,true,,,,,false,317479.89999997616,317479.10000002384,314762.903,314967.39999997616,314796.091,317300.957,1,40,,
trial,html.Screen,6_37_0,2023-11-20T17:30:57.322Z,,,,1,-0.796241477082623,0.9017449335975743,,,false,hl,2553.743000047689,response,1.020990671779317,1.2,-1.2,-1.0116513850520903,1.2,-1.2,high,low,,ISIC_8588033.JPG,,ISIC_0011995.JPG,,33,true,0.42000000000000026,ll,keypress(f),0,false,319855.10000002384,319854.7000000477,317284.309,317480.2000000477,317300.957,319672.471,1,40,38,
sequence,flow.Sequence,6_37,2023-11-20T17:30:57.323Z,,,,,,,,,,,2553.743000047689,completion,,,,,,,high,low,,,,,,,true,,,,,false,319855.60000002384,319854.7000000477,317284.309,317480.10000002384,317300.957,319672.471,1,40,,
trial,html.Screen,6_38_0,2023-11-20T17:31:02.257Z,,,,1,-1.2254187569955004,-1.174555235109734,,,false,hh,5117.229000047664,response,1.2111695767373332,1.2,-1.2,0.8313549130647981,1.2,-1.2,high,high,,ISIC_0027187.JPG,,ISIC_8627293.JPG,,253,true,0.42000000000000026,hl,keypress(j),0,false,324789.89999997616,324789.7000000477,319655.817,319855.89999997616,319672.471,324631.87,1,40,39,
sequence,flow.Sequence,6_38,2023-11-20T17:31:02.257Z,,,,,,,,,,,5117.229000047664,completion,,,,,,,high,high,,,,,,,true,,,,,false,324790,324789.7000000477,319655.817,319855.7999999523,319672.471,324631.87,1,40,,
trial,html.Screen,6_39_0,2023-11-20T17:31:05.658Z,,,,1,1.0026266089287914,-1.0913275913920335,,,false,lh,3559.2300000238465,response,-0.8092423703106274,1.2,-1.2,1.1870093485714288,1.2,-1.2,low,high,,ISIC_0033520.JPG,,ISIC_8592235.JPG,,27,true,0.42000000000000026,hh,keypress(i),0,false,328191.5,328191.10000002384,324581.938,324790,324631.87,328005.103,1,40,40,
sequence,flow.Sequence,6_39,2023-11-20T17:31:05.659Z,,,,,,,,,,,3559.2300000238465,completion,,,,,,,low,high,,,,,,,true,,,,,false,328192,328191.10000002384,324581.938,324790,324631.87,328005.103,1,40,,
practice_loop,flow.Loop,6,2023-11-20T17:31:05.659Z,,,,,,,,,,,175543.97700002385,completion,,,,,,,,,,,,,,,true,,,,,false,328192.39999997616,328191.10000002384,152580.594,152797,152647.123,328005.103,1,40,,
stair_instructions,html.Screen,7,2023-11-20T17:31:09.041Z,,,,,,,,,,,3568.097000047681,response,,,,,,,,,,,,,,,,,continue,click button,,,331573.7999999523,331573.2000000477,327988.548,328192.5,328005.103,331395.158,,,,
trial,html.Screen,8_0_0,2023-11-20T17:31:11.881Z,,,,2,0.0051189696037511,-0.0396625911332438,,0.05,true,hh,3018.342000000004,response,0.966559957097246,1.2,-1.2,1.4513039567550392,1.2,-1.2,high,high,,ISIC_9742891.JPG,,ISIC_0010089.JPG,33,179,false,0.3600000000000002,hh,keypress(i),0,true,334413.60000002384,334413.5,331361.945,331574,331395.158,334233.939,1,40,1,
sequence,flow.Sequence,8_0,2023-11-20T17:31:11.881Z,,,,,,,,,,,3018.342000000004,completion,,,,,,,high,high,,,,,,,false,,,,,true,334413.7000000477,334413.5,331361.945,331574,331395.158,334233.939,1,40,,
trial,html.Screen,8_1_0,2023-11-20T17:31:15.003Z,,,,2,-0.0050679133050021,0.0009714874637896,,0.05,false,hl,3301.3609999523032,response,1.2331439637486756,1.15,-1.15,-0.9691143900156988,1.15,-1.15,high,low,,ISIC_9848743.JPG,,ISIC_7877488.JPG,33,25,false,0.31000000000000016,hh,keypress(i),0,true,337535.5,337535.2999999523,334217.237,334413.7999999523,334233.939,337356.664,1,40,2,
sequence,flow.Sequence,8_1,2023-11-20T17:31:15.003Z,,,,,,,,,,,3301.3609999523032,completion,,,,,,,high,low,,,,,,,false,,,,,true,337536.10000002384,337535.2999999523,334217.237,334413.7999999523,334233.939,337356.664,1,40,,
trial,html.Screen,8_2_0,2023-11-20T17:31:18.035Z,,,,2,0.0348234368746005,-0.0236866303880924,,0.05,true,lh,3211.1359999523265,response,-0.948927472020595,1.2422239602518572,-1.15,1.0660437155921598,1.15,-1.15,low,high,,ISIC_0011099.JPG,,ISIC_5808758.JPG,33,27,false,0.3700000000000002,lh,keypress(e),0,true,340568.2000000477,340567.7999999523,337340.184,337536.39999997616,337356.664,340395.929,1,40,3,
sequence,flow.Sequence,8_2,2023-11-20T17:31:18.036Z,,,,,,,,,,,3211.1359999523265,completion,,,,,,,low,high,,,,,,,false,,,,,true,340568.7000000477,340567.7999999523,337340.184,337536.2000000477,337356.664,340395.929,1,40,,
trial,html.Screen,8_3_0,2023-11-20T17:31:20.961Z,,,,2,0.013431314305098,-0.0140597582944232,,0.05,false,lh,3097.671000023838,response,-1.0213365328004047,1.1922239602518572,-1.15,1.088524359911891,1.0999999999999999,-1.15,low,high,,ISIC_0069617.JPG,,ISIC_5434229.JPG,33,25,false,0.3600000000000002,ll,keypress(f),0,true,343493.7000000477,343493.60000002384,340362.601,340568.89999997616,340395.929,343301.605,1,40,4,
sequence,flow.Sequence,8_3,2023-11-20T17:31:20.961Z,,,,,,,,,,,3097.671000023838,completion,,,,,,,low,high,,,,,,,false,,,,,true,343493.7999999523,343493.60000002384,340362.601,340568.89999997616,340395.929,343301.605,1,40,,
trial,html.Screen,8_4_0,2023-11-20T17:31:23.234Z,,,,2,-0.0456515796420274,0.0273567130070961,,0.05,true,hh,2464.694999952335,response,1.072671714258808,1.1922239602518572,-0.9351320024104999,1.0208498389771272,1.15,-1.15,high,high,,ISIC_0068610.JPG,,ISIC_5218773.JPG,33,26,false,0.13,hh,keypress(i),0,true,345766.5,345766.2999999523,343285.045,343493.89999997616,343301.605,345589.816,1,40,5,
sequence,flow.Sequence,8_4,2023-11-20T17:31:23.234Z,,,,,,,,,,,2464.694999952335,completion,,,,,,,high,high,,,,,,,false,,,,,true,345766.89999997616,345766.2999999523,343285.045,343493.89999997616,343301.605,345589.816,1,40,,
trial,html.Screen,8_5_0,2023-11-20T17:31:25.978Z,,,,2,-0.0324770283903853,-0.0249968632204382,,0.05,true,ll,2921.0839999761665,response,-0.9049419708812736,1.1922239602518572,-0.9351320024104999,-1.1525122949771718,1.15,-1.15,low,low,,ISIC_7266462.JPG,,ISIC_0011348.JPG,33,29,false,0.1,ll,keypress(f),0,true,348511.2999999523,348510.89999997616,345556.192,345767.10000002384,345589.816,348328.109,1,40,6,
sequence,flow.Sequence,8_5,2023-11-20T17:31:25.979Z,,,,,,,,,,,2921.0839999761665,completion,,,,,,,low,low,,,,,,,false,,,,,true,348511.7000000477,348510.89999997616,345556.192,345767.10000002384,345589.816,348328.109,1,40,,
trial,html.Screen,8_6_0,2023-11-20T17:31:31.019Z,,,,2,0.0113873532168551,0.0054999201556291,,0.05,true,ll,5223.491000023845,response,-0.958609763811768,1.1922239602518572,-0.9351320024104999,-1.0650939066726144,1.15,-1.15,low,low,,ISIC_8812621.JPG,,ISIC_0070163.JPG,33,29,false,0.1,ll,keypress(f),0,true,353551.89999997616,353551.60000002384,348311.332,348512,348328.109,353371.197,1,40,7,
sequence,flow.Sequence,8_6,2023-11-20T17:31:31.020Z,,,,,,,,,,,5223.491000023845,completion,,,,,,,low,low,,,,,,,false,,,,,true,353552.5,353551.60000002384,348311.332,348512,348328.109,353371.197,1,40,,
trial,html.Screen,8_7_0,2023-11-20T17:31:33.619Z,,,,2,0,0.0264544974620926,,0.05,true,hh,2779.9030000238563,response,1.09666761087476,1.1922239602518572,-1.058803100824893,1.1072126870290426,1.15,-1.058803100824893,high,high,,ISIC_0056991.JPG,,ISIC_0071754.JPG,33,26,false,0.13,hh,keypress(i),0,true,356151.5,356151.10000002384,353354.653,353552.7999999523,353371.197,355959.631,1,40,8,
sequence,flow.Sequence,8_7,2023-11-20T17:31:33.620Z,,,,,,,,,,,2779.9030000238563,completion,,,,,,,high,high,,,,,,,false,,,,,true,356152,356151.10000002384,353354.653,353552.7000000477,353371.197,355959.631,1,40,,
trial,html.Screen,8_8_0,2023-11-20T17:31:39.755Z,,,,2,-0.0070725527271049,-0.0049995141077508,,0.05,true,ll,6327.469000023848,response,-1.0931477426281198,1.1422239602518571,-1.058803100824893,-1.0028306951898116,1.0999999999999999,-1.058803100824893,low,low,,ISIC_6124481.JPG,,ISIC_0026531.JPG,33,29,false,0.1,ll,keypress(f),0,true,362287.5,362287.10000002384,355943.085,356152.2999999523,355959.631,362104.863,1,40,9,
sequence,flow.Sequence,8_8,2023-11-20T17:31:39.756Z,,,,,,,,,,,6327.469000023848,completion,,,,,,,low,low,,,,,,,false,,,,,true,362288,362287.10000002384,355943.085,356152.2000000477,355959.631,362104.863,1,40,,
trial,html.Screen,8_9_0,2023-11-20T17:31:42.347Z,,,,2,-0.0085520978188085,0.0464691161264081,,0.05,false,hl,2774.636999999988,response,0.8579451262594331,1.1422239602518571,-1.058803100824893,-0.9633172970727744,1.0999999999999999,-1.058803100824893,high,low,,ISIC_0758797.JPG,,ISIC_0067172.JPG,33,28,false,0.29000000000000015,hh,keypress(i),0,true,364879.7999999523,364879.5,362088.381,362288.2000000477,362104.863,364693.309,1,40,10,
sequence,flow.Sequence,8_9,2023-11-20T17:31:42.348Z,,,,,,,,,,,2774.636999999988,completion,,,,,,,high,low,,,,,,,false,,,,,true,364880.39999997616,364879.5,362088.381,362288.10000002384,362104.863,364693.309,1,40,,
trial,html.Screen,8_10_0,2023-11-20T17:31:45.179Z,,,,2,-0.0217698886732706,0.0410870915161425,,0.05,false,hh,3017.8910000476753,response,1.131522954199764,1.1422239602518571,-1.058803100824893,1.1047184491749509,1.0999999999999999,-1.108803100824893,high,high,,ISIC_0072173.JPG,,ISIC_1868816.JPG,33,25,false,0.1,hl,keypress(j),0,true,367711.5,367711.2000000477,364676.675,364880.60000002384,364693.309,367532.316,1,40,11,
sequence,flow.Sequence,8_10,2023-11-20T17:31:45.180Z,,,,,,,,,,,3017.8910000476753,completion,,,,,,,high,high,,,,,,,false,,,,,true,367712,367711.2000000477,364676.675,364880.5,364693.309,367532.316,1,40,,
trial,html.Screen,8_11_0,2023-11-20T17:31:48.921Z,,,,2,0.0409338693593207,-0.0072462710499874,,0.05,true,ll,3921.384000047692,response,-1.0774704182387804,0.9447340402295985,-1.058803100824893,-1.0186619444121927,1.15,-1.108803100824893,low,low,,ISIC_3608788.JPG,,ISIC_0066564.JPG,33,29,false,0.1,ll,keypress(f),0,true,371453.89999997616,371453.7000000477,367515.531,367712.2999999523,367532.316,371272.708,1,40,12,
sequence,flow.Sequence,8_11,2023-11-20T17:31:48.922Z,,,,,,,,,,,3921.384000047692,completion,,,,,,,low,low,,,,,,,false,,,,,true,371454,371453.7000000477,367515.531,367712.10000002384,367532.316,371272.708,1,40,,
trial,html.Screen,8_12_0,2023-11-20T17:31:53.747Z,,,,2,0.000047919190197942736,0.0462652940855003,,0.05,false,hl,5006.591999952332,response,0.869932994914832,0.9447340402295985,-0.9980661813254865,-0.8880533324432531,1.15,-1.108803100824893,high,low,,ISIC_0011507.JPG,,ISIC_8617084.JPG,33,25,false,0.2300000000000001,lh,keypress(e),0,true,376279.60000002384,376279.2999999523,371255.939,371454,371272.708,376098.745,1,40,13,
sequence,flow.Sequence,8_12,2023-11-20T17:31:53.748Z,,,,,,,,,,,5006.591999952332,completion,,,,,,,high,low,,,,,,,false,,,,,true,376280.10000002384,376279.2999999523,371255.939,371454,371272.708,376098.745,1,40,,
trial,html.Screen,8_13_0,2023-11-20T17:32:01.186Z,,,,2,0.0362376068089956,0.047825070846155,,0.05,false,hl,7619.554999952321,response,1.0026266089287914,0.9947340402295985,-0.9980661813254865,-1.0913275913920335,1.15,-1.1588031008248931,high,low,,ISIC_6985114.JPG,,ISIC_0033520.JPG,33,25,false,0.2600000000000001,lh,keypress(e),0,true,383718.60000002384,383718.2999999523,376082.148,376280.39999997616,376098.745,383546.572,1,40,14,
sequence,flow.Sequence,8_13,2023-11-20T17:32:01.186Z,,,,,,,,,,,7619.554999952321,completion,,,,,,,high,low,,,,,,,false,,,,,true,383718.89999997616,383718.2999999523,376082.148,376280.2999999523,376098.745,383546.572,1,40,,
trial,html.Screen,8_14_0,2023-11-20T17:32:07.827Z,,,,2,0.0188047466661863,-0.0288346930436979,,0.05,false,hl,6812.727999952331,response,1.0143509683988825,1.0447340402295986,-0.9980661813254865,-1.3163955902021656,1.15,-1.1588031008248931,high,low,,ISIC_0014157.JPG,,ISIC_0062031.JPG,33,25,false,0.28000000000000014,ll,keypress(f),0,true,390359.7000000477,390359.2999999523,383513.361,383719.10000002384,383546.572,390176.165,1,40,15,
sequence,flow.Sequence,8_14,2023-11-20T17:32:07.828Z,,,,,,,,,,,6812.727999952331,completion,,,,,,,high,low,,,,,,,false,,,,,true,390360.2000000477,390359.2999999523,383513.361,383719,383546.572,390176.165,1,40,,
trial,html.Screen,8_15_0,2023-11-20T17:32:13.331Z,,,,2,0.0188047466661863,-0.0288346930436979,,0.05,false,ll,5686.835000000021,response,-1.0005520482328611,1.0947340402295986,-0.9980661813254865,-1.0694936015783003,1.15,-1.1588031008248931,low,low,,ISIC_0014157.JPG,,ISIC_0059891.JPG,33,26,false,0.1,hl,keypress(j),0,true,395863.39999997616,395863,390159.647,390360.39999997616,390176.165,395687.514,1,40,16,
sequence,flow.Sequence,8_15,2023-11-20T17:32:13.331Z,,,,,,,,,,,5686.835000000021,completion,,,,,,,low,low,,,,,,,false,,,,,true,395863.89999997616,395863,390159.647,390360.2999999523,390176.165,395687.514,1,40,,
trial,html.Screen,8_16_0,2023-11-20T17:32:16.538Z,,,,2,0.0097091270150747,-0.0417921315885292,,0.05,true,hh,3383.186000047659,response,1.2012395086389958,1.0947340402295986,-1.0480661813254866,1.0618985767073823,1.15,-1.142944595890233,high,high,,ISIC_3967213.JPG,,ISIC_9876004.JPG,33,30,false,0.13,hh,keypress(i),0,true,399070.89999997616,399070.7000000477,395653.694,395864.2000000477,395687.514,398893.136,1,40,17,
sequence,flow.Sequence,8_16,2023-11-20T17:32:16.539Z,,,,,,,,,,,3383.186000047659,completion,,,,,,,high,high,,,,,,,false,,,,,true,399071.2999999523,399070.7000000477,395653.694,395864.2000000477,395687.514,398893.136,1,40,,
trial,html.Screen,8_17_0,2023-11-20T17:32:20.939Z,,,,2,0.0097091270150747,-0.0417921315885292,,0.05,false,hl,4578.064000047685,response,0.9579209317488,1.0947340402295986,-1.0480661813254866,-1.0147487101263497,1.15,-1.142944595890233,high,low,,ISIC_3967213.JPG,,ISIC_8124482.JPG,33,25,false,0.29000000000000015,ll,keypress(f),0,true,403471.5,403471.2000000477,398876.664,399071.5,398893.136,403301.71,1,40,18,
sequence,flow.Sequence,8_17,2023-11-20T17:32:20.940Z,,,,,,,,,,,4578.064000047685,completion,,,,,,,high,low,,,,,,,false,,,,,true,403472.10000002384,403471.2000000477,398876.664,399071.39999997616,398893.136,403301.71,1,40,,
trial,html.Screen,8_18_0,2023-11-20T17:32:22.811Z,,,,2,0.0362376068089956,0.047825070846155,,0.05,false,lh,2041.289999999979,response,-0.7468996036626098,1.1447340402295987,-1.0480661813254866,0.8073835700282378,1.15,-1.142944595890233,low,high,,ISIC_6985114.JPG,,ISIC_5335139.JPG,33,27,false,0.3500000000000002,hh,keypress(i),0,true,405343.2999999523,405343,403268.388,403472.2000000477,403301.71,405172.025,1,40,19,
sequence,flow.Sequence,8_18,2023-11-20T17:32:22.811Z,,,,,,,,,,,2041.289999999979,completion,,,,,,,low,high,,,,,,,false,,,,,true,405343.7999999523,405343,403268.388,403472.2000000477,403301.71,405172.025,1,40,,
trial,html.Screen,8_19_0,2023-11-20T17:32:25.563Z,,,,2,0.013431314305098,-0.0140597582944232,,0.05,false,lh,2923.0750000238186,response,-0.7911024675435955,1.1447340402295987,-1.0980661813254866,0.7975977016137676,1.0999999999999999,-1.142944595890233,low,high,,ISIC_0069617.JPG,,ISIC_5813642.JPG,33,27,false,0.3200000000000002,hl,keypress(j),0,true,408095.39999997616,408095.10000002384,405138.852,405344.10000002384,405172.025,407927.375,1,40,20,
sequence,flow.Sequence,8_19,2023-11-20T17:32:25.563Z,,,,,,,,,,,2923.0750000238186,completion,,,,,,,low,high,,,,,,,false,,,,,true,408095.89999997616,408095.10000002384,405138.852,405344,405172.025,407927.375,1,40,,
trial,html.Screen,8_20_0,2023-11-20T17:32:29.619Z,,,,2,-0.0363437082783146,-0.0333332186217051,,0.05,false,lh,4223.625,response,-1.0213365328004047,1.1447340402295987,-1.1480661813254867,1.088524359911891,1.15,-1.142944595890233,low,high,,ISIC_3314555.JPG,,ISIC_5434229.JPG,33,27,false,0.3700000000000002,ll,keypress(f),0,true,412151.39999997616,412151,407894.155,408096.10000002384,407927.375,411968.631,1,40,21,
sequence,flow.Sequence,8_20,2023-11-20T17:32:29.620Z,,,,,,,,,,,4223.625,completion,,,,,,,low,high,,,,,,,false,,,,,true,412151.89999997616,412151,407894.155,408096.10000002384,407927.375,411968.631,1,40,,
trial,html.Screen,8_21_0,2023-11-20T17:32:32.324Z,,,,2,-0.0450282431170921,0,,0.05,true,hh,2886.6689999523223,response,1.0858641668099058,1.1447340402295987,-1.1480661813254867,1.1638942560200525,1.15,-1.142944595890233,high,high,,ISIC_1805163.JPG,,ISIC_5439597.JPG,33,30,false,0.13,hh,keypress(i),0,true,414855.7000000477,414855.2999999523,411952.112,412152.10000002384,411968.631,414707.241,1,40,22,
sequence,flow.Sequence,8_21,2023-11-20T17:32:32.324Z,,,,,,,,,,,2886.6689999523223,completion,,,,,,,high,high,,,,,,,false,,,,,true,414856.10000002384,414855.2999999523,411952.112,412152,411968.631,414707.241,1,40,,
trial,html.Screen,8_22_0,2023-11-20T17:32:35.835Z,,,,2,0.0113873532168551,0.0054999201556291,,0.05,false,lh,3659.75900000002,response,-1.0164576835546473,1.1447340402295987,-1.1480661813254867,0.8120626538423016,1.15,-1.142944595890233,low,high,,ISIC_8812621.JPG,,ISIC_6002694.JPG,33,27,false,0.3700000000000002,hh,keypress(i),0,true,418367.2999999523,418367,414657.374,414856.39999997616,414707.241,418180.674,1,40,23,
sequence,flow.Sequence,8_22,2023-11-20T17:32:35.836Z,,,,,,,,,,,3659.75900000002,completion,,,,,,,low,high,,,,,,,false,,,,,true,418367.7000000477,418367,414657.374,414856.2999999523,414707.241,418180.674,1,40,,
trial,html.Screen,8_23_0,2023-11-20T17:32:39.844Z,,,,2,-0.007397293189458,-0.0174716772037504,,0.05,false,lh,4194.826000000001,response,-1.1825604042275355,1.1447340402295987,-1.1980661813254867,0.6342857446646142,0.9379784549311769,-1.142944595890233,low,high,,ISIC_0056226.JPG,,ISIC_3067522.JPG,33,29,false,0.3200000000000002,hh,keypress(i),0,true,422375.89999997616,422375.5,418164.185,418368,418180.674,422188.481,1,40,24,
sequence,flow.Sequence,8_23,2023-11-20T17:32:39.844Z,,,,,,,,,,,4194.826000000001,completion,,,,,,,low,high,,,,,,,false,,,,,true,422376.39999997616,422375.5,418164.185,418367.89999997616,418180.674,422188.481,1,40,,
trial,html.Screen,8_24_0,2023-11-20T17:32:42.306Z,,,,2,-0.007397293189458,-0.0174716772037504,,0.05,true,hh,2649.518999999971,response,1.0878102877901663,1.1447340402295987,-1.1980661813254867,0.9483364581769096,0.9379784549311769,-1.142944595890233,high,high,,ISIC_0056226.JPG,,ISIC_1413242.JPG,33,31,false,0.1,hh,keypress(i),0,true,424838.10000002384,424838,422171.922,422376.60000002384,422188.481,424676.694,1,40,25,
sequence,flow.Sequence,8_24,2023-11-20T17:32:42.306Z,,,,,,,,,,,2649.518999999971,completion,,,,,,,high,high,,,,,,,false,,,,,true,424838.2999999523,424838,422171.922,422376.5,422188.481,424676.694,1,40,,
trial,html.Screen,8_25_0,2023-11-20T17:32:46.292Z,,,,2,0.0112310719058792,-0.0469047359904117,,0.05,false,lh,4146.406000023824,response,-1.2354666978812945,0.7413111014207618,-1.1980661813254867,0.5891070234033371,0.7413111014207618,-1.142944595890233,low,high,,ISIC_0068184.JPG,,ISIC_7935462.JPG,33,25,false,0.22000000000000008,ll,keypress(f),0,true,428823.39999997616,428823.10000002384,424659.956,424838.39999997616,424676.694,428634.357,1,40,26,
sequence,flow.Sequence,8_25,2023-11-20T17:32:46.292Z,,,,,,,,,,,4146.406000023824,completion,,,,,,,low,high,,,,,,,false,,,,,true,428823.89999997616,428823.10000002384,424659.956,424838.39999997616,424676.694,428634.357,1,40,,
trial,html.Screen,8_26_0,2023-11-20T17:32:51.354Z,,,,2,0.013431314305098,-0.0140597582944232,,0.05,false,hh,5251.843000047666,response,0.6994073698329565,0.7413111014207618,-1.1980661813254867,0.8075741539776473,0.7913111014207619,-1.142944595890233,high,high,,ISIC_0069617.JPG,,ISIC_3428523.JPG,33,69,false,0.1,lh,keypress(e),0,true,433886.39999997616,433886.2000000477,428617.774,428824.10000002384,428634.357,433710.874,1,40,27,
sequence,flow.Sequence,8_26,2023-11-20T17:32:51.355Z,,,,,,,,,,,5251.843000047666,completion,,,,,,,high,high,,,,,,,false,,,,,true,433886.60000002384,433886.2000000477,428617.774,428824.10000002384,428634.357,433710.874,1,40,,
trial,html.Screen,8_27_0,2023-11-20T17:32:54.851Z,,,,2,0.0188047466661863,-0.0288346930436979,,0.05,true,lh,3672.226000023831,response,-1.073191619565092,0.7913111014207619,-1.1980661813254867,0.6195550709150465,0.7913111014207619,-1.142944595890233,low,high,,ISIC_0014157.JPG,,ISIC_9386509.JPG,33,28,false,0.2500000000000001,lh,keypress(e),0,true,437383.39999997616,437383.10000002384,433677.578,433886.7999999523,433710.874,437201.032,1,40,28,
sequence,flow.Sequence,8_27,2023-11-20T17:32:54.852Z,,,,,,,,,,,3672.226000023831,completion,,,,,,,low,high,,,,,,,false,,,,,true,437383.89999997616,437383.10000002384,433677.578,433886.7000000477,433710.874,437201.032,1,40,,
trial,html.Screen,8_28_0,2023-11-20T17:32:58.620Z,,,,2,-0.0324770283903853,-0.0249968632204382,,0.05,true,hl,3950.2679999523098,response,0.8579451262594331,0.7913111014207619,-1.1480661813254867,-0.9633172970727744,0.6635646124463468,-1.142944595890233,high,low,,ISIC_7266462.JPG,,ISIC_0067172.JPG,33,27,false,0.19000000000000006,hl,keypress(j),0,true,441151.5,441151.2999999523,437184.553,437384.2000000477,437201.032,440975.97,1,40,29,
sequence,flow.Sequence,8_28,2023-11-20T17:32:58.620Z,,,,,,,,,,,3950.2679999523098,completion,,,,,,,high,low,,,,,,,false,,,,,true,441152.10000002384,441151.2999999523,437184.553,437384.10000002384,437201.032,440975.97,1,40,,
trial,html.Screen,8_29_0,2023-11-20T17:33:02.227Z,,,,2,-0.007397293189458,-0.0174716772037504,,0.05,true,hl,3782.929999976186,response,0.6956738789487171,0.7913111014207619,-1.1480661813254867,-0.9798803024739164,0.6635646124463468,-1.0929445958902329,high,low,,ISIC_0056226.JPG,,ISIC_0046340.JPG,33,27,false,0.17000000000000004,hl,keypress(j),0,true,444759.2000000477,444758.89999997616,440941.82,441152.2999999523,440975.97,444582.307,1,40,30,
sequence,flow.Sequence,8_29,2023-11-20T17:33:02.228Z,,,,,,,,,,,3782.929999976186,completion,,,,,,,high,low,,,,,,,false,,,,,true,444759.60000002384,444758.89999997616,440941.82,441152.2999999523,440975.97,444582.307,1,40,,
trial,html.Screen,8_30_0,2023-11-20T17:33:06.083Z,,,,2,-0.0057914759495055,-0.0074667911845194,,0.05,false,lh,4032.7930000238703,response,-1.0645919307156395,0.7413111014207618,-1.1480661813254867,0.7087706688259032,0.6635646124463468,-1.0929445958902329,low,high,,ISIC_0058723.JPG,,ISIC_0031575.JPG,33,25,false,0.17000000000000004,ll,keypress(f),0,true,448615.39999997616,448615.10000002384,444548.74,444759.89999997616,444582.307,448422.954,1,40,31,
sequence,flow.Sequence,8_30,2023-11-20T17:33:06.084Z,,,,,,,,,,,4032.7930000238703,completion,,,,,,,low,high,,,,,,,false,,,,,true,448615.89999997616,448615.10000002384,444548.74,444759.7999999523,444582.307,448422.954,1,40,,
trial,html.Screen,8_31_0,2023-11-20T17:33:08.436Z,,,,2,-0.0450282431170921,0,,0.05,true,ll,2544.2460000476567,response,-1.064818044116379,0.7413111014207618,-1.1480661813254867,-1.0146741178993408,0.7135646124463468,-1.0929445958902329,low,low,,ISIC_1805163.JPG,,ISIC_0032504.JPG,33,32,false,0.1,ll,keypress(f),0,true,450967.60000002384,450967.2000000477,448406.301,448616.10000002384,448422.954,450777.458,1,40,32,
sequence,flow.Sequence,8_31,2023-11-20T17:33:08.436Z,,,,,,,,,,,2544.2460000476567,completion,,,,,,,low,low,,,,,,,false,,,,,true,450968.10000002384,450967.2000000477,448406.301,448616.10000002384,448422.954,450777.458,1,40,,
trial,html.Screen,8_32_0,2023-11-20T17:33:10.731Z,,,,2,0.0348234368746005,-0.0236866303880924,,0.05,false,hl,2485.441999976174,response,0.8534691366511764,0.7413111014207618,-0.98963302430749,-1.03975580494588,0.7135646124463468,-0.98963302430749,high,low,,ISIC_0011099.JPG,,ISIC_0056788.JPG,33,27,false,0.15000000000000002,hh,keypress(i),0,true,453263.2999999523,453262.89999997616,450760.779,450968.2999999523,450777.458,453082.079,1,40,33,
sequence,flow.Sequence,8_32,2023-11-20T17:33:10.732Z,,,,,,,,,,,2485.441999976174,completion,,,,,,,high,low,,,,,,,false,,,,,true,453263.7999999523,453262.89999997616,450760.779,450968.2000000477,450777.458,453082.079,1,40,,
trial,html.Screen,8_33_0,2023-11-20T17:33:12.691Z,,,,2,0.0159061451859594,0.0296598845560212,,0.05,true,hh,2141.021000023815,response,0.6822049949893362,0.7413111014207618,-0.98963302430749,0.7191834407997161,0.7135646124463468,-1.03963302430749,high,high,,ISIC_0072564.JPG,,ISIC_7724764.JPG,33,86,false,0.1,hh,keypress(i),0,true,455223.2999999523,455223.10000002384,453065.434,453264,453082.079,455035.75,1,40,34,
sequence,flow.Sequence,8_33,2023-11-20T17:33:12.692Z,,,,,,,,,,,2141.021000023815,completion,,,,,,,high,high,,,,,,,false,,,,,true,455223.89999997616,455223.10000002384,453065.434,453263.89999997616,453082.079,455035.75,1,40,,
trial,html.Screen,8_34_0,2023-11-20T17:33:15.779Z,,,,2,0.0097091270150747,-0.0417921315885292,,0.05,false,ll,3275.149999976158,response,-1.0678895386758027,0.6506942178945261,-0.98963302430749,-1.0279759018569252,0.7135646124463468,-1.03963302430749,low,low,,ISIC_3967213.JPG,,ISIC_0069933.JPG,33,36,false,0.1,hh,keypress(i),0,true,458311.2999999523,458310.89999997616,455019.225,455224.10000002384,455035.75,458125.094,1,40,35,
sequence,flow.Sequence,8_34,2023-11-20T17:33:15.780Z,,,,,,,,,,,3275.149999976158,completion,,,,,,,low,low,,,,,,,false,,,,,true,458311.7999999523,458310.89999997616,455019.225,455224,455035.75,458125.094,1,40,,
trial,html.Screen,8_35_0,2023-11-20T17:33:19.387Z,,,,2,0.0245376145053177,-0.0436993426328401,,0.05,true,ll,3793.9060000000172,response,-1.0005520482328611,0.6506942178945261,-1.03963302430749,-1.0694936015783003,0.7135646124463468,-1.08963302430749,low,low,,ISIC_0056444.JPG,,ISIC_0059891.JPG,33,32,false,0.1,ll,keypress(f),0,true,461919.2999999523,461919,458108.638,458312,458125.094,461732.209,1,40,36,
sequence,flow.Sequence,8_35,2023-11-20T17:33:19.388Z,,,,,,,,,,,3793.9060000000172,completion,,,,,,,low,low,,,,,,,false,,,,,true,461919.89999997616,461919,458108.638,458311.89999997616,458125.094,461732.209,1,40,,
trial,html.Screen,8_36_0,2023-11-20T17:33:23.084Z,,,,2,-0.0450282431170921,0,,0.05,true,ll,3883.090999952343,response,-0.9777849718157332,0.6506942178945261,-1.03963302430749,-1.117811430082889,0.7135646124463468,-1.08963302430749,low,low,,ISIC_1805163.JPG,,ISIC_3256887.JPG,33,32,false,0.1,ll,keypress(f),0,true,465615.7000000477,465615.2999999523,461715.378,461920,461732.209,465439.725,1,40,37,
sequence,flow.Sequence,8_36,2023-11-20T17:33:23.084Z,,,,,,,,,,,3883.090999952343,completion,,,,,,,low,low,,,,,,,false,,,,,true,465616.2999999523,465615.2999999523,461715.378,461920,461732.209,465439.725,1,40,,
trial,html.Screen,8_37_0,2023-11-20T17:33:25.620Z,,,,2,-0.0389988030702649,-0.0143212271490256,,0.05,true,hh,2711.2750000000233,response,0.5696539931149143,0.6506942178945261,-1.0436525158305947,0.6541100664141384,0.7135646124463468,-1.0436525158305947,high,high,,ISIC_0064669.JPG,,ISIC_8791729.JPG,33,94,false,0.1,hh,keypress(i),0,true,468151.39999997616,468151,465406.032,465616.60000002384,465439.725,467960.909,1,40,38,
sequence,flow.Sequence,8_37,2023-11-20T17:33:25.620Z,,,,,,,,,,,2711.2750000000233,completion,,,,,,,high,high,,,,,,,false,,,,,true,468151.89999997616,468151,465406.032,465616.39999997616,465439.725,467960.909,1,40,,
trial,html.Screen,8_38_0,2023-11-20T17:33:29.060Z,,,,2,0.0188047466661863,-0.0288346930436979,,0.05,false,hl,3630.1910000238568,response,0.5946266402670454,0.6506942178945261,-1.0436525158305947,-1.0906221698932466,0.5618820297645263,-1.0436525158305947,high,low,,ISIC_0014157.JPG,,ISIC_0000072.JPG,33,27,false,0.15000000000000002,lh,keypress(e),0,true,471591.39999997616,471591.10000002384,467944.294,468152.2000000477,467960.909,471400.925,1,40,39,
sequence,flow.Sequence,8_38,2023-11-20T17:33:29.060Z,,,,,,,,,,,3630.1910000238568,completion,,,,,,,high,low,,,,,,,false,,,,,true,471592,471591.10000002384,467944.294,468152.2000000477,467960.909,471400.925,1,40,,
trial,html.Screen,8_39_0,2023-11-20T17:33:31.908Z,,,,2,-0.0107854985447517,-0.0478010417136109,,0.05,false,ll,3037.874999952328,response,-1.0678895386758027,0.7006942178945261,-1.0436525158305947,-1.0279759018569252,0.5618820297645263,-1.0936525158305948,low,low,,ISIC_0010500.JPG,,ISIC_0069933.JPG,33,32,false,0.1,hh,keypress(i),0,true,474439.10000002384,474438.7999999523,471384.44,471592.2999999523,471400.925,474256.483,1,40,40,
sequence,flow.Sequence,8_39,2023-11-20T17:33:31.908Z,,,,,,,,,,,3037.874999952328,completion,,,,,,,low,low,,,,,,,false,,,,,true,474439.60000002384,474438.7999999523,471384.44,471592.2000000477,471400.925,474256.483,1,40,,
stair_loop,flow.Loop,8,2023-11-20T17:33:31.908Z,,,,,,,,,,,143043.64199995232,completion,,,,,,,,,,,,,,,false,,,,,true,474439.7999999523,474438.7999999523,331361.945,331574,331395.158,474256.483,1,40,,
exp_instructions,html.Screen,9,2023-11-20T17:33:56.642Z,,,,,,,,,,,24916.91699997615,response,,,,,,,,,,,,,,,,,continue,keypress(Space),,,499173.7000000477,499173.39999997616,474240.047,474439.89999997616,474256.483,498987.97,,,,
trial,html.Screen,10_0_0,2023-11-20T17:34:01.226Z,,,,1,-0.0363437082783146,-0.0333332186217051,,0.05,true,lh,4769.429999976186,response,-1.2429840165564423,0.8249817710651002,-1.1102958422467537,0.7308963943423881,0.7879650199058583,-1.0997228909856012,low,high,,ISIC_3314555.JPG,8,ISIC_1264576.JPG,33,25,false,0.20000000000000007,lh,keypress(e),0,false,503757.5,503757.39999997616,498971,499173.89999997616,498987.97,503580.743,5,600,1,
break,html.Screen,10_0_1,2023-11-20T17:34:01.227Z,,,,,,,,,,,NaN,,,,,,,,low,high,,,,,,,false,,,,,false,503757.89999997616,503757.7999999523,,503757.60000002384,,503580.743,5,600,,
break_continue,html.Screen,10_0_2,2023-11-20T17:34:01.227Z,,,,,,,,,,,NaN,,,,,,,,low,high,,,,,,,false,,,,,false,503758.2000000477,503758.10000002384,,503758,,503580.743,5,600,,
sequence,flow.Sequence,10_0,2023-11-20T17:34:01.227Z,,,,,,,,,,,4770.13000002387,completion,,,,,,,low,high,,,,,,,false,,,,,false,503758.2999999523,503758.10000002384,498971,499173.89999997616,498987.97,503580.743,5,600,,
trial,html.Screen,10_1_0,2023-11-20T17:34:05.012Z,,,,1,0.000047919190197942736,0.0462652940855003,,0.05,false,lh,3962.2569999999832,response,-1.0748728054622358,0.8249817710651002,-1.1102958422467537,0.6883893701485907,0.7879650199058583,-1.0997228909856012,low,high,,ISIC_0011507.JPG,10,ISIC_0059219.JPG,33,25,false,0.20000000000000007,hl,keypress(j),0,false,507543.2999999523,507543,503547.042,503758.2999999523,503580.743,507354.264,5,600,2,
break,html.Screen,10_1_1,2023-11-20T17:34:05.013Z,,,,,,,,,,,NaN,,,,,,,,low,high,,,,,,,false,,,,,false,507544.7999999523,507544.2999999523,,507543.7999999523,,507354.264,5,600,,
break_continue,html.Screen,10_1_2,2023-11-20T17:34:05.014Z,,,,,,,,,,,NaN,,,,,,,,low,high,,,,,,,false,,,,,false,507545.7999999523,507545.5,,507545.10000002384,,507354.264,5,600,,
sequence,flow.Sequence,10_1,2023-11-20T17:34:05.015Z,,,,,,,,,,,3964.7569999999832,completion,,,,,,,low,high,,,,,,,false,,,,,false,507546.10000002384,507545.5,503547.042,503758.2999999523,503580.743,507354.264,5,600,,
trial,html.Screen,10_2_0,2023-11-20T17:34:08.429Z,,,,1,0.000047919190197942736,0.0462652940855003,,0.05,true,ll,3605.436000047659,response,-1.064818044116379,0.8249817710651002,-1.1102958422467537,-1.0146741178993408,0.7879650199058583,-1.0997228909856012,low,low,,ISIC_0011507.JPG,8,ISIC_0032504.JPG,33,31,false,0.1,ll,keypress(f),0,false,510960.10000002384,510959.7000000477,507337.692,507546.2999999523,507354.264,510777.658,5,600,3,
break,html.Screen,10_2_1,2023-11-20T17:34:08.430Z,,,,,,,,,,,NaN,,,,,,,,low,low,,,,,,,false,,,,,false,510961.2999999523,510961,,510960.5,,510777.658,5,600,,
break_continue,html.Screen,10_2_2,2023-11-20T17:34:08.431Z,,,,,,,,,,,NaN,,,,,,,,low,low,,,,,,,false,,,,,false,510962,510961.7000000477,,510961.5,,510777.658,5,600,,
sequence,flow.Sequence,10_2,2023-11-20T17:34:08.431Z,,,,,,,,,,,3607.436000047659,completion,,,,,,,low,low,,,,,,,false,,,,,false,510962.2999999523,510961.7000000477,507337.692,507546.2000000477,507354.264,510777.658,5,600,,
trial,html.Screen,10_3_0,2023-11-20T17:34:10.612Z,,,,1,0,0.0264544974620926,,0.05,true,hh,2365.1419999523205,response,0.8126460224857274,0.8249817710651002,-1.1102958422467537,0.7321020347557476,0.7879650199058583,-1.0997228909856012,high,high,,ISIC_0056991.JPG,9,ISIC_8719134.JPG,33,56,false,0.1,hh,keypress(i),0,false,513143.10000002384,513142.7999999523,510761.096,510962.2999999523,510777.658,512965.136,5,600,4,
break,html.Screen,10_3_1,2023-11-20T17:34:10.613Z,,,,,,,,,,,NaN,,,,,,,,high,high,,,,,,,false,,,,,false,513144.2999999523,513144,,513143.5,,512965.136,5,600,,
break_continue,html.Screen,10_3_2,2023-11-20T17:34:10.614Z,,,,,,,,,,,NaN,,,,,,,,high,high,,,,,,,false,,,,,false,513145.2000000477,513144.89999997616,,513144.60000002384,,512965.136,5,600,,
sequence,flow.Sequence,10_3,2023-11-20T17:34:10.614Z,,,,,,,,,,,2367.2419999761623,completion,,,,,,,high,high,,,,,,,false,,,,,false,513145.5,513144.89999997616,510761.096,510962.2999999523,510777.658,512965.136,5,600,,
trial,html.Screen,10_4_0,2023-11-20T17:34:13.804Z,,,,1,0.0277178575053843,-0.0395587463147856,,0.05,false,lh,3369.7639999761595,response,-1.0122398223568725,0.8249817710651002,-1.1102958422467537,0.7505228537454216,0.7879650199058583,-1.0997228909856012,low,high,,ISIC_0010807.JPG,9,ISIC_0033802.JPG,33,25,false,0.20000000000000007,ll,keypress(f),0,false,516335.2999999523,516334.89999997616,512948.588,513145.7000000477,512965.136,516154.896,5,600,5,
break,html.Screen,10_4_1,2023-11-20T17:34:13.805Z,,,,,,,,,,,NaN,,,,,,,,low,high,,,,,,,false,,,,,false,516336.2999999523,516336.10000002384,,516335.60000002384,,516154.896,5,600,,
break_continue,html.Screen,10_4_2,2023-11-20T17:34:13.806Z,,,,,,,,,,,NaN,,,,,,,,low,high,,,,,,,false,,,,,false,516337,516336.7999999523,,516336.5,,516154.896,5,600,,
sequence,flow.Sequence,10_4,2023-11-20T17:34:13.806Z,,,,,,,,,,,3371.6639999523177,completion,,,,,,,low,high,,,,,,,false,,,,,false,516337.2999999523,516336.7999999523,512948.588,513145.7000000477,512965.136,516154.896,5,600,,
trial,html.Screen,10_5_0,2023-11-20T17:34:17.340Z,,,,1,-0.0217698886732706,0.0410870915161425,,0.05,true,hh,3716.103999999992,response,0.9156713992395168,0.8249817710651002,-1.1102958422467537,0.7552260165227174,0.7879650199058583,-1.0997228909856012,high,high,,ISIC_0072173.JPG,9,ISIC_0732375.JPG,33,56,false,0.1,hh,keypress(i),0,false,519871.39999997616,519871,516138.262,516337.60000002384,516154.896,519678.333,5,600,6,
break,html.Screen,10_5_1,2023-11-20T17:34:17.341Z,,,,,,,,,,,NaN,,,,,,,,high,high,,,,,,,false,,,,,false,519872.60000002384,519872.2999999523,,519871.7999999523,,519678.333,5,600,,
break_continue,html.Screen,10_5_2,2023-11-20T17:34:17.342Z,,,,,,,,,,,NaN,,,,,,,,high,high,,,,,,,false,,,,,false,519873.2999999523,519873,,519872.7999999523,,519678.333,5,600,,
sequence,flow.Sequence,10_5,2023-11-20T17:34:17.342Z,,,,,,,,,,,3718.103999999992,completion,,,,,,,high,high,,,,,,,false,,,,,false,519873.60000002384,519873,516138.262,516337.5,516154.896,519678.333,5,600,,
trial,html.Screen,10_6_0,2023-11-20T17:34:20.268Z,,,,1,0.0097091270150747,-0.0417921315885292,,0.05,true,hh,3120.8670000476995,response,0.7549677203260853,0.8249817710651002,-1.1102958422467537,0.7875043010367262,0.7879650199058583,-1.0997228909856012,high,high,,ISIC_3967213.JPG,9,ISIC_7097665.JPG,33,56,false,0.1,hh,keypress(i),0,false,522799.60000002384,522799.2000000477,519661.665,519873.89999997616,519678.333,522617.251,5,600,7,
break,html.Screen,10_6_1,2023-11-20T17:34:20.270Z,,,,,,,,,,,NaN,,,,,,,,high,high,,,,,,,false,,,,,false,522801,522800.60000002384,,522800,,522617.251,5,600,,
break_continue,html.Screen,10_6_2,2023-11-20T17:34:20.271Z,,,,,,,,,,,NaN,,,,,,,,high,high,,,,,,,false,,,,,false,522801.7999999523,522801.60000002384,,522801.2999999523,,522617.251,5,600,,
sequence,flow.Sequence,10_6,2023-11-20T17:34:20.271Z,,,,,,,,,,,3123.2670000238577,completion,,,,,,,high,high,,,,,,,false,,,,,false,522802.2000000477,522801.60000002384,519661.665,519873.7999999523,519678.333,522617.251,5,600,,
trial,html.Screen,10_7_0,2023-11-20T17:34:22.964Z,,,,1,0.0097091270150747,-0.0417921315885292,,0.05,true,hl,2877.648999976169,response,0.8579451262594331,0.8249817710651002,-1.1102958422467537,-0.9633172970727744,0.7879650199058583,-1.0997228909856012,high,low,,ISIC_3967213.JPG,8,ISIC_0067172.JPG,33,26,false,0.18000000000000005,hl,keypress(j),0,false,525495.2999999523,525494.8999999762,522600.736,522802.5,522617.251,525305.864,5,600,8,
break,html.Screen,10_7_1,2023-11-20T17:34:22.965Z,,,,,,,,,,,NaN,,,,,,,,high,low,,,,,,,false,,,,,false,525496.5,525496.2000000477,,525495.7000000477,,525305.864,5,600,,
break_continue,html.Screen,10_7_2,2023-11-20T17:34:22.966Z,,,,,,,,,,,NaN,,,,,,,,high,low,,,,,,,false,,,,,false,525497.2000000477,525497,,525496.7999999523,,525305.864,5,600,,
sequence,flow.Sequence,10_7,2023-11-20T17:34:22.966Z,,,,,,,,,,,2879.7490000000107,completion,,,,,,,high,low,,,,,,,false,,,,,false,525497.6000000238,525497,522600.736,522802.39999997616,522617.251,525305.864,5,600,,
trial,html.Screen,10_8_0,2023-11-20T17:34:27.163Z,,,,1,-0.0057914759495055,-0.0074667911845194,,0.05,false,lh,4388.136000000057,response,-1.0115965332688306,0.8249817710651002,-1.1102958422467537,0.8282633603842442,0.7879650199058583,-1.0997228909856012,low,high,,ISIC_0058723.JPG,9,ISIC_1069587.JPG,33,25,false,0.20000000000000007,ll,keypress(f),0,false,529694.1000000238,529694,525289.405,525497.8999999762,525305.864,529514.13,5,600,9,
break,html.Screen,10_8_1,2023-11-20T17:34:27.163Z,,,,,,,,,,,NaN,,,,,,,,low,high,,,,,,,false,,,,,false,529694.5,529694.3999999762,,529694.2000000477,,529514.13,5,600,,
break_continue,html.Screen,10_8_2,2023-11-20T17:34:27.163Z,,,,,,,,,,,NaN,,,,,,,,low,high,,,,,,,false,,,,,false,529694.7000000477,529694.7000000477,,529694.5,,529514.13,5,600,,
sequence,flow.Sequence,10_8,2023-11-20T17:34:27.163Z,,,,,,,,,,,4388.8360000477405,completion,,,,,,,low,high,,,,,,,false,,,,,false,529694.7999999523,529694.7000000477,525289.405,525497.7999999523,525305.864,529514.13,5,600,,
trial,html.Screen,10_9_0,2023-11-20T17:34:29.501Z,,,,1,-0.0329095507339554,0.0382899749693245,,0.05,true,ll,2516.8699999999953,response,-1.2015106101917423,0.8249817710651002,-1.1102958422467537,-1.071085024260525,0.7879650199058583,-1.0997228909856012,low,low,,ISIC_8812781.JPG,9,ISIC_0072496.JPG,33,31,false,0.1,ll,keypress(f),0,false,532031.2000000477,532031,529497.612,529694.8999999762,529514.13,531851.92,5,600,10,
break,html.Screen,10_9_1,2023-11-20T17:34:29.502Z,,,,,,,,,,,NaN,,,,,,,,low,low,,,,,,,false,,,,,false,532032.5,532032.1000000238,,532031.6000000238,,531851.92,5,600,,
break_continue,html.Screen,10_9_2,2023-11-20T17:34:29.502Z,,,,,,,,,,,NaN,,,,,,,,low,low,,,,,,,false,,,,,false,532033.2000000477,532033,,532032.7000000477,,531851.92,5,600,,
sequence,flow.Sequence,10_9,2023-11-20T17:34:29.503Z,,,,,,,,,,,2518.8699999999953,completion,,,,,,,low,low,,,,,,,false,,,,,false,532033.5,532033,529497.612,529694.8999999762,529514.13,531851.92,5,600,,
trial,html.Screen,10_10_0,2023-11-20T17:34:33.637Z,,,,1,0.0097091270150747,-0.0417921315885292,,0.05,true,hl,4315.579999999958,response,0.8579451262594331,0.8249817710651002,-1.1102958422467537,-0.9633172970727744,0.7879650199058583,-1.0997228909856012,high,low,,ISIC_3967213.JPG,9,ISIC_0067172.JPG,33,26,false,0.18000000000000005,hl,keypress(j),0,false,536167.7000000477,536167.5,531835.491,532033.7999999523,531851.92,535976.638,5,600,11,
break,html.Screen,10_10_1,2023-11-20T17:34:33.638Z,,,,,,,,,,,NaN,,,,,,,,high,low,,,,,,,false,,,,,false,536169,536168.7000000477,,536168.1000000238,,535976.638,5,600,,
break_continue,html.Screen,10_10_2,2023-11-20T17:34:33.639Z,,,,,,,,,,,NaN,,,,,,,,high,low,,,,,,,false,,,,,false,536169.7999999523,536169.6000000238,,536169.2999999523,,535976.638,5,600,,
sequence,flow.Sequence,10_10,2023-11-20T17:34:33.639Z,,,,,,,,,,,4317.6800000238,completion,,,,,,,high,low,,,,,,,false,,,,,false,536170.1000000238,536169.6000000238,531835.491,532033.6000000238,531851.92,535976.638,5,600,,
trial,html.Screen,10_11_0,2023-11-20T17:34:36.797Z,,,,1,0.0348234368746005,-0.0236866303880924,,0.05,true,lh,3350.3619999999646,response,-1.0164576835546473,0.8249817710651002,-1.1102958422467537,0.8120626538423016,0.7879650199058583,-1.0997228909856012,low,high,,ISIC_0011099.JPG,9,ISIC_6002694.JPG,33,25,false,0.20000000000000007,lh,keypress(e),0,false,539327.2999999523,539327,535960.002,536170.3999999762,535976.638,539149.468,5,600,12,
break,html.Screen,10_11_1,2023-11-20T17:34:36.798Z,,,,,,,,,,,NaN,,,,,,,,low,high,,,,,,,false,,,,,false,539328.6000000238,539328.2999999523,,539327.7999999523,,539149.468,5,600,,
break_continue,html.Screen,10_11_2,2023-11-20T17:34:36.799Z,,,,,,,,,,,NaN,,,,,,,,low,high,,,,,,,false,,,,,false,539329.3999999762,539329.2000000477,,539328.7999999523,,539149.468,5,600,,
sequence,flow.Sequence,10_11,2023-11-20T17:34:36.799Z,,,,,,,,,,,3352.5620000476483,completion,,,,,,,low,high,,,,,,,false,,,,,false,539329.7000000477,539329.2000000477,535960.002,536170.2999999523,535976.638,539149.468,5,600,,
trial,html.Screen,10_12_0,2023-11-20T17:34:40.573Z,,,,1,-0.0450282431170921,0,,0.05,false,lh,3953.831999952323,response,-1.0115965332688306,0.8249817710651002,-1.1102958422467537,0.8282633603842442,0.7879650199058583,-1.0997228909856012,low,high,,ISIC_1805163.JPG,10,ISIC_1069587.JPG,33,25,false,0.20000000000000007,ll,keypress(f),0,false,543103.7000000477,543103.2999999523,539132.887,539329.8999999762,539149.468,542923.483,5,600,13,
break,html.Screen,10_12_1,2023-11-20T17:34:40.574Z,,,,,,,,,,,NaN,,,,,,,,low,high,,,,,,,false,,,,,false,543105,543104.7000000477,,543104.2000000477,,542923.483,5,600,,
break_continue,html.Screen,10_12_2,2023-11-20T17:34:40.575Z,,,,,,,,,,,NaN,,,,,,,,low,high,,,,,,,false,,,,,false,543105.7000000477,543105.3999999762,,543105.2000000477,,542923.483,5,600,,
sequence,flow.Sequence,10_12,2023-11-20T17:34:40.575Z,,,,,,,,,,,3955.9319999761647,completion,,,,,,,low,high,,,,,,,false,,,,,false,543106,543105.3999999762,539132.887,539329.8999999762,539149.468,542923.483,5,600,,
trial,html.Screen,10_13_0,2023-11-20T17:34:42.781Z,,,,1,0.0159061451859594,0.0296598845560212,,0.05,false,hl,2387.7170000476763,response,0.6970565704787165,0.8249817710651002,-1.1102958422467537,-1.189673590156875,0.7879650199058583,-1.0997228909856012,high,low,,ISIC_0072564.JPG,8,ISIC_0032522.JPG,33,26,false,0.18000000000000005,lh,keypress(e),0,false,545311.5,545311.2000000477,542906.947,543106.2000000477,542923.483,545127.778,5,600,14,
break,html.Screen,10_13_1,2023-11-20T17:34:42.782Z,,,,,,,,,,,NaN,,,,,,,,high,low,,,,,,,false,,,,,false,545312.6000000238,545312.3999999762,,545311.7999999523,,545127.778,5,600,,
break_continue,html.Screen,10_13_2,2023-11-20T17:34:42.783Z,,,,,,,,,,,NaN,,,,,,,,high,low,,,,,,,false,,,,,false,545313.3999999762,545313.2000000477,,545312.7999999523,,545127.778,5,600,,
sequence,flow.Sequence,10_13,2023-11-20T17:34:42.783Z,,,,,,,,,,,2389.7170000476763,completion,,,,,,,high,low,,,,,,,false,,,,,false,545313.7000000477,545313.2000000477,542906.947,543106.1000000238,542923.483,545127.778,5,600,,
trial,html.Screen,10_14_0,2023-11-20T17:34:45.789Z,,,,1,0.0188047466661863,-0.0288346930436979,,0.05,false,lh,3191.621999976109,response,-1.0164576835546473,0.8249817710651002,-1.1102958422467537,0.8120626538423016,0.7879650199058583,-1.0997228909856012,low,high,,ISIC_0014157.JPG,9,ISIC_6002694.JPG,33,25,false,0.20000000000000007,hh,keypress(i),0,false,548319.7000000477,548319.3999999762,545111.31,545313.8999999762,545127.778,548150.341,5,600,15,
break,html.Screen,10_14_1,2023-11-20T17:34:45.790Z,,,,,,,,,,,NaN,,,,,,,,low,high,,,,,,,false,,,,,false,548320.8999999762,548320.6000000238,,548320.1000000238,,548150.341,5,600,,
break_continue,html.Screen,10_14_2,2023-11-20T17:34:45.791Z,,,,,,,,,,,NaN,,,,,,,,low,high,,,,,,,false,,,,,false,548321.7000000477,548321.5,,548321.2000000477,,548150.341,5,600,,
sequence,flow.Sequence,10_14,2023-11-20T17:34:45.791Z,,,,,,,,,,,3193.7219999999506,completion,,,,,,,low,high,,,,,,,false,,,,,false,548322,548321.5,545111.31,545313.8999999762,545127.778,548150.341,5,600,,
trial,html.Screen,10_15_0,2023-11-20T17:34:49.035Z,,,,1,-0.0456515796420274,0.0273567130070961,,0.05,true,lh,3415.4589999523014,response,-1.0345332538240786,0.8249817710651002,-1.1102958422467537,0.6094883355551691,0.7879650199058583,-1.0997228909856012,low,high,,ISIC_0068610.JPG,8,ISIC_0192490.JPG,33,25,false,0.20000000000000007,lh,keypress(e),0,false,551565.8999999762,551565.7999999523,548117.18,548322.2000000477,548150.341,551373.281,5,600,16,
break,html.Screen,10_15_1,2023-11-20T17:34:49.036Z,,,,,,,,,,,NaN,,,,,,,,low,high,,,,,,,false,,,,,false,551566.2000000477,551566.2000000477,,551566,,551373.281,5,600,,
break_continue,html.Screen,10_15_2,2023-11-20T17:34:49.036Z,,,,,,,,,,,NaN,,,,,,,,low,high,,,,,,,false,,,,,false,551566.5,551566.5,,551566.2999999523,,551373.281,5,600,,
sequence,flow.Sequence,10_15,2023-11-20T17:34:49.036Z,,,,,,,,,,,3416.158999999985,completion,,,,,,,low,high,,,,,,,false,,,,,false,551566.5,551566.5,548117.18,548322.1000000238,548150.341,551373.281,5,600,,
trial,html.Screen,10_16_0,2023-11-20T17:34:51.028Z,,,,1,0,0.0264544974620926,,0.05,true,lh,2185.0189999523573,response,-1.073191619565092,0.8249817710651002,-1.1102958422467537,0.6195550709150465,0.7879650199058583,-1.0997228909856012,low,high,,ISIC_0056991.JPG,9,ISIC_9386509.JPG,33,25,false,0.20000000000000007,lh,keypress(e),0,false,553558.6000000238,553558.2999999523,551356.604,551566.5,551373.281,553393.852,5,600,17,
break,html.Screen,10_16_1,2023-11-20T17:34:51.029Z,,,,,,,,,,,NaN,,,,,,,,low,high,,,,,,,false,,,,,false,553559.2999999523,553559.1000000238,,553558.7999999523,,553393.852,5,600,,
break_continue,html.Screen,10_16_2,2023-11-20T17:34:51.029Z,,,,,,,,,,,NaN,,,,,,,,low,high,,,,,,,false,,,,,false,553559.7999999523,553559.6000000238,,553559.3999999762,,553393.852,5,600,,
sequence,flow.Sequence,10_16,2023-11-20T17:34:51.029Z,,,,,,,,,,,2186.319000023883,completion,,,,,,,low,high,,,,,,,false,,,,,false,553559.8999999762,553559.6000000238,551356.604,551566.5,551373.281,553393.852,5,600,,
trial,html.Screen,10_17_0,2023-11-20T17:34:53.004Z,,,,1,-0.0057914759495055,-0.0074667911845194,,0.05,false,lh,2140.7480000238866,response,-1.276222161935671,0.8249817710651002,-1.1102958422467537,0.9657780821973284,0.7879650199058583,-1.0997228909856012,low,high,,ISIC_0058723.JPG,9,ISIC_6710411.JPG,33,25,false,0.20000000000000007,hl,keypress(j),0,false,555535,555534.6000000238,553360.74,553560,553393.852,555364.399,5,600,18,
break,html.Screen,10_17_1,2023-11-20T17:34:53.005Z,,,,,,,,,,,NaN,,,,,,,,low,high,,,,,,,false,,,,,false,555536,555535.7999999523,,555535.3999999762,,555364.399,5,600,,
break_continue,html.Screen,10_17_2,2023-11-20T17:34:53.006Z,,,,,,,,,,,NaN,,,,,,,,low,high,,,,,,,false,,,,,false,555536.7000000477,555536.5,,555536.2000000477,,555364.399,5,600,,
sequence,flow.Sequence,10_17,2023-11-20T17:34:53.006Z,,,,,,,,,,,2142.6480000000447,completion,,,,,,,low,high,,,,,,,false,,,,,false,555537,555536.5,553360.74,553560,553393.852,555364.399,5,600,,
trial,html.Screen,10_18_0,2023-11-20T17:34:55.181Z,,,,1,0.0051189696037511,-0.0396625911332438,,0.05,false,hl,2346.9009999523405,response,0.8487429103619056,0.8249817710651002,-1.1102958422467537,-0.9778257804233036,0.7879650199058583,-1.0997228909856012,high,low,,ISIC_9742891.JPG,9,ISIC_4554863.JPG,33,26,false,0.18000000000000005,hh,keypress(i),0,false,557711.6000000238,557711.2999999523,555331.205,555537.2000000477,555364.399,557518.637,5,600,19,
break,html.Screen,10_18_1,2023-11-20T17:34:55.182Z,,,,,,,,,,,NaN,,,,,,,,high,low,,,,,,,false,,,,,false,557712.8999999762,557712.5,,557712,,557518.637,5,600,,
break_continue,html.Screen,10_18_2,2023-11-20T17:34:55.183Z,,,,,,,,,,,NaN,,,,,,,,high,low,,,,,,,false,,,,,false,557713.8999999762,557713.5,,557713.2000000477,,557518.637,5,600,,
sequence,flow.Sequence,10_18,2023-11-20T17:34:55.184Z,,,,,,,,,,,2349.101000000024,completion,,,,,,,high,low,,,,,,,false,,,,,false,557714.2999999523,557713.5,555331.205,555537.1000000238,555364.399,557518.637,5,600,,
trial,html.Screen,10_19_0,2023-11-20T17:34:57.219Z,,,,1,0.0134764727102299,0.0033499036460912,,0.05,true,ll,2231.063000047696,response,-1.1877026569952844,0.8249817710651002,-1.1102958422467537,-1.1604367569896263,0.7879650199058583,-1.0997228909856012,low,low,,ISIC_0009998.JPG,8,ISIC_0064589.JPG,33,31,false,0.1,ll,keypress(f),0,false,559749.7999999523,559749.7000000477,557502.034,557714.7000000477,557518.637,559572.903,5,600,20,
break,html.Screen,10_19_1,2023-11-20T17:34:57.219Z,,,,,,,,,,,NaN,,,,,,,,low,low,,,,,,,false,,,,,false,559750.2000000477,559750.1000000238,,559750,,559572.903,5,600,,
break_continue,html.Screen,10_19_2,2023-11-20T17:34:57.220Z,,,,,,,,,,,NaN,,,,,,,,low,low,,,,,,,false,,,,,false,559750.3999999762,559750.3999999762,,559750.2999999523,,559572.903,5,600,,
sequence,flow.Sequence,10_19,2023-11-20T17:34:57.220Z,,,,,,,,,,,2231.7629999761702,completion,,,,,,,low,low,,,,,,,false,,,,,false,559750.6000000238,559750.3999999762,557502.034,557714.6000000238,557518.637,559572.903,5,600,,
trial,html.Screen,10_20_0,2023-11-20T17:35:00.971Z,,,,1,0.0112310719058792,-0.0469047359904117,,0.05,false,lh,3928.6970000237925,response,-0.9873794329144926,0.8249817710651002,-1.1102958422467537,0.7991077882008257,0.7879650199058583,-1.0997228909856012,low,high,,ISIC_0068184.JPG,10,ISIC_0013498.JPG,33,25,false,0.20000000000000007,hh,keypress(i),0,false,563501.6000000238,563501.6000000238,559539.361,559750.7000000477,559572.903,563313.199,5,600,21,
break,html.Screen,10_20_1,2023-11-20T17:35:00.971Z,,,,,,,,,,,NaN,,,,,,,,low,high,,,,,,,false,,,,,false,563502,563501.8999999762,,563501.7999999523,,563313.199,5,600,,
break_continue,html.Screen,10_20_2,2023-11-20T17:35:00.971Z,,,,,,,,,,,NaN,,,,,,,,low,high,,,,,,,false,,,,,false,563502.2000000477,563502.1000000238,,563502.1000000238,,563313.199,5,600,,
sequence,flow.Sequence,10_20,2023-11-20T17:35:00.971Z,,,,,,,,,,,3929.1970000237925,completion,,,,,,,low,high,,,,,,,false,,,,,false,563502.2000000477,563502.1000000238,559539.361,559750.6000000238,559572.903,563313.199,5,600,,
trial,html.Screen,10_21_0,2023-11-20T17:35:04.005Z,,,,1,0.0134764727102299,0.0033499036460912,,0.05,false,hl,3221.8009999999776,response,1.0026266089287914,0.8249817710651002,-1.1102958422467537,-1.0913275913920335,0.7879650199058583,-1.0997228909856012,high,low,,ISIC_0009998.JPG,9,ISIC_0033520.JPG,33,26,false,0.18000000000000005,lh,keypress(e),0,false,566535.3999999762,566535,563296.49,563502.2999999523,563313.199,566352.426,5,600,22,
break,html.Screen,10_21_1,2023-11-20T17:35:04.006Z,,,,,,,,,,,NaN,,,,,,,,high,low,,,,,,,false,,,,,false,566536.3999999762,566536.2000000477,,566535.7000000477,,566352.426,5,600,,
break_continue,html.Screen,10_21_2,2023-11-20T17:35:04.006Z,,,,,,,,,,,NaN,,,,,,,,high,low,,,,,,,false,,,,,false,566537.1000000238,566536.8999999762,,566536.6000000238,,566352.426,5,600,,
sequence,flow.Sequence,10_21,2023-11-20T17:35:04.007Z,,,,,,,,,,,3223.700999976136,completion,,,,,,,high,low,,,,,,,false,,,,,false,566537.3999999762,566536.8999999762,563296.49,563502.2000000477,563313.199,566352.426,5,600,,
trial,html.Screen,10_22_0,2023-11-20T17:35:07.901Z,,,,1,0,0.0264544974620926,,0.05,false,hl,4079.3739999523386,response,0.7306047092126615,0.8249817710651002,-1.1102958422467537,-0.9725548307155644,0.7879650199058583,-1.0997228909856012,high,low,,ISIC_0056991.JPG,9,ISIC_0065469.JPG,33,26,false,0.18000000000000005,lh,keypress(e),0,false,570432.1000000238,570431.7999999523,566335.946,566537.6000000238,566352.426,570243.35,5,600,23,
break,html.Screen,10_22_1,2023-11-20T17:35:07.903Z,,,,,,,,,,,NaN,,,,,,,,high,low,,,,,,,false,,,,,false,570433.2999999523,570433,,570432.6000000238,,570243.35,5,600,,
break_continue,html.Screen,10_22_2,2023-11-20T17:35:07.903Z,,,,,,,,,,,NaN,,,,,,,,high,low,,,,,,,false,,,,,false,570434.1000000238,570433.7999999523,,570433.5,,570243.35,5,600,,
sequence,flow.Sequence,10_22,2023-11-20T17:35:07.904Z,,,,,,,,,,,4081.3739999523386,completion,,,,,,,high,low,,,,,,,false,,,,,false,570434.2999999523,570433.7999999523,566335.946,566537.5,566352.426,570243.35,5,600,,
trial,html.Screen,10_23_0,2023-11-20T17:35:12.333Z,,,,1,0.0102460616775615,-0.0309670599545429,,0.05,false,hh,4619.850000047707,response,0.871738172024263,0.8249817710651002,-1.1102958422467537,0.7713423219315299,0.7879650199058583,-1.0997228909856012,high,high,,ISIC_0072041.JPG,9,ISIC_0031680.JPG,33,56,false,0.1,hl,keypress(j),0,false,574863.5,574863.2000000477,570226.633,570434.5,570243.35,574702.017,5,600,24,
break,html.Screen,10_23_1,2023-11-20T17:35:12.334Z,,,,,,,,,,,NaN,,,,,,,,high,high,,,,,,,false,,,,,false,574864.7999999523,574864.3999999762,,574863.8999999762,,574702.017,5,600,,
break_continue,html.Screen,10_23_2,2023-11-20T17:35:12.335Z,,,,,,,,,,,NaN,,,,,,,,high,high,,,,,,,false,,,,,false,574865.6000000238,574865.2999999523,,574865,,574702.017,5,600,,
sequence,flow.Sequence,10_23,2023-11-20T17:35:12.335Z,,,,,,,,,,,4621.94999995234,completion,,,,,,,high,high,,,,,,,false,,,,,false,574865.8999999762,574865.2999999523,570226.633,570434.5,570243.35,574702.017,5,600,,
trial,html.Screen,10_24_0,2023-11-20T17:35:16.011Z,,,,1,0.0102460616775615,-0.0309670599545429,,0.05,false,lh,3839.7829999523237,response,-1.129574242324536,0.8249817710651002,-1.1102958422467537,0.613782231426747,0.7879650199058583,-1.0997228909856012,low,high,,ISIC_0072041.JPG,9,ISIC_0069210.JPG,33,25,false,0.20000000000000007,ll,keypress(f),0,false,578542.1000000238,578541.7999999523,574668.763,574866.1000000238,574702.017,578359.147,5,600,25,
break,html.Screen,10_24_1,2023-11-20T17:35:16.012Z,,,,,,,,,,,NaN,,,,,,,,low,high,,,,,,,false,,,,,false,578542.2999999523,578542.2999999523,,578542.1000000238,,578359.147,5,600,,
break_continue,html.Screen,10_24_2,2023-11-20T17:35:16.012Z,,,,,,,,,,,NaN,,,,,,,,low,high,,,,,,,false,,,,,false,578542.6000000238,578542.5,,578542.5,,578359.147,5,600,,
sequence,flow.Sequence,10_24,2023-11-20T17:35:16.012Z,,,,,,,,,,,3840.4830000000075,completion,,,,,,,low,high,,,,,,,false,,,,,false,578542.7000000477,578542.5,574668.763,574866.1000000238,574702.017,578359.147,5,600,,
trial,html.Screen,10_25_0,2023-11-20T17:35:18.789Z,,,,1,0.0112310719058792,-0.0469047359904117,,0.05,false,hl,2960.652999952319,response,0.8487429103619056,0.8249817710651002,-1.1102958422467537,-0.9778257804233036,0.7879650199058583,-1.0997228909856012,high,low,,ISIC_0068184.JPG,9,ISIC_4554863.JPG,33,26,false,0.18000000000000005,hh,keypress(i),0,false,581320.1000000238,581319.7999999523,578342.412,578542.7000000477,578359.147,581131.195,5,600,26,
break,html.Screen,10_25_1,2023-11-20T17:35:18.791Z,,,,,,,,,,,NaN,,,,,,,,high,low,,,,,,,false,,,,,false,581321.3999999762,581321,,581320.5,,581131.195,5,600,,
break_continue,html.Screen,10_25_2,2023-11-20T17:35:18.791Z,,,,,,,,,,,NaN,,,,,,,,high,low,,,,,,,false,,,,,false,581322.2000000477,581321.8999999762,,581321.7000000477,,581131.195,5,600,,
sequence,flow.Sequence,10_25,2023-11-20T17:35:18.792Z,,,,,,,,,,,2962.752999976161,completion,,,,,,,high,low,,,,,,,false,,,,,false,581322.3999999762,581321.8999999762,578342.412,578542.7000000477,578359.147,581131.195,5,600,,
trial,html.Screen,10_26_0,2023-11-20T17:35:21.693Z,,,,1,-0.039728379742806,0.0228701131373768,,0.05,false,hl,3092.1049999523675,response,0.9454713230140772,0.8249817710651002,-1.1102958422467537,-0.9245167441969216,0.7879650199058583,-1.0997228909856012,high,low,,ISIC_0054073.JPG,8,ISIC_9101055.JPG,33,26,false,0.18000000000000005,ll,keypress(f),0,false,584223.6000000238,584223.2999999523,581114.451,581322.6000000238,581131.195,584036.826,5,600,27,
break,html.Screen,10_26_1,2023-11-20T17:35:21.694Z,,,,,,,,,,,NaN,,,,,,,,high,low,,,,,,,false,,,,,false,584224.7999999523,584224.5,,584224,,584036.826,5,600,,
break_continue,html.Screen,10_26_2,2023-11-20T17:35:21.695Z,,,,,,,,,,,NaN,,,,,,,,high,low,,,,,,,false,,,,,false,584225.6000000238,584225.2999999523,,584225.1000000238,,584036.826,5,600,,
sequence,flow.Sequence,10_26,2023-11-20T17:35:21.695Z,,,,,,,,,,,3094.1049999523675,completion,,,,,,,high,low,,,,,,,false,,,,,false,584225.8999999762,584225.2999999523,581114.451,581322.6000000238,581131.195,584036.826,5,600,,
trial,html.Screen,10_27_0,2023-11-20T17:35:25.957Z,,,,1,-0.0363437082783146,-0.0333332186217051,,0.05,true,lh,4450.473999952315,response,-1.1825604042275355,0.8249817710651002,-1.1102958422467537,0.6342857446646142,0.7879650199058583,-1.0997228909856012,low,high,,ISIC_3314555.JPG,9,ISIC_3067522.JPG,33,25,false,0.20000000000000007,lh,keypress(e),0,false,588487.6000000238,588487.2999999523,584020.135,584226.2000000477,584036.826,588295.202,5,600,28,
break,html.Screen,10_27_1,2023-11-20T17:35:25.958Z,,,,,,,,,,,NaN,,,,,,,,low,high,,,,,,,false,,,,,false,588488.8999999762,588488.5,,588488.1000000238,,588295.202,5,600,,
break_continue,html.Screen,10_27_2,2023-11-20T17:35:25.959Z,,,,,,,,,,,NaN,,,,,,,,low,high,,,,,,,false,,,,,false,588489.7000000477,588489.3999999762,,588489.2000000477,,588295.202,5,600,,
sequence,flow.Sequence,10_27,2023-11-20T17:35:25.959Z,,,,,,,,,,,4452.573999976157,completion,,,,,,,low,high,,,,,,,false,,,,,false,588490,588489.3999999762,584020.135,584226.1000000238,584036.826,588295.202,5,600,,
trial,html.Screen,10_28_0,2023-11-20T17:35:28.733Z,,,,1,-0.0389988030702649,-0.0143212271490256,,0.05,true,ll,2968.097999952268,response,-1.0774704182387804,0.8249817710651002,-1.1102958422467537,-1.0186619444121927,0.7879650199058583,-1.0997228909856012,low,low,,ISIC_0064669.JPG,8,ISIC_0066564.JPG,33,31,false,0.1,ll,keypress(f),0,false,591263.7000000477,591263.2999999523,588278.577,588490.2999999523,588295.202,591083.922,5,600,29,
break,html.Screen,10_28_1,2023-11-20T17:35:28.734Z,,,,,,,,,,,NaN,,,,,,,,low,low,,,,,,,false,,,,,false,591264.8999999762,591264.5,,591264,,591083.922,5,600,,
break_continue,html.Screen,10_28_2,2023-11-20T17:35:28.735Z,,,,,,,,,,,NaN,,,,,,,,low,low,,,,,,,false,,,,,false,591265.7000000477,591265.3999999762,,591265.1000000238,,591083.922,5,600,,
sequence,flow.Sequence,10_28,2023-11-20T17:35:28.735Z,,,,,,,,,,,2970.1979999761097,completion,,,,,,,low,low,,,,,,,false,,,,,false,591266,591265.3999999762,588278.577,588490.2000000477,588295.202,591083.922,5,600,,
trial,html.Screen,10_29_0,2023-11-20T17:35:32.894Z,,,,1,0.0134764727102299,0.0033499036460912,,0.05,true,hh,4339.477999976138,response,0.8995154199215303,0.8249817710651002,-1.1102958422467537,0.8258046477520162,0.7879650199058583,-1.0997228909856012,high,high,,ISIC_0009998.JPG,9,ISIC_6345354.JPG,33,56,false,0.1,hh,keypress(i),0,false,595423.7999999523,595423.3999999762,591067.381,591266.2000000477,591083.922,595241.992,5,600,30,
break,html.Screen,10_29_1,2023-11-20T17:35:32.895Z,,,,,,,,,,,NaN,,,,,,,,high,high,,,,,,,false,,,,,false,595424.8999999762,595424.6000000238,,595424.1000000238,,595241.992,5,600,,
break_continue,html.Screen,10_29_2,2023-11-20T17:35:32.895Z,,,,,,,,,,,NaN,,,,,,,,high,high,,,,,,,false,,,,,false,595425.6000000238,595425.5,,595425.2000000477,,595241.992,5,600,,
sequence,flow.Sequence,10_29,2023-11-20T17:35:32.896Z,,,,,,,,,,,4341.5779999999795,completion,,,,,,,high,high,,,,,,,false,,,,,false,595426,595425.5,591067.381,591266.1000000238,591083.922,595241.992,5,600,,
trial,html.Screen,10_30_0,2023-11-20T17:35:35.932Z,,,,1,0,0.0264544974620926,,0.05,false,lh,3220.0080000000307,response,-1.129574242324536,0.8249817710651002,-1.1102958422467537,0.613782231426747,0.7879650199058583,-1.0997228909856012,low,high,,ISIC_0056991.JPG,9,ISIC_0069210.JPG,33,25,false,0.20000000000000007,ll,keypress(f),0,false,598462.2000000477,598462,595225.486,595426.2000000477,595241.992,598281.242,5,600,31,
break,html.Screen,10_30_1,2023-11-20T17:35:35.932Z,,,,,,,,,,,NaN,,,,,,,,low,high,,,,,,,false,,,,,false,598462.6000000238,598462.5,,598462.2999999523,,598281.242,5,600,,
break_continue,html.Screen,10_30_2,2023-11-20T17:35:35.933Z,,,,,,,,,,,NaN,,,,,,,,low,high,,,,,,,false,,,,,false,598462.7999999523,598462.7000000477,,598462.6000000238,,598281.242,5,600,,
sequence,flow.Sequence,10_30,2023-11-20T17:35:35.933Z,,,,,,,,,,,3220.7080000477144,completion,,,,,,,low,high,,,,,,,false,,,,,false,598462.8999999762,598462.7000000477,595225.486,595426.1000000238,595241.992,598281.242,5,600,,
trial,html.Screen,10_31_0,2023-11-20T17:35:40.078Z,,,,1,0.0277178575053843,-0.0395587463147856,,0.05,false,hl,4326.157999976189,response,0.6762618798182235,0.8249817710651002,-1.1102958422467537,-1.067875773627714,0.7879650199058583,-1.0997228909856012,high,low,,ISIC_0010807.JPG,10,ISIC_0000135.JPG,33,26,false,0.18000000000000005,hh,keypress(i),0,false,602607.7000000477,602607.3999999762,598264.749,598463,598281.242,602422.642,5,600,32,
break,html.Screen,10_31_1,2023-11-20T17:35:40.079Z,,,,,,,,,,,NaN,,,,,,,,high,low,,,,,,,false,,,,,false,602608.8999999762,602608.7000000477,,602608.1000000238,,602422.642,5,600,,
break_continue,html.Screen,10_31_2,2023-11-20T17:35:40.079Z,,,,,,,,,,,NaN,,,,,,,,high,low,,,,,,,false,,,,,false,602609.7000000477,602609.3999999762,,602609.2000000477,,602422.642,5,600,,
sequence,flow.Sequence,10_31,2023-11-20T17:35:40.080Z,,,,,,,,,,,4328.157999976189,completion,,,,,,,high,low,,,,,,,false,,,,,false,602610,602609.3999999762,598264.749,598463,598281.242,602422.642,5,600,,
trial,html.Screen,10_32_0,2023-11-20T17:35:42.572Z,,,,1,0.000047919190197942736,0.0462652940855003,,0.05,true,ll,2679.2579999761656,response,-1.0931477426281198,0.8249817710651002,-1.1102958422467537,-1.0028306951898116,0.7879650199058583,-1.0997228909856012,low,low,,ISIC_0011507.JPG,8,ISIC_0026531.JPG,33,31,false,0.1,ll,keypress(f),0,false,605102.1000000238,605101.8999999762,602406.186,602610.2000000477,602422.642,604910.817,5,600,33,
break,html.Screen,10_32_1,2023-11-20T17:35:42.572Z,,,,,,,,,,,NaN,,,,,,,,low,low,,,,,,,false,,,,,false,605102.3999999762,605102.2999999523,,605102.1000000238,,604910.817,5,600,,
break_continue,html.Screen,10_32_2,2023-11-20T17:35:42.572Z,,,,,,,,,,,NaN,,,,,,,,low,low,,,,,,,false,,,,,false,605102.6000000238,605102.6000000238,,605102.5,,604910.817,5,600,,
sequence,flow.Sequence,10_32,2023-11-20T17:35:42.572Z,,,,,,,,,,,2679.9580000238493,completion,,,,,,,low,low,,,,,,,false,,,,,false,605102.7000000477,605102.6000000238,602406.186,602610.2000000477,602422.642,604910.817,5,600,,
trial,html.Screen,10_33_0,2023-11-20T17:35:46.446Z,,,,1,-0.0324770283903853,-0.0249968632204382,,0.05,false,ll,4064.8830000476446,response,-1.0387488172228707,0.8249817710651002,-1.1102958422467537,-1.186629690487006,0.7879650199058583,-1.0997228909856012,low,low,,ISIC_7266462.JPG,9,ISIC_0015390.JPG,33,31,false,0.1,lh,keypress(e),0,false,608976.1000000238,608975.7000000477,604894.311,605102.7000000477,604910.817,608785.026,5,600,34,
break,html.Screen,10_33_1,2023-11-20T17:35:46.447Z,,,,,,,,,,,NaN,,,,,,,,low,low,,,,,,,false,,,,,false,608977.2999999523,608977,,608976.5,,608785.026,5,600,,
break_continue,html.Screen,10_33_2,2023-11-20T17:35:46.448Z,,,,,,,,,,,NaN,,,,,,,,low,low,,,,,,,false,,,,,false,608978.1000000238,608977.8999999762,,608977.5,,608785.026,5,600,,
sequence,flow.Sequence,10_33,2023-11-20T17:35:46.448Z,,,,,,,,,,,4067.082999976119,completion,,,,,,,low,low,,,,,,,false,,,,,false,608978.3999999762,608977.8999999762,604894.311,605102.7000000477,604910.817,608785.026,5,600,,
trial,html.Screen,10_34_0,2023-11-20T17:35:48.726Z,,,,1,-0.0050679133050021,0.0009714874637896,,0.05,true,ll,2470.4740000000456,response,-1.0651492409820618,0.8249817710651002,-1.1102958422467537,-1.1862499256725747,0.7879650199058583,-1.0997228909856012,low,low,,ISIC_9848743.JPG,8,ISIC_0065421.JPG,33,31,false,0.1,ll,keypress(f),0,false,611255.7999999523,611255.5,608768.498,608978.7000000477,608785.026,611072.815,5,600,35,
break,html.Screen,10_34_1,2023-11-20T17:35:48.727Z,,,,,,,,,,,NaN,,,,,,,,low,low,,,,,,,false,,,,,false,611257,611256.7999999523,,611256.2000000477,,611072.815,5,600,,
break_continue,html.Screen,10_34_2,2023-11-20T17:35:48.728Z,,,,,,,,,,,NaN,,,,,,,,low,low,,,,,,,false,,,,,false,611257.7999999523,611257.5,,611257.2000000477,,611072.815,5,600,,
sequence,flow.Sequence,10_34,2023-11-20T17:35:48.728Z,,,,,,,,,,,2472.4740000000456,completion,,,,,,,low,low,,,,,,,false,,,,,false,611258.1000000238,611257.5,608768.498,608978.6000000238,608785.026,611072.815,5,600,,
trial,html.Screen,10_35_0,2023-11-20T17:35:52.069Z,,,,1,0.013431314305098,-0.0140597582944232,,0.05,false,hl,3526.484999952372,response,0.7016683761932542,0.8249817710651002,-1.1102958422467537,-1.043794098855853,0.7879650199058583,-1.0997228909856012,high,low,,ISIC_0069617.JPG,9,ISIC_0033117.JPG,33,26,false,0.18000000000000005,hh,keypress(i),0,false,614599.7000000477,614599.2999999523,611056.285,611258.3999999762,611072.815,614412.644,5,600,36,
break,html.Screen,10_35_1,2023-11-20T17:35:52.071Z,,,,,,,,,,,NaN,,,,,,,,high,low,,,,,,,false,,,,,false,614600.8999999762,614600.6000000238,,614600,,614412.644,5,600,,
break_continue,html.Screen,10_35_2,2023-11-20T17:35:52.071Z,,,,,,,,,,,NaN,,,,,,,,high,low,,,,,,,false,,,,,false,614601.6000000238,614601.3999999762,,614601.1000000238,,614412.644,5,600,,
sequence,flow.Sequence,10_35,2023-11-20T17:35:52.072Z,,,,,,,,,,,3528.584999976214,completion,,,,,,,high,low,,,,,,,false,,,,,false,614602,614601.3999999762,611056.285,611258.2999999523,611072.815,614412.644,5,600,,
trial,html.Screen,10_36_0,2023-11-20T17:35:55.677Z,,,,1,-0.0456515796420274,0.0273567130070961,,0.05,true,hh,3794.655999952345,response,0.83641796815312,0.8249817710651002,-1.1102958422467537,0.6896038848182635,0.7879650199058583,-1.0997228909856012,high,high,,ISIC_0068610.JPG,9,ISIC_4132082.JPG,33,56,false,0.1,hh,keypress(i),0,false,618207.6000000238,618207.2999999523,614395.91,614602.1000000238,614412.644,618019.641,5,600,37,
break,html.Screen,10_36_1,2023-11-20T17:35:55.678Z,,,,,,,,,,,NaN,,,,,,,,high,high,,,,,,,false,,,,,false,618208.7000000477,618208.3999999762,,618207.8999999762,,618019.641,5,600,,
break_continue,html.Screen,10_36_2,2023-11-20T17:35:55.679Z,,,,,,,,,,,NaN,,,,,,,,high,high,,,,,,,false,,,,,false,618209.3999999762,618209.2000000477,,618209,,618019.641,5,600,,
sequence,flow.Sequence,10_36,2023-11-20T17:35:55.679Z,,,,,,,,,,,3796.5560000477126,completion,,,,,,,high,high,,,,,,,false,,,,,false,618209.7000000477,618209.2000000477,614395.91,614602.1000000238,614412.644,618019.641,5,600,,
trial,html.Screen,10_37_0,2023-11-20T17:35:58.974Z,,,,1,0.0188047466661863,-0.0288346930436979,,0.05,true,lh,3483.859000000055,response,-1.0469352660493296,0.8249817710651002,-1.1102958422467537,0.6175070748933676,0.7879650199058583,-1.0997228909856012,low,high,,ISIC_0014157.JPG,8,ISIC_1988335.JPG,33,25,false,0.20000000000000007,lh,keypress(e),0,false,621503.7999999523,621503.5,618003.202,618209.8999999762,618019.641,621343.047,5,600,38,
break,html.Screen,10_37_1,2023-11-20T17:35:58.975Z,,,,,,,,,,,NaN,,,,,,,,low,high,,,,,,,false,,,,,false,621504.8999999762,621504.6000000238,,621504.2000000477,,621343.047,5,600,,
break_continue,html.Screen,10_37_2,2023-11-20T17:35:58.975Z,,,,,,,,,,,NaN,,,,,,,,low,high,,,,,,,false,,,,,false,621505.6000000238,621505.3999999762,,621505.1000000238,,621343.047,5,600,,
sequence,flow.Sequence,10_37,2023-11-20T17:35:58.976Z,,,,,,,,,,,3485.758999976213,completion,,,,,,,low,high,,,,,,,false,,,,,false,621505.8999999762,621505.3999999762,618003.202,618209.7999999523,618019.641,621343.047,5,600,,
