sender,sender_type,sender_id,timestamp,meta,,age,blockNo,c1,c2,condition,control_tolerance,correct,correctResponse,duration,ended_on,f1,f1_high,f1_low,f2,f2_high,f2_low,feature_level1,feature_level2,gender,img_left,img_reveal,img_right,n_control_images,n_target_images,practice,range_tolerance,response,response_action,selection_duration,staircase,time_commit,time_end,time_render,time_run,time_show,time_switch,total_blocks,total_trials,trialNo,url
informed_consent,html.Screen,0,2023-11-27T19:39:51.685Z,"{""labjs_version"":""20.2.4"",""labjs_build"":{""flavor"":""development"",""commit"":""f5b4a49f956347addd546a832a3327688c2c0fef""},""location"":""https://labjs.felixhenninger.com/api/labjs_preview/index.html"",""userAgent"":""Mozilla/5.0 (Windows NT 10.0; Win64; x64) AppleWebKit/537.36 (KHTML, like Gecko) Chrome/119.0.0.0 Safari/537.36"",""platform"":""Win32"",""language"":""en-US"",""locale"":""en-US"",""timeZone"":""America/Chicago"",""timezoneOffset"":360,""screen_width"":1680,""screen_height"":1050,""scroll_width"":825,""scroll_height"":888,""window_innerWidth"":825,""window_innerHeight"":936,""devicePixelRatio"":1}",,,,,,,,,,33674.66100019073,response,,,,,,,,,,,,,,,,,consent,click button,,,34445.700000047684,34437.300000190735,745.929,738.7000000476837,762.639,34444.875,,,,{}
Demography form,html.Form,1,2023-11-27T19:40:00.271Z,,,19,,,,,,,,8586.925000190735,form submission,,,,,,,,,male,,,,,,,,,,,,43032,43031.800000190735,34428.43,34445.90000009537,34444.875,43028.199,,,,
Welcome,html.Screen,2,2023-11-27T19:40:15.262Z,,,,,,,"[""asym"",""col""]",,,,14993.201000095367,response,,,,,,,,,,,,,,,,,continue,click button,,,58021.90000009537,58021.40000009537,43011.525,43032.10000014305,43028.199,58024.105,,,,
demo_instructions,html.Screen,3,2023-11-27T19:40:54.054Z,,,,,,,,,,,38789.295000095364,response,,,,,,,,,,,,,,,,,continue,click button,,,96814,96813.40000009537,58007.688,58022.10000014305,58024.105,96816.284,,,,
trial,html.Screen,4_0_0,2023-11-27T19:41:11.524Z,,,,0,-1.2974483548597415,-1.2071506593281005,,,true,hh,17465.31600014305,response,1.1168199061753437,1.2,-1.2,1.212287319329914,1.2,-1.2,high,high,,ISIC_0011007.JPG,,ISIC_5919355.JPG,,25,true,0.15000000000000002,hh,keypress(i),100,false,114282.30000019073,114281.60000014305,96799.67,96814.10000014305,96816.284,114300.471,1,16,1,
sequence,flow.Sequence,4_0,2023-11-27T19:41:11.525Z,,,,,,,,,,,17465.31600014305,completion,,,,,,,high,high,,,,,,,true,,,,,false,114283.20000004768,114281.60000014305,96799.67,96814.10000014305,96816.284,114300.471,1,16,,
trial,html.Screen,4_1_0,2023-11-27T19:41:17.074Z,,,,0,-1.2974483548597415,-1.2071506593281005,,,true,hh,5531.629000143046,response,1.1305948371148624,1.2,-1.2,1.2802709447034604,1.2,-1.2,high,high,,ISIC_0011007.JPG,,ISIC_5648111.JPG,,25,true,0.15000000000000002,hh,keypress(i),100,false,119832.5,119832.10000014305,114283.685,114283.5,114300.471,119861.123,1,16,2,
sequence,flow.Sequence,4_1,2023-11-27T19:41:17.075Z,,,,,,,,,,,5531.629000143046,completion,,,,,,,high,high,,,,,,,true,,,,,false,119833.20000004768,119832.10000014305,114283.685,114283.30000019073,114300.471,119861.123,1,16,,
trial,html.Screen,4_2_0,2023-11-27T19:41:20.734Z,,,,0,-1.1715181192107684,-1.2251845559044463,,,true,hh,3630.577000047677,response,1.2200968917423711,1.2,-1.2,1.3183466064109373,1.2,-1.2,high,high,,ISIC_0011957.JPG,,ISIC_3624318.JPG,,25,true,0.15000000000000002,hh,keypress(i),100,false,123492.10000014305,123491.70000004768,119844.545,119833.70000004768,119861.123,123518.237,1,16,3,
sequence,flow.Sequence,4_2,2023-11-27T19:41:20.734Z,,,,,,,,,,,3630.577000047677,completion,,,,,,,high,high,,,,,,,true,,,,,false,123492.70000004768,123491.70000004768,119844.545,119833.60000014305,119861.123,123518.237,1,16,,
trial,html.Screen,4_3_0,2023-11-27T19:41:24.019Z,,,,0,-1.1671212908494544,-1.1286681796701683,,,true,hh,3258.563000190741,response,1.073296525451802,1.2,-1.2,1.3454282740421717,1.2,-1.2,high,high,,ISIC_0065022.JPG,,ISIC_5787312.JPG,,25,true,0.15000000000000002,hh,keypress(i),100,false,126777.20000004768,126776.80000019073,123501.641,123492.90000009537,123518.237,126808.223,1,16,4,
sequence,flow.Sequence,4_3,2023-11-27T19:41:24.019Z,,,,,,,,,,,3258.563000190741,completion,,,,,,,high,high,,,,,,,true,,,,,false,126777.60000014305,126776.80000019073,123501.641,123492.80000019073,123518.237,126808.223,1,16,,
trial,html.Screen,4_4_0,2023-11-27T19:41:34.022Z,,,,0,1.3471772753257971,1.055978100098093,,,true,ll,9971.67700009537,response,-1.2872758518949912,1.2,-1.2,-1.313723254903214,1.2,-1.2,low,low,,ISIC_2077116.JPG,,ISIC_0064376.JPG,,27,true,0.12,ll,keypress(f),100,false,136780.20000004768,136779.90000009537,126791.337,126777.80000019073,126808.223,136811.009,1,16,5,
sequence,flow.Sequence,4_4,2023-11-27T19:41:34.022Z,,,,,,,,,,,9971.67700009537,completion,,,,,,,low,low,,,,,,,true,,,,,false,136780.70000004768,136779.90000009537,126791.337,126777.80000019073,126808.223,136811.009,1,16,,
trial,html.Screen,4_5_0,2023-11-27T19:41:38.601Z,,,,0,1.3045229691102764,1.1781544075681951,,,true,ll,4548.191000047693,response,-1.0657476601009717,1.2,-1.2,-1.166572336354465,1.2,-1.2,low,low,,ISIC_6148533.JPG,,ISIC_0010778.JPG,,41,true,0.15000000000000002,ll,keypress(f),100,false,141359.60000014305,141359.20000004768,136794.147,136780.80000019073,136811.009,141386.362,1,16,6,
sequence,flow.Sequence,4_5,2023-11-27T19:41:38.602Z,,,,,,,,,,,4548.191000047693,completion,,,,,,,low,low,,,,,,,true,,,,,false,141360.10000014305,141359.20000004768,136794.147,136780.80000019073,136811.009,141386.362,1,16,,
trial,html.Screen,4_6_0,2023-11-27T19:41:44.771Z,,,,0,1.3045229691102764,1.1781544075681951,,,true,ll,6142.638000000006,response,-1.2055236989581275,1.2,-1.2,-1.1960893075698802,1.2,-1.2,low,low,,ISIC_6148533.JPG,,ISIC_0072393.JPG,,41,true,0.15000000000000002,ll,keypress(f),100,false,147529.40000009537,147529,141369.744,141360.20000004768,141386.362,147548.421,1,16,7,
sequence,flow.Sequence,4_6,2023-11-27T19:41:44.772Z,,,,,,,,,,,6142.638000000006,completion,,,,,,,low,low,,,,,,,true,,,,,false,147530,147529,141369.744,141360.20000004768,141386.362,147548.421,1,16,,
trial,html.Screen,4_7_0,2023-11-27T19:41:54.348Z,,,,0,1.1642596483638106,1.091507924157762,,,true,ll,9557.379000190733,response,-1.0570280672376675,1.2,-1.2,-1.0932046580095067,1.2,-1.2,low,low,,ISIC_0765584.JPG,,ISIC_0061320.JPG,,41,true,0.15000000000000002,ll,keypress(f),100,false,157106.20000004768,157105.80000019073,147531.768,147530.30000019073,147548.421,157133.706,1,16,8,
sequence,flow.Sequence,4_7,2023-11-27T19:41:54.348Z,,,,,,,,,,,9557.379000190733,completion,,,,,,,low,low,,,,,,,true,,,,,false,157106.90000009537,157105.80000019073,147531.768,147530.20000004768,147548.421,157133.706,1,16,,
trial,html.Screen,4_8_0,2023-11-27T19:42:04.804Z,,,,0,1.225025174430573,-0.8422679054456499,,,true,lh,10428.894000143046,response,-0.9873794329144926,1.2,-1.2,0.9500689037516484,1.2,-1.2,low,high,,ISIC_7503950.JPG,,ISIC_0013498.JPG,,26,true,0.3300000000000002,lh,keypress(e),100,false,167562.80000019073,167562.60000014305,157116.978,157107.10000014305,157133.706,167587.378,1,16,9,
sequence,flow.Sequence,4_8,2023-11-27T19:42:04.805Z,,,,,,,,,,,10428.894000143046,completion,,,,,,,low,high,,,,,,,true,,,,,false,167563.20000004768,167562.60000014305,157116.978,157107,157133.706,167587.378,1,16,,
trial,html.Screen,4_9_0,2023-11-27T19:42:14.973Z,,,,0,1.4748095371445096,-0.9579010801034902,,,true,lh,10143.222000143054,response,-1.055319394932912,1.2,-1.2,1.409116680310466,1.2,-1.2,low,high,,ISIC_0033216.JPG,,ISIC_6398669.JPG,,33,true,0.3600000000000002,lh,keypress(e),100,false,177731,177730.60000014305,167570.732,167563.40000009537,167587.378,177757.153,1,16,10,
sequence,flow.Sequence,4_9,2023-11-27T19:42:14.974Z,,,,,,,,,,,10143.222000143054,completion,,,,,,,low,high,,,,,,,true,,,,,false,177731.70000004768,177730.60000014305,167570.732,167563.40000009537,167587.378,177757.153,1,16,,
trial,html.Screen,4_10_0,2023-11-27T19:42:21.288Z,,,,0,1.11329866545753,-1.2155631217348757,,,true,lh,6287.94700014306,response,-1.2043484010107477,1.2,-1.2,1.2178113180138233,1.2,-1.2,low,high,,ISIC_0032610.JPG,,ISIC_0011917.JPG,,33,true,0.3600000000000002,lh,keypress(e),100,false,184045.5,184045.10000014305,177740.554,177731.90000009537,177757.153,184086.141,1,16,11,
sequence,flow.Sequence,4_10,2023-11-27T19:42:21.288Z,,,,,,,,,,,6287.94700014306,completion,,,,,,,low,high,,,,,,,true,,,,,false,184046,184045.10000014305,177740.554,177731.80000019073,177757.153,184086.141,1,16,,
trial,html.Screen,4_11_0,2023-11-27T19:42:28.995Z,,,,0,1.0003671514840182,-0.8992716557663581,,,true,lh,7666.659000190732,response,-0.9873794329144926,1.2,-1.2,0.9500689037516484,1.2,-1.2,low,high,,ISIC_0061749.JPG,,ISIC_0013498.JPG,,33,true,0.3600000000000002,lh,keypress(e),100,false,191753,191752.80000019073,184052.861,184046.20000004768,184086.141,191784.72,1,16,12,
sequence,flow.Sequence,4_11,2023-11-27T19:42:28.995Z,,,,,,,,,,,7666.659000190732,completion,,,,,,,low,high,,,,,,,true,,,,,false,191753.20000004768,191752.80000019073,184052.861,184046.20000004768,184086.141,191784.72,1,16,,
trial,html.Screen,4_12_0,2023-11-27T19:42:41.020Z,,,,0,-0.9225524349657857,0.929746784178986,,,true,hl,11992.680000095366,response,1.3559315773956395,1.2,-1.2,-0.924768326187701,1.2,-1.2,high,low,,ISIC_0011077.JPG,,ISIC_5101111.JPG,,29,true,0.3600000000000002,hl,keypress(j),100,false,203777.80000019073,203777.40000009537,191767.789,191753.30000019073,191784.72,203824.562,1,16,13,
sequence,flow.Sequence,4_12,2023-11-27T19:42:41.021Z,,,,,,,,,,,11992.680000095366,completion,,,,,,,high,low,,,,,,,true,,,,,false,203778.40000009537,203777.40000009537,191767.789,191753.20000004768,191784.72,203824.562,1,16,,
trial,html.Screen,4_13_0,2023-11-27T19:42:50.268Z,,,,0,-0.9225524349657857,0.929746784178986,,,true,hl,9201.138000047678,response,0.8779374983479176,1.2,-1.2,-0.9745548032823428,1.2,-1.2,high,low,,ISIC_0011077.JPG,,ISIC_2991354.JPG,,29,true,0.3600000000000002,hl,keypress(j),100,false,213026.20000004768,213025.70000004768,203791.249,203778.70000004768,203824.562,213059.214,1,16,14,
sequence,flow.Sequence,4_13,2023-11-27T19:42:50.269Z,,,,,,,,,,,9201.138000047678,completion,,,,,,,high,low,,,,,,,true,,,,,false,213026.80000019073,213025.70000004768,203791.249,203778.60000014305,203824.562,213059.214,1,16,,
trial,html.Screen,4_14_0,2023-11-27T19:42:57.581Z,,,,0,-0.9212323139676136,0.9882196642247332,,,true,hl,7279.586000190728,response,1.3559315773956395,1.2,-1.2,-0.924768326187701,1.2,-1.2,high,low,,ISIC_0014255.JPG,,ISIC_5101111.JPG,,29,true,0.3600000000000002,hl,keypress(j),100,false,220339.10000014305,220338.80000019073,213025.905,213027.10000014305,213059.214,220373.446,1,16,15,
sequence,flow.Sequence,4_14,2023-11-27T19:42:57.582Z,,,,,,,,,,,7279.586000190728,completion,,,,,,,high,low,,,,,,,true,,,,,false,220339.80000019073,220338.80000019073,213025.905,213027,213059.214,220373.446,1,16,,
trial,html.Screen,4_15_0,2023-11-27T19:43:02.889Z,,,,0,-1.1547137855907486,1.0185275168641534,,,true,hl,5272.454000095371,response,0.8494721812820843,1.2,-1.2,-1.3435429139974266,1.2,-1.2,high,low,,ISIC_7604870.JPG,,ISIC_0033585.JPG,,29,true,0.3600000000000002,hl,keypress(j),100,false,225646.40000009537,225645.90000009537,220340.169,220340,220373.446,225667.113,1,16,16,
sequence,flow.Sequence,4_15,2023-11-27T19:43:02.889Z,,,,,,,,,,,5272.454000095371,completion,,,,,,,high,low,,,,,,,true,,,,,false,225646.90000009537,225645.90000009537,220340.169,220339.90000009537,220373.446,225667.113,1,16,,
demonstration_loop,flow.Loop,4,2023-11-27T19:43:02.890Z,,,,,,,,,,,128829.61600009537,completion,,,,,,,,,,,,,,,true,,,,,false,225647.40000009537,225645.90000009537,96799.67,96814.10000014305,96816.284,225667.113,1,16,,
practice_instructions,html.Screen,5,2023-11-27T19:43:16.913Z,,,,,,,,,,,13994.386999999988,response,,,,,,,,,,,,,,,,,continue,click button,,,239669.80000019073,239661.5,225650.514,225647.60000014305,225667.113,239677.692,,,,
trial,html.Screen,6_0_0,2023-11-27T19:43:23.620Z,,,,1,-1.1894733304494307,-1.1169761866204877,,,true,hh,6698.108000190725,response,1.1363600109870835,1.2,-1.2,1.295816345369928,1.2,-1.2,high,high,,ISIC_0033813.JPG,,ISIC_0026141.JPG,,25,true,0.15000000000000002,hh,keypress(i),0,false,246376.30000019073,246375.80000019073,239661.199,239669.90000009537,239677.692,246407.445,1,40,1,
sequence,flow.Sequence,6_0,2023-11-27T19:43:23.621Z,,,,,,,,,,,6698.108000190725,completion,,,,,,,high,high,,,,,,,true,,,,,false,246376.90000009537,246375.80000019073,239661.199,239669.90000009537,239677.692,246407.445,1,40,,
trial,html.Screen,6_1_0,2023-11-27T19:43:39.634Z,,,,1,1.1224745971429997,-0.8423270217438888,,,,,16031.196999999986,timeout,-1.0700930503975157,1.2,-1.2,0.923753102263735,1.2,-1.2,low,high,,ISIC_0057032.JPG,,ISIC_0000022.JPG,,26,true,0.3300000000000002,,,0,false,262389.90000009537,262389.5,246390.758,246377.20000004768,246407.445,262438.642,1,40,2,
sequence,flow.Sequence,6_1,2023-11-27T19:43:39.634Z,,,,,,,,,,,15982.054999999993,completion,,,,,,,low,high,,,,,,,true,,,,,false,262390.40000009537,262389.5,246390.758,246377.10000014305,246407.445,262438.642,1,40,,
trial,html.Screen,6_2_0,2023-11-27T19:43:46.676Z,,,,1,1.2615315960773072,-1.194084675079932,,,false,lh,6992.858000000007,response,-0.9293545888449,1.2,-1.2,1.551750455622795,1.2,-1.2,low,high,,ISIC_0010044.JPG,,ISIC_7717907.JPG,,33,true,0.3600000000000002,hl,keypress(j),0,false,269431.90000009537,269431.5,262421.973,262390.7000000477,262438.642,269435.692,1,40,3,
sequence,flow.Sequence,6_2,2023-11-27T19:43:46.676Z,,,,,,,,,,,6992.858000000007,completion,,,,,,,low,high,,,,,,,true,,,,,false,269432.40000009537,269431.5,262421.973,262390.60000014305,262438.642,269435.692,1,40,,
trial,html.Screen,6_3_0,2023-11-27T19:43:51.355Z,,,,1,-1.1227373144244253,-1.1886610799377713,,,true,hh,4675.308000000019,response,0.8489509131309453,1.2,-1.2,1.2058016113145278,1.2,-1.2,high,high,,ISIC_0059506.JPG,,ISIC_6393611.JPG,,157,true,0.3600000000000002,hh,keypress(i),0,false,274111.30000019073,274111,269419.108,269432.7000000477,269435.692,274144.765,1,40,4,
sequence,flow.Sequence,6_3,2023-11-27T19:43:51.356Z,,,,,,,,,,,4675.308000000019,completion,,,,,,,high,high,,,,,,,true,,,,,false,274112,274111,269419.108,269432.5,269435.692,274144.765,1,40,,
trial,html.Screen,6_4_0,2023-11-27T19:43:55.795Z,,,,1,1.0003671514840182,-0.8992716557663581,,,true,lh,4406.335000143037,response,-1.1592423187534993,1.2,-1.2,1.067128884093211,1.2,-1.2,low,high,,ISIC_0061749.JPG,,ISIC_6854940.JPG,,26,true,0.3300000000000002,lh,keypress(e),0,false,278551.40000009537,278551.10000014305,274111.614,274112.30000019073,274144.765,278571.044,1,40,5,
sequence,flow.Sequence,6_4,2023-11-27T19:43:55.796Z,,,,,,,,,,,4406.335000143037,completion,,,,,,,low,high,,,,,,,true,,,,,false,278551.90000009537,278551.10000014305,274111.614,274112.2000000477,274144.765,278571.044,1,40,,
trial,html.Screen,6_5_0,2023-11-27T19:44:02.947Z,,,,1,-0.9212323139676136,0.9882196642247332,,,true,hl,7132.356000095373,response,1.1235224875125256,1.2,-1.2,-0.8641223012137988,1.2,-1.2,high,low,,ISIC_0014255.JPG,,ISIC_0033901.JPG,,29,true,0.3600000000000002,hl,keypress(j),0,false,285703.7000000477,285703.40000009537,278536.756,278552.2000000477,278571.044,285717.326,1,40,6,
sequence,flow.Sequence,6_5,2023-11-27T19:44:02.948Z,,,,,,,,,,,7132.356000095373,completion,,,,,,,high,low,,,,,,,true,,,,,false,285704.30000019073,285703.40000009537,278536.756,278552.2000000477,278571.044,285717.326,1,40,,
trial,html.Screen,6_6_0,2023-11-27T19:44:09.131Z,,,,1,1.1217390688497193,1.2276600934505035,,,true,ll,6169.173999999999,response,-0.9858885614273278,1.2,-1.2,-1.050716657084935,1.2,-1.2,low,low,,ISIC_0026344.JPG,,ISIC_0055498.JPG,,211,true,0.3300000000000002,ll,keypress(f),0,false,291886.7000000477,291886.5,285700.767,285704.5,285717.326,291896.003,1,40,7,
sequence,flow.Sequence,6_6,2023-11-27T19:44:09.131Z,,,,,,,,,,,6169.173999999999,completion,,,,,,,low,low,,,,,,,true,,,,,false,291887.10000014305,291886.5,285700.767,285704.5,285717.326,291896.003,1,40,,
trial,html.Screen,6_7_0,2023-11-27T19:44:13.147Z,,,,1,-1.2435042401134029,-1.2939710463315144,,,true,hh,4007.097000143025,response,1.1604734171556077,1.2,-1.2,1.0789312625280616,1.2,-1.2,high,high,,ISIC_0056119.JPG,,ISIC_3950753.JPG,,25,true,0.15000000000000002,hh,keypress(i),0,false,295903.30000019073,295903.10000014305,291879.397,291887.30000019073,291896.003,295920.49,1,40,8,
sequence,flow.Sequence,6_7,2023-11-27T19:44:13.148Z,,,,,,,,,,,4007.097000143025,completion,,,,,,,high,high,,,,,,,true,,,,,false,295903.80000019073,295903.10000014305,291879.397,291887.2000000477,291896.003,295920.49,1,40,,
trial,html.Screen,6_8_0,2023-11-27T19:44:19.429Z,,,,1,1.1363600109870835,1.295816345369928,,,true,ll,6262.6100001430605,response,-1.1715181192107684,1.2,-1.2,-1.2251845559044463,1.2,-1.2,low,low,,ISIC_0026141.JPG,,ISIC_0011957.JPG,,27,true,0.12,ll,keypress(f),0,false,302183.5,302183.10000014305,295903.729,295904.2000000477,295920.49,302216.09,1,40,9,
sequence,flow.Sequence,6_8,2023-11-27T19:44:19.430Z,,,,,,,,,,,6262.6100001430605,completion,,,,,,,low,low,,,,,,,true,,,,,false,302184,302183.10000014305,295903.729,295904.10000014305,295920.49,302216.09,1,40,,
trial,html.Screen,6_9_0,2023-11-27T19:44:25.957Z,,,,1,-0.9046170303418553,1.0063426986460375,,,false,hl,6495.110000047658,response,0.9013888878932071,1.2,-1.2,-0.9328095253308732,1.2,-1.2,high,low,,ISIC_0055759.JPG,,ISIC_0068259.JPG,,29,true,0.3600000000000002,hh,keypress(i),0,false,308711.5,308711.2000000477,302182.745,302184.30000019073,302216.09,308728.941,1,40,10,
sequence,flow.Sequence,6_9,2023-11-27T19:44:25.958Z,,,,,,,,,,,6495.110000047658,completion,,,,,,,high,low,,,,,,,true,,,,,false,308712,308711.2000000477,302182.745,302184.2000000477,302216.09,308728.941,1,40,,
trial,html.Screen,6_10_0,2023-11-27T19:44:29.613Z,,,,1,-1.2289750544294995,-1.3003764624334877,,,true,hh,3638.1590001430595,response,1.2965630265970134,1.2,-1.2,0.8791441061179197,1.2,-1.2,high,high,,ISIC_0054167.JPG,,ISIC_0004455.JPG,,127,true,0.3300000000000002,hh,keypress(i),0,false,312367.40000009537,312367.10000014305,308712.136,308712.2000000477,308728.941,312387.052,1,40,11,
sequence,flow.Sequence,6_10,2023-11-27T19:44:29.613Z,,,,,,,,,,,3638.1590001430595,completion,,,,,,,high,high,,,,,,,true,,,,,false,312368,312367.10000014305,308712.136,308712.2000000477,308728.941,312387.052,1,40,,
trial,html.Screen,6_11_0,2023-11-27T19:44:34.725Z,,,,1,1.1217390688497193,1.2276600934505035,,,true,ll,5091.947999999975,response,-1.2055236989581275,1.2,-1.2,-1.1960893075698802,1.2,-1.2,low,low,,ISIC_0026344.JPG,,ISIC_0072393.JPG,,27,true,0.12,ll,keypress(f),0,false,317479.40000009537,317479,312352.571,312368.2000000477,312387.052,317512.523,1,40,12,
sequence,flow.Sequence,6_11,2023-11-27T19:44:34.725Z,,,,,,,,,,,5091.947999999975,completion,,,,,,,low,low,,,,,,,true,,,,,false,317479.90000009537,317479,312352.571,312368.2000000477,312387.052,317512.523,1,40,,
trial,html.Screen,6_12_0,2023-11-27T19:44:41.877Z,,,,1,0.9445114955578736,-1.0054210059625863,,,true,lh,7118.577000143065,response,-0.9448560599810628,1.2,-1.2,0.9099421612683488,1.2,-1.2,low,high,,ISIC_0033807.JPG,,ISIC_9684318.JPG,,26,true,0.3300000000000002,lh,keypress(e),0,false,324631.40000009537,324631.10000014305,317479.308,317480.30000019073,317512.523,324643.073,1,40,13,
sequence,flow.Sequence,6_12,2023-11-27T19:44:41.877Z,,,,,,,,,,,7118.577000143065,completion,,,,,,,low,high,,,,,,,true,,,,,false,324631.90000009537,324631.10000014305,317479.308,317480.2000000477,317512.523,324643.073,1,40,,
trial,html.Screen,6_13_0,2023-11-27T19:44:47.525Z,,,,1,-1.0961318727760048,1.2134960228256146,,,false,hl,5636.127000047709,response,0.9385447468573198,1.2,-1.2,-1.2289860846064424,1.2,-1.2,high,low,,ISIC_9768421.JPG,,ISIC_0032780.JPG,,29,true,0.3600000000000002,hh,keypress(i),0,false,330279.5,330279.2000000477,324626.428,324632.2000000477,324643.073,330304.081,1,40,14,
sequence,flow.Sequence,6_13,2023-11-27T19:44:47.526Z,,,,,,,,,,,5636.127000047709,completion,,,,,,,high,low,,,,,,,true,,,,,false,330280,330279.2000000477,324626.428,324632.2000000477,324643.073,330304.081,1,40,,
trial,html.Screen,6_14_0,2023-11-27T19:44:51.989Z,,,,1,-0.9212323139676136,0.9882196642247332,,,false,hl,4439.519000143046,response,1.0003671514840182,1.2,-1.2,-0.8992716557663581,1.2,-1.2,high,low,,ISIC_0014255.JPG,,ISIC_0061749.JPG,,29,true,0.3600000000000002,ll,keypress(f),0,false,334743.90000009537,334743.60000014305,330270.892,330280.30000019073,330304.081,334764.046,1,40,15,
sequence,flow.Sequence,6_14,2023-11-27T19:44:51.990Z,,,,,,,,,,,4439.519000143046,completion,,,,,,,high,low,,,,,,,true,,,,,false,334744.40000009537,334743.60000014305,330270.892,330280.2000000477,330304.081,334764.046,1,40,,
trial,html.Screen,6_15_0,2023-11-27T19:45:00.749Z,,,,1,-1.1547137855907486,1.0185275168641534,,,true,hl,8739.15400004771,response,1.3559315773956395,1.2,-1.2,-0.924768326187701,1.2,-1.2,high,low,,ISIC_7604870.JPG,,ISIC_5101111.JPG,,29,true,0.3600000000000002,hl,keypress(j),0,false,343503.5,343503.2000000477,334729.48,334744.7000000477,334764.046,343513.141,1,40,16,
sequence,flow.Sequence,6_15,2023-11-27T19:45:00.749Z,,,,,,,,,,,8739.15400004771,completion,,,,,,,high,low,,,,,,,true,,,,,false,343504,343503.2000000477,334729.48,334744.60000014305,334764.046,343513.141,1,40,,
trial,html.Screen,6_16_0,2023-11-27T19:45:08.333Z,,,,1,1.1642596483638106,1.091507924157762,,,true,ll,7574.358999999997,response,-0.892888705264033,1.2,-1.2,-1.1616901486941038,1.2,-1.2,low,low,,ISIC_0765584.JPG,,ISIC_0066101.JPG,,211,true,0.3300000000000002,ll,keypress(f),0,false,351087.80000019073,351087.5,343496.615,343504.2000000477,343513.141,351094.563,1,40,17,
sequence,flow.Sequence,6_16,2023-11-27T19:45:08.334Z,,,,,,,,,,,7574.358999999997,completion,,,,,,,low,low,,,,,,,true,,,,,false,351088.30000019073,351087.5,343496.615,343504.10000014305,343513.141,351094.563,1,40,,
trial,html.Screen,6_17_0,2023-11-27T19:45:12.053Z,,,,1,-1.2055236989581275,-1.1960893075698802,,,true,hh,3712.63700004766,response,1.0959058628476686,1.2,-1.2,1.2921331918483707,1.2,-1.2,high,high,,ISIC_0072393.JPG,,ISIC_5920470.JPG,,25,true,0.15000000000000002,hh,keypress(i),0,false,354807.5,354807.2000000477,351077.948,351088.60000014305,351094.563,354835.168,1,40,18,
sequence,flow.Sequence,6_17,2023-11-27T19:45:12.054Z,,,,,,,,,,,3712.63700004766,completion,,,,,,,high,high,,,,,,,true,,,,,false,354808,354807.2000000477,351077.948,351088.60000014305,351094.563,354835.168,1,40,,
trial,html.Screen,6_18_0,2023-11-27T19:45:16.342Z,,,,1,-1.2043484010107477,1.2178113180138233,,,false,hl,4259.63200019073,response,0.8494721812820843,1.2,-1.2,-1.3435429139974266,1.2,-1.2,high,low,,ISIC_0011917.JPG,,ISIC_0033585.JPG,,29,true,0.3600000000000002,hh,keypress(i),0,false,359095.10000014305,359094.80000019073,354801.859,354808.30000019073,354835.168,359110.324,1,40,19,
sequence,flow.Sequence,6_18,2023-11-27T19:45:16.342Z,,,,,,,,,,,4259.63200019073,completion,,,,,,,high,low,,,,,,,true,,,,,false,359095.60000014305,359094.80000019073,354801.859,354808.2000000477,354835.168,359110.324,1,40,,
trial,html.Screen,6_19_0,2023-11-27T19:45:19.839Z,,,,1,-1.2315945866020412,-1.13226141421557,,,true,hh,3481.076000095345,response,1.527180138517639,1.2,-1.2,1.3543995271489262,1.2,-1.2,high,high,,ISIC_0033595.JPG,,ISIC_3190566.JPG,,127,true,0.3300000000000002,hh,keypress(i),0,false,362591.80000019073,362591.40000009537,359093.675,359095.90000009537,359110.324,362616.966,1,40,20,
sequence,flow.Sequence,6_19,2023-11-27T19:45:19.839Z,,,,,,,,,,,3481.076000095345,completion,,,,,,,high,high,,,,,,,true,,,,,false,362592.30000019073,362591.40000009537,359093.675,359095.80000019073,359110.324,362616.966,1,40,,
trial,html.Screen,6_20_0,2023-11-27T19:45:26.413Z,,,,1,1.4748095371445096,-0.9579010801034902,,,true,lh,6548.734000047669,response,-1.052305774554686,1.2,-1.2,1.3940181224717798,1.2,-1.2,low,high,,ISIC_0033216.JPG,,ISIC_4175400.JPG,,26,true,0.3300000000000002,lh,keypress(e),0,false,369165.80000019073,369165.7000000477,362583.807,362592.5,362616.966,369196.454,1,40,21,
sequence,flow.Sequence,6_20,2023-11-27T19:45:26.413Z,,,,,,,,,,,6548.734000047669,completion,,,,,,,low,high,,,,,,,true,,,,,false,369166,369165.7000000477,362583.807,362592.40000009537,362616.966,369196.454,1,40,,
trial,html.Screen,6_21_0,2023-11-27T19:45:34.015Z,,,,1,1.0143509683988825,-1.0281980567462463,,,true,lh,7571.045999999973,response,-0.8407642478899736,1.2,-1.2,0.9542322753334054,1.2,-1.2,low,high,,ISIC_0062031.JPG,,ISIC_9090822.JPG,,33,true,0.3600000000000002,lh,keypress(e),0,false,376767.80000019073,376767.5,369163.124,369166,369196.454,376777.846,1,40,22,
sequence,flow.Sequence,6_21,2023-11-27T19:45:34.015Z,,,,,,,,,,,7571.045999999973,completion,,,,,,,low,high,,,,,,,true,,,,,false,376768.30000019073,376767.5,369163.124,369166,369196.454,376777.846,1,40,,
trial,html.Screen,6_22_0,2023-11-27T19:45:38.726Z,,,,1,-1.1671212908494544,-1.1286681796701683,,,true,hh,4701.354000047664,response,0.9991910338212396,1.2,-1.2,1.0085499824556403,1.2,-1.2,high,high,,ISIC_0065022.JPG,,ISIC_7795549.JPG,,157,true,0.3600000000000002,hh,keypress(i),0,false,381479.5,381479.2000000477,376761.14,376768.40000009537,376777.846,381487.054,1,40,23,
sequence,flow.Sequence,6_22,2023-11-27T19:45:38.727Z,,,,,,,,,,,4701.354000047664,completion,,,,,,,high,high,,,,,,,true,,,,,false,381480,381479.2000000477,376761.14,376768.40000009537,376777.846,381487.054,1,40,,
trial,html.Screen,6_23_0,2023-11-27T19:45:43.774Z,,,,1,1.1168199061753437,1.212287319329914,,,true,ll,5040.14600004768,response,-1.1126049058422398,1.2,-1.2,-1.2305421124063929,1.2,-1.2,low,low,,ISIC_5919355.JPG,,ISIC_0071536.JPG,,27,true,0.12,ll,keypress(f),0,false,386527.60000014305,386527.2000000477,381470.559,381480.40000009537,381487.054,386546.943,1,40,24,
sequence,flow.Sequence,6_23,2023-11-27T19:45:43.775Z,,,,,,,,,,,5040.14600004768,completion,,,,,,,low,low,,,,,,,true,,,,,false,386528.10000014305,386527.2000000477,381470.559,381480.2000000477,381487.054,386546.943,1,40,,
trial,html.Screen,6_24_0,2023-11-27T19:45:49.022Z,,,,1,1.0581281450494728,1.133169116569424,,,true,ll,5228.257000047655,response,-1.189469386514313,1.2,-1.2,-1.3008582067137853,1.2,-1.2,low,low,,ISIC_5490352.JPG,,ISIC_0010644.JPG,,41,true,0.15000000000000002,ll,keypress(f),0,false,391775.5,391775.2000000477,386513.587,386528.5,386546.943,391790.445,1,40,25,
sequence,flow.Sequence,6_24,2023-11-27T19:45:49.023Z,,,,,,,,,,,5228.257000047655,completion,,,,,,,low,low,,,,,,,true,,,,,false,391776,391775.2000000477,386513.587,386528.40000009537,386546.943,391790.445,1,40,,
trial,html.Screen,6_25_0,2023-11-27T19:45:52.502Z,,,,1,-1.1227373144244253,-1.1886610799377713,,,true,hh,3464.7550000476767,response,1.3045229691102764,1.2,-1.2,1.1781544075681951,1.2,-1.2,high,high,,ISIC_0059506.JPG,,ISIC_6148533.JPG,,25,true,0.15000000000000002,hh,keypress(i),0,false,395255.60000014305,395255.2000000477,391773.761,391776.40000009537,391790.445,395263.87,1,40,26,
sequence,flow.Sequence,6_25,2023-11-27T19:45:52.503Z,,,,,,,,,,,3464.7550000476767,completion,,,,,,,high,high,,,,,,,true,,,,,false,395256.10000014305,395255.2000000477,391773.761,391776.30000019073,391790.445,395263.87,1,40,,
trial,html.Screen,6_26_0,2023-11-27T19:45:56.950Z,,,,1,1.3045229691102764,1.1781544075681951,,,true,ll,4438.730000143056,response,-1.2289750544294995,1.2,-1.2,-1.3003764624334877,1.2,-1.2,low,low,,ISIC_6148533.JPG,,ISIC_0054167.JPG,,27,true,0.12,ll,keypress(f),0,false,399702.80000019073,399702.60000014305,395247.367,395256.30000019073,395263.87,399705.894,1,40,27,
sequence,flow.Sequence,6_26,2023-11-27T19:45:56.950Z,,,,,,,,,,,4438.730000143056,completion,,,,,,,low,low,,,,,,,true,,,,,false,399703.2000000477,399702.60000014305,395247.367,395256.30000019073,395263.87,399705.894,1,40,,
trial,html.Screen,6_27_0,2023-11-27T19:46:02.783Z,,,,1,1.301795918505203,1.0518606632781424,,,true,ll,5829.606000000029,response,-1.2435042401134029,1.2,-1.2,-1.2939710463315144,1.2,-1.2,low,low,,ISIC_0027666.JPG,,ISIC_0056119.JPG,,41,true,0.15000000000000002,ll,keypress(f),0,false,405535.80000019073,405535.5,399689.341,399703.30000019073,399705.894,405550.57,1,40,28,
sequence,flow.Sequence,6_27,2023-11-27T19:46:02.783Z,,,,,,,,,,,5829.606000000029,completion,,,,,,,low,low,,,,,,,true,,,,,false,405536.40000009537,405535.5,399689.341,399703.30000019073,399705.894,405550.57,1,40,,
trial,html.Screen,6_28_0,2023-11-27T19:46:10.174Z,,,,1,-1.238264833797662,-1.176099940770289,,,true,hh,7376.630000047677,response,1.294521945180264,1.2,-1.2,1.3078626540563885,1.2,-1.2,high,high,,ISIC_0032861.JPG,,ISIC_3601224.JPG,,25,true,0.15000000000000002,hh,keypress(i),0,false,412927.5,412927.2000000477,405534.035,405536.7000000477,405550.57,412964.972,1,40,29,
sequence,flow.Sequence,6_28,2023-11-27T19:46:10.175Z,,,,,,,,,,,7376.630000047677,completion,,,,,,,high,high,,,,,,,true,,,,,false,412928.10000014305,412927.2000000477,405534.035,405536.60000014305,405550.57,412964.972,1,40,,
trial,html.Screen,6_29_0,2023-11-27T19:46:16.592Z,,,,1,-1.1592423187534993,1.067128884093211,,,false,hl,6378.527999999991,response,1.00615481805876,1.2,-1.2,-0.8428903771195875,1.2,-1.2,high,low,,ISIC_6854940.JPG,,ISIC_0069970.JPG,,29,true,0.3600000000000002,ll,keypress(f),0,false,419343.80000019073,419343.5,412915.017,412928.40000009537,412964.972,419360.859,1,40,30,
sequence,flow.Sequence,6_29,2023-11-27T19:46:16.592Z,,,,,,,,,,,6378.527999999991,completion,,,,,,,high,low,,,,,,,true,,,,,false,419344.30000019073,419343.5,412915.017,412928.30000019073,412964.972,419360.859,1,40,,
trial,html.Screen,6_30_0,2023-11-27T19:46:21.664Z,,,,1,1.1510001454240106,1.132540312667795,,,true,ll,5054.541000095371,response,-1.000067575413479,1.2,-1.2,-0.963498103069642,1.2,-1.2,low,low,,ISIC_0009959.JPG,,ISIC_0061531.JPG,,211,true,0.3300000000000002,ll,keypress(f),0,false,424415.7000000477,424415.40000009537,419344.22,419344.60000014305,419360.859,424454.033,1,40,31,
sequence,flow.Sequence,6_30,2023-11-27T19:46:21.664Z,,,,,,,,,,,5054.541000095371,completion,,,,,,,low,low,,,,,,,true,,,,,false,424416.2000000477,424415.40000009537,419344.22,419344.60000014305,419360.859,424454.033,1,40,,
trial,html.Screen,6_31_0,2023-11-27T19:46:28.527Z,,,,1,0.849847885203758,-0.973447384095442,,,true,lh,6824.467000000004,response,-1.0748728054622358,1.2,-1.2,1.2840853987892311,1.2,-1.2,low,high,,ISIC_9612228.JPG,,ISIC_0059219.JPG,,26,true,0.3300000000000002,lh,keypress(e),0,false,431278.60000014305,431278.5,424404.119,424416.5,424454.033,431300.66,1,40,32,
sequence,flow.Sequence,6_31,2023-11-27T19:46:28.527Z,,,,,,,,,,,6824.467000000004,completion,,,,,,,low,high,,,,,,,true,,,,,false,431278.90000009537,431278.5,424404.119,424416.40000009537,424454.033,431300.66,1,40,,
trial,html.Screen,6_32_0,2023-11-27T19:46:35.504Z,,,,1,-1.055319394932912,1.409116680310466,,,true,hl,6954.540000047709,response,0.8591294258188253,1.2,-1.2,-0.870797302150167,1.2,-1.2,high,low,,ISIC_6398669.JPG,,ISIC_0055841.JPG,,29,true,0.3600000000000002,hl,keypress(j),0,false,438255.5,438255.2000000477,431267.515,431279,431300.66,438280.905,1,40,33,
sequence,flow.Sequence,6_32,2023-11-27T19:46:35.504Z,,,,,,,,,,,6954.540000047709,completion,,,,,,,high,low,,,,,,,true,,,,,false,438256,438255.2000000477,431267.515,431278.90000009537,431300.66,438280.905,1,40,,
trial,html.Screen,6_33_0,2023-11-27T19:46:44.384Z,,,,1,0.8779374983479176,-0.9745548032823428,,,true,lh,8854.594999999972,response,-1.0822170028935367,1.2,-1.2,1.1654796154432183,1.2,-1.2,low,high,,ISIC_2991354.JPG,,ISIC_7288818.JPG,,26,true,0.3300000000000002,lh,keypress(e),0,false,447135.90000009537,447135.5,438247.47,438256.30000019073,438280.905,447148.19,1,40,34,
sequence,flow.Sequence,6_33,2023-11-27T19:46:44.384Z,,,,,,,,,,,8854.594999999972,completion,,,,,,,low,high,,,,,,,true,,,,,false,447136.40000009537,447135.5,438247.47,438256.30000019073,438280.905,447148.19,1,40,,
trial,html.Screen,6_34_0,2023-11-27T19:46:54.336Z,,,,1,1.225025174430573,-0.8422679054456499,,,true,lh,9939.010000047681,response,-0.9046170303418553,1.2,-1.2,1.0063426986460375,1.2,-1.2,low,high,,ISIC_7503950.JPG,,ISIC_0055759.JPG,,33,true,0.3600000000000002,lh,keypress(e),0,false,457087.5,457087.2000000477,447131.638,447136.60000014305,447148.19,457100.972,1,40,35,
sequence,flow.Sequence,6_34,2023-11-27T19:46:54.336Z,,,,,,,,,,,9939.010000047681,completion,,,,,,,low,high,,,,,,,true,,,,,false,457088.10000014305,457087.2000000477,447131.638,447136.60000014305,447148.19,457100.972,1,40,,
trial,html.Screen,6_35_0,2023-11-27T19:47:00.142Z,,,,1,-1.2289750544294995,-1.3003764624334877,,,true,hh,5793.128000143042,response,1.212030980680325,1.2,-1.2,1.139863018685685,1.2,-1.2,high,high,,ISIC_0054167.JPG,,ISIC_0008510.JPG,,157,true,0.3600000000000002,hh,keypress(i),0,false,462894.2000000477,462894.10000014305,457084.264,457088.30000019073,457100.972,462912.709,1,40,36,
sequence,flow.Sequence,6_35,2023-11-27T19:47:00.142Z,,,,,,,,,,,5793.128000143042,completion,,,,,,,high,high,,,,,,,true,,,,,false,462894.40000009537,462894.10000014305,457084.264,457088.2000000477,457100.972,462912.709,1,40,,
trial,html.Screen,6_36_0,2023-11-27T19:47:03.935Z,,,,1,1.1642596483638106,1.091507924157762,,,true,ll,3774.3910001430777,response,-1.2232482867978696,1.2,-1.2,-1.2451219760556858,1.2,-1.2,low,low,,ISIC_0765584.JPG,,ISIC_0030889.JPG,,27,true,0.12,ll,keypress(f),0,false,466687.40000009537,466687.10000014305,462878.945,462894.40000009537,462912.709,466719.63,1,40,37,
sequence,flow.Sequence,6_36,2023-11-27T19:47:03.936Z,,,,,,,,,,,3774.3910001430777,completion,,,,,,,low,low,,,,,,,true,,,,,false,466687.90000009537,466687.10000014305,462878.945,462894.40000009537,462912.709,466719.63,1,40,,
trial,html.Screen,6_37_0,2023-11-27T19:47:08.879Z,,,,1,-0.9448560599810628,0.9099421612683488,,,true,hl,4911.4700001430465,response,1.4748095371445096,1.2,-1.2,-0.9579010801034902,1.2,-1.2,high,low,,ISIC_9684318.JPG,,ISIC_0033216.JPG,,29,true,0.3600000000000002,hl,keypress(j),0,false,471631.30000019073,471631.10000014305,466686.402,466688.10000014305,466719.63,471645.884,1,40,38,
sequence,flow.Sequence,6_37,2023-11-27T19:47:08.880Z,,,,,,,,,,,4911.4700001430465,completion,,,,,,,high,low,,,,,,,true,,,,,false,471631.80000019073,471631.10000014305,466686.402,466688.10000014305,466719.63,471645.884,1,40,,
trial,html.Screen,6_38_0,2023-11-27T19:47:14.456Z,,,,1,-1.052305774554686,1.3940181224717798,,,true,hl,5561.516000095347,response,0.9039158082670506,1.2,-1.2,-1.0517562064343149,1.2,-1.2,high,low,,ISIC_4175400.JPG,,ISIC_0015411.JPG,,29,true,0.3600000000000002,hl,keypress(j),0,false,477207.7000000477,477207.40000009537,471629.38,471632.10000014305,471645.884,477223.413,1,40,39,
sequence,flow.Sequence,6_38,2023-11-27T19:47:14.456Z,,,,,,,,,,,5561.516000095347,completion,,,,,,,high,low,,,,,,,true,,,,,false,477208.10000014305,477207.40000009537,471629.38,471632.10000014305,471645.884,477223.413,1,40,,
trial,html.Screen,6_39_0,2023-11-27T19:47:18.889Z,,,,1,1.1890109863264902,-0.8867825318561365,,,true,lh,4415.787000047683,response,-0.9212323139676136,1.2,-1.2,0.9882196642247332,1.2,-1.2,low,high,,ISIC_0072576.JPG,,ISIC_0014255.JPG,,26,true,0.3300000000000002,lh,keypress(e),0,false,481639.5,481639.2000000477,477206.854,477208.30000019073,477223.413,481648.688,1,40,40,
sequence,flow.Sequence,6_39,2023-11-27T19:47:18.889Z,,,,,,,,,,,4415.787000047683,completion,,,,,,,low,high,,,,,,,true,,,,,false,481640,481639.2000000477,477206.854,477208.30000019073,477223.413,481648.688,1,40,,
practice_loop,flow.Loop,6,2023-11-27T19:47:18.890Z,,,,,,,,,,,241961.50800004767,completion,,,,,,,,,,,,,,,true,,,,,false,481640.30000019073,481639.2000000477,239661.199,239669.90000009537,239677.692,481648.688,1,40,,
stair_instructions,html.Screen,7,2023-11-27T19:47:29.967Z,,,,,,,,,,,11068.811999999976,response,,,,,,,,,,,,,,,,,continue,click button,,,492718,492717.5,481632.199,481640.5,481648.688,492720.203,,,,
trial,html.Screen,8_0_0,2023-11-27T19:47:36.138Z,,,,2,-0.012020985739544,0.0126097407389903,,0.04,false,hh,6167.997000047704,response,0.9520649807922285,1.2,-1.2,1.2060773672502134,1.2,-1.2,high,high,,ISIC_0069379.JPG,,ISIC_9439742.JPG,28,157,false,0.3600000000000002,lh,keypress(e),0,true,498888.60000014305,498888.2000000477,492703.743,492718.10000014305,492720.203,498915.633,1,40,1,
sequence,flow.Sequence,8_0,2023-11-27T19:47:36.138Z,,,,,,,,,,,6167.997000047704,completion,,,,,,,high,high,,,,,,,false,,,,,true,498889.10000014305,498888.2000000477,492703.743,492718.10000014305,492720.203,498915.633,1,40,,
trial,html.Screen,8_1_0,2023-11-27T19:47:39.897Z,,,,2,-0.0050679133050021,-0.0174815595031679,,0.04,false,hl,3731.9670001430786,response,1.225025174430573,1.2,-1.15,-0.8422679054456499,1.15,-1.15,high,low,,ISIC_9848743.JPG,,ISIC_7503950.JPG,28,26,false,0.3300000000000002,hh,keypress(i),0,true,502648,502647.60000014305,498898.931,498889.40000009537,498915.633,502656.243,1,40,2,
sequence,flow.Sequence,8_1,2023-11-27T19:47:39.898Z,,,,,,,,,,,3731.9670001430786,completion,,,,,,,high,low,,,,,,,false,,,,,true,502648.5,502647.60000014305,498898.931,498889.40000009537,498915.633,502656.243,1,40,,
trial,html.Screen,8_2_0,2023-11-27T19:47:46.657Z,,,,2,0.0199897690678184,0.0312486875504497,,0.04,true,hh,6751.657000095351,response,1.1604734171556077,1.15,-1.15,1.0789312625280616,1.15,-1.15,high,high,,ISIC_5482426.JPG,,ISIC_3950753.JPG,28,26,false,0.14,hh,keypress(i),0,true,509408.2000000477,509407.90000009537,502639.737,502648.80000019073,502656.243,509419.398,1,40,3,
sequence,flow.Sequence,8_2,2023-11-27T19:47:46.658Z,,,,,,,,,,,6751.657000095351,completion,,,,,,,high,high,,,,,,,false,,,,,true,509408.7000000477,509407.90000009537,502639.737,502648.7000000477,502656.243,509419.398,1,40,,
trial,html.Screen,8_3_0,2023-11-27T19:47:52.850Z,,,,2,-0.0057914759495055,0.018500200317654,,0.04,true,ll,6181.502000095381,response,-1.1671212908494544,1.1019782184793172,-1.15,-1.1286681796701683,1.1019782184793172,-1.15,low,low,,ISIC_0058723.JPG,,ISIC_0065022.JPG,28,25,false,0.11,ll,keypress(f),0,true,515601.2000000477,515600.90000009537,509402.92,509409,509419.398,515614.816,1,40,4,
sequence,flow.Sequence,8_3,2023-11-27T19:47:52.851Z,,,,,,,,,,,6181.502000095381,completion,,,,,,,low,low,,,,,,,false,,,,,true,515601.60000014305,515600.90000009537,509402.92,509408.80000019073,509419.398,515614.816,1,40,,
trial,html.Screen,8_4_0,2023-11-27T19:47:57.385Z,,,,2,-0.0166849894750452,0.0371614812368835,,0.04,true,hh,4520.684000000008,response,1.0885984639975343,1.1019782184793172,-1.15,1.2042618719491294,1.1019782184793172,-1.15,high,high,,ISIC_6231450.JPG,,ISIC_0012740.JPG,28,26,false,0.12,hh,keypress(i),0,true,520135.80000019073,520135.5,515598.272,515601.90000009537,515614.816,520140.272,1,40,5,
sequence,flow.Sequence,8_4,2023-11-27T19:47:57.386Z,,,,,,,,,,,4520.684000000008,completion,,,,,,,high,high,,,,,,,false,,,,,true,520136.40000009537,520135.5,515598.272,515601.90000009537,515614.816,520140.272,1,40,,
trial,html.Screen,8_5_0,2023-11-27T19:48:04.417Z,,,,2,-0.0060918352854008,0.029032683404407,,0.04,false,ll,7027.4280000476865,response,-1.238264833797662,1.1019782184793172,-1.15,-1.176099940770289,1.1019782184793172,-1.15,low,low,,ISIC_8436194.JPG,,ISIC_0032861.JPG,28,25,false,0.11,hh,keypress(i),0,true,527168.100000143,527167.7000000477,520123.682,520136.60000014305,520140.272,527187.322,1,40,6,
sequence,flow.Sequence,8_5,2023-11-27T19:48:04.418Z,,,,,,,,,,,7027.4280000476865,completion,,,,,,,low,low,,,,,,,false,,,,,true,527168.600000143,527167.7000000477,520123.682,520136.5,520140.272,527187.322,1,40,,
trial,html.Screen,8_6_0,2023-11-27T19:48:08.672Z,,,,2,0.0321039635696159,0.020496766286318,,0.04,false,lh,4234.978000190691,response,-0.8709576717420565,1.1019782184793172,-1.15,1.2795156779072283,1.1019782184793172,-1.15,low,high,,ISIC_0058063.JPG,,ISIC_1925632.JPG,28,25,false,0.28000000000000014,hh,keypress(i),0,true,531422.5,531422.3000001907,527154.131,527168.9000000954,527187.322,531428.891,1,40,7,
sequence,flow.Sequence,8_6,2023-11-27T19:48:08.672Z,,,,,,,,,,,4234.978000190691,completion,,,,,,,low,high,,,,,,,false,,,,,true,531422.7000000477,531422.3000001907,527154.131,527168.8000001907,527187.322,531428.891,1,40,,
trial,html.Screen,8_7_0,2023-11-27T19:48:14.567Z,,,,2,-0.0071892445601978,0.0246015408628738,,0.04,false,ll,5889.109000000055,response,-1.2315945866020412,1.1019782184793172,-1.15,-1.13226141421557,1.1918887749281788,-1.15,low,low,,ISIC_0014133.JPG,,ISIC_0033595.JPG,28,25,false,0.11,lh,keypress(e),0,true,537318.100000143,537318,531412.342,531422.8000001907,531428.891,537323.699,1,40,8,
sequence,flow.Sequence,8_7,2023-11-27T19:48:14.567Z,,,,,,,,,,,5889.109000000055,completion,,,,,,,low,low,,,,,,,false,,,,,true,537318.2000000477,537318,531412.342,531422.8000001907,531428.891,537323.699,1,40,,
trial,html.Screen,8_8_0,2023-11-27T19:48:20.410Z,,,,2,-0.0077673378094614,-0.0021810768579373,,0.04,true,lh,5835.800999999978,response,-1.155796217969438,1.1019782184793172,-1.15,1.1646564121743912,1.1918887749281788,-1.15,low,high,,ISIC_0067621.JPG,,ISIC_2685523.JPG,28,27,false,0.29000000000000015,lh,keypress(e),0,true,543159.8000001907,543159.5,537307.142,537318.3000001907,537323.699,543168.431,1,40,9,
sequence,flow.Sequence,8_8,2023-11-27T19:48:20.411Z,,,,,,,,,,,5835.800999999978,completion,,,,,,,low,high,,,,,,,false,,,,,true,543160.4000000954,543159.5,537307.142,537318.3000001907,537323.699,543168.431,1,40,,
trial,html.Screen,8_9_0,2023-11-27T19:48:29.555Z,,,,2,-0.0057914759495055,0.018500200317654,,0.04,false,hh,9135.469000095385,response,1.0959058628476686,1.1019782184793172,-1.0999999999999999,1.2921331918483707,1.1918887749281788,-1.15,high,high,,ISIC_0058723.JPG,,ISIC_5920470.JPG,28,26,false,0.13,lh,keypress(e),0,true,552304.2000000477,552303.9000000954,543151.976,543160.600000143,543168.431,552319.581,1,40,10,
sequence,flow.Sequence,8_9,2023-11-27T19:48:29.555Z,,,,,,,,,,,9135.469000095385,completion,,,,,,,high,high,,,,,,,false,,,,,true,552304.7000000477,552303.9000000954,543151.976,543160.5,543168.431,552319.581,1,40,,
trial,html.Screen,8_10_0,2023-11-27T19:48:35.914Z,,,,2,0.0361875505619981,-0.0291457404567876,,0.04,true,hh,6343.918999999994,response,1.2714351764931109,1.1519782184793173,-1.0999999999999999,1.0785174776187512,1.178394802011381,-1.15,high,high,,ISIC_0027480.JPG,,ISIC_2454898.JPG,28,30,false,0.15000000000000002,hh,keypress(i),0,true,558663.8000001907,558663.5,552302.948,552305,552319.581,558681.967,1,40,11,
sequence,flow.Sequence,8_10,2023-11-27T19:48:35.915Z,,,,,,,,,,,6343.918999999994,completion,,,,,,,high,high,,,,,,,false,,,,,true,558664.3000001907,558663.5,552302.948,552304.9000000954,552319.581,558681.967,1,40,,
trial,html.Screen,8_11_0,2023-11-27T19:48:42.091Z,,,,2,0.0367218428225813,-0.0026956749740767,,0.04,false,hl,6157.933000095421,response,0.849847885203758,1.1519782184793173,-1.0999999999999999,-0.973447384095442,1.178394802011381,-1.15,high,low,,ISIC_7212271.JPG,,ISIC_9612228.JPG,28,27,false,0.31000000000000016,ll,keypress(f),0,true,564840.100000143,564839.9000000954,558648.738,558664.600000143,558681.967,564860.657,1,40,12,
sequence,flow.Sequence,8_11,2023-11-27T19:48:42.091Z,,,,,,,,,,,6157.933000095421,completion,,,,,,,high,low,,,,,,,false,,,,,true,564840.600000143,564839.9000000954,558648.738,558664.600000143,558681.967,564860.657,1,40,,
trial,html.Screen,8_12_0,2023-11-27T19:48:48.456Z,,,,2,0.0086413421586899,0.0360184993500958,,0.04,true,lh,6345.143000190728,response,-1.0961318727760048,1.1519782184793173,-1.0999999999999999,1.2134960228256146,1.178394802011381,-1.15,low,high,,ISIC_0010767.JPG,,ISIC_9768421.JPG,28,27,false,0.2600000000000001,lh,keypress(e),0,true,571205.9000000954,571205.8000001907,564827.462,564840.9000000954,564860.657,571223.885,1,40,13,
sequence,flow.Sequence,8_12,2023-11-27T19:48:48.456Z,,,,,,,,,,,6345.143000190728,completion,,,,,,,low,high,,,,,,,false,,,,,true,571206,571205.8000001907,564827.462,564840.9000000954,564860.657,571223.885,1,40,,
trial,html.Screen,8_13_0,2023-11-27T19:48:55.562Z,,,,2,0.0199897690678184,0.0312486875504497,,0.04,true,hh,7087.515000095358,response,1.2714351764931109,1.1519782184793173,-1.0999999999999999,1.0785174776187512,1.128394802011381,-1.15,high,high,,ISIC_5482426.JPG,,ISIC_2454898.JPG,28,26,false,0.14,hh,keypress(i),0,true,578311.7000000477,578311.4000000954,571189.807,571206.100000143,571223.885,578336.891,1,40,14,
sequence,flow.Sequence,8_13,2023-11-27T19:48:55.563Z,,,,,,,,,,,7087.515000095358,completion,,,,,,,high,high,,,,,,,false,,,,,true,578312.3000001907,578311.4000000954,571189.807,571206.100000143,571223.885,578336.891,1,40,,
trial,html.Screen,8_14_0,2023-11-27T19:49:03.930Z,,,,2,-0.0071892445601978,0.0246015408628738,,0.04,false,hl,8342.509000095422,response,1.2838089642212804,1.1519782184793173,-1.0999999999999999,-0.8550527900640753,1.128394802011381,-1.15,high,low,,ISIC_0014133.JPG,,ISIC_0034187.JPG,28,27,false,0.31000000000000016,hh,keypress(i),0,true,586679.7000000477,586679.4000000954,578303.705,578312.5,578336.891,586686.459,1,40,15,
sequence,flow.Sequence,8_14,2023-11-27T19:49:03.931Z,,,,,,,,,,,8342.509000095422,completion,,,,,,,high,low,,,,,,,false,,,,,true,586680.100000143,586679.4000000954,578303.705,578312.5,578336.891,586686.459,1,40,,
trial,html.Screen,8_15_0,2023-11-27T19:49:10.273Z,,,,2,0.0367218428225813,-0.0026956749740767,,0.04,false,lh,6335.841000190703,response,-1.0748728054622358,1.1311632209200158,-1.0999999999999999,1.2840853987892311,1.128394802011381,-1.15,low,high,,ISIC_7212271.JPG,,ISIC_0059219.JPG,28,27,false,0.2500000000000001,ll,keypress(f),0,true,593022.3000001907,593022.3000001907,586669.688,586680.4000000954,586686.459,593032.236,1,40,16,
sequence,flow.Sequence,8_15,2023-11-27T19:49:10.273Z,,,,,,,,,,,6335.841000190703,completion,,,,,,,low,high,,,,,,,false,,,,,true,593022.5,593022.3000001907,586669.688,586680.3000001907,586686.459,593032.236,1,40,,
trial,html.Screen,8_16_0,2023-11-27T19:49:17.315Z,,,,2,0.0327772618698018,-0.0056908372048728,,0.04,true,ll,7031.164000095334,response,-1.0657476601009717,1.1311632209200158,-1.0499999999999998,-1.166572336354465,1.178394802011381,-1.15,low,low,,ISIC_7897925.JPG,,ISIC_0010778.JPG,28,28,false,0.1,ll,keypress(f),0,true,600063.7000000477,600063.4000000954,593015.391,593022.600000143,593032.236,600079.186,1,40,17,
sequence,flow.Sequence,8_16,2023-11-27T19:49:17.316Z,,,,,,,,,,,7031.164000095334,completion,,,,,,,low,low,,,,,,,false,,,,,true,600064.3000001907,600063.4000000954,593015.391,593022.600000143,593032.236,600079.186,1,40,,
trial,html.Screen,8_17_0,2023-11-27T19:49:22.180Z,,,,2,-0.0050679133050021,-0.0174815595031679,,0.04,true,hh,4848.614000190748,response,1.1727618800748076,1.1311632209200158,-1.0499999999999998,1.0636787813411093,1.178394802011381,-1.15,high,high,,ISIC_9848743.JPG,,ISIC_9690371.JPG,28,26,false,0.14,hh,keypress(i),0,true,604928.2000000477,604927.8000001907,600062.566,600064.600000143,600079.186,604938.673,1,40,18,
sequence,flow.Sequence,8_17,2023-11-27T19:49:22.180Z,,,,,,,,,,,4848.614000190748,completion,,,,,,,high,high,,,,,,,false,,,,,true,604928.7000000477,604927.8000001907,600062.566,600064.5,600079.186,604938.673,1,40,,
trial,html.Screen,8_18_0,2023-11-27T19:49:29.835Z,,,,2,-0.0050679133050021,-0.0174815595031679,,0.04,false,lh,7644.627000190783,response,-0.8015753713975186,1.1311632209200158,-1.0499999999999998,1.0067065355978264,1.178394802011381,-1.15,low,high,,ISIC_9848743.JPG,,ISIC_0002119.JPG,28,29,false,0.2500000000000001,ll,keypress(f),0,true,612583.600000143,612583.3000001907,604922.188,604929,604938.673,612586.899,1,40,19,
sequence,flow.Sequence,8_18,2023-11-27T19:49:29.836Z,,,,,,,,,,,7644.627000190783,completion,,,,,,,low,high,,,,,,,false,,,,,true,612584.2000000477,612583.3000001907,604922.188,604928.8000001907,604938.673,612586.899,1,40,,
trial,html.Screen,8_19_0,2023-11-27T19:49:34.692Z,,,,2,0.0367218428225813,-0.0026956749740767,,0.04,true,hh,4852.801000047708,response,1.204229955025689,1.1311632209200158,-0.9999999999999998,1.0874249761617445,1.178394802011381,-1.15,high,high,,ISIC_7212271.JPG,,ISIC_0056930.JPG,28,26,false,0.14,hh,keypress(i),0,true,617440,617439.7000000477,612570.248,612584.4000000954,612586.899,617446.431,1,40,20,
sequence,flow.Sequence,8_19,2023-11-27T19:49:34.692Z,,,,,,,,,,,4852.801000047708,completion,,,,,,,high,high,,,,,,,false,,,,,true,617440.600000143,617439.7000000477,612570.248,612584.3000001907,612586.899,617446.431,1,40,,
trial,html.Screen,8_20_0,2023-11-27T19:49:41.156Z,,,,2,-0.0350697500805515,-0.0166617848231997,,0.04,true,ll,6457.069000000018,response,-1.0762260610050776,1.0958274655937166,-0.9999999999999998,-1.1184338818466155,1.178394802011381,-1.15,low,low,,ISIC_0024423.JPG,,ISIC_0058666.JPG,28,31,false,0.1,ll,keypress(f),0,true,623903.8000001907,623903.5,617429.721,617440.8000001907,617446.431,623908.946,1,40,21,
sequence,flow.Sequence,8_20,2023-11-27T19:49:41.156Z,,,,,,,,,,,6457.069000000018,completion,,,,,,,low,low,,,,,,,false,,,,,true,623904.3000001907,623903.5,617429.721,617440.8000001907,617446.431,623908.946,1,40,,
trial,html.Screen,8_21_0,2023-11-27T19:49:47.731Z,,,,2,-0.0399381815506136,-0.0177751789152893,,0.04,true,hh,6570.354000190739,response,1.0008138976134489,1.0958274655937166,-0.9999999999999998,1.292636741787064,1.178394802011381,-1.0473299714258466,high,high,,ISIC_3981425.JPG,,ISIC_6000407.JPG,28,25,false,0.13,hh,keypress(i),0,true,630479.600000143,630479.3000001907,623892.428,623904.600000143,623908.946,630488.404,1,40,22,
sequence,flow.Sequence,8_21,2023-11-27T19:49:47.732Z,,,,,,,,,,,6570.354000190739,completion,,,,,,,high,high,,,,,,,false,,,,,true,630480.100000143,630479.3000001907,623892.428,623904.600000143,623908.946,630488.404,1,40,,
trial,html.Screen,8_22_0,2023-11-27T19:49:51.043Z,,,,2,-0.0060918352854008,0.029032683404407,,0.04,false,hl,3302.8960001907544,response,1.064425982109969,1.0958274655937166,-0.9999999999999998,-0.958564243697126,1.0967253197002564,-1.0473299714258466,high,low,,ISIC_8436194.JPG,,ISIC_3203344.JPG,28,26,false,0.2500000000000001,hh,keypress(i),0,true,633791.7000000477,633791.3000001907,630471.84,630480.4000000954,630488.404,633811.586,1,40,23,
sequence,flow.Sequence,8_22,2023-11-27T19:49:51.044Z,,,,,,,,,,,3302.8960001907544,completion,,,,,,,high,low,,,,,,,false,,,,,true,633792.100000143,633791.3000001907,630471.84,630480.3000001907,630488.404,633811.586,1,40,,
trial,html.Screen,8_23_0,2023-11-27T19:49:57.203Z,,,,2,0.0365981355399771,0.0162670920008846,,0.04,true,lh,6139.6140000476735,response,-0.781391003063482,0.9826199398617088,-0.9999999999999998,0.9644960393010829,1.0967253197002564,-1.0973299714258467,low,high,,ISIC_0982855.JPG,,ISIC_2087913.JPG,28,29,false,0.22000000000000008,lh,keypress(e),0,true,639951.5,639951.2000000477,633778.306,633792.4000000954,633811.586,639956.833,1,40,24,
sequence,flow.Sequence,8_23,2023-11-27T19:49:57.204Z,,,,,,,,,,,6139.6140000476735,completion,,,,,,,low,high,,,,,,,false,,,,,true,639952,639951.2000000477,633778.306,633792.3000001907,633811.586,639956.833,1,40,,
trial,html.Screen,8_24_0,2023-11-27T19:50:05.380Z,,,,2,-0.0377791839943904,0.0227626648172468,,0.04,false,lh,8171.267000143067,response,-0.9670240379618178,0.9826199398617088,-0.9499999999999997,1.1806404773220665,1.0967253197002564,-1.0973299714258467,low,high,,ISIC_7167479.JPG,,ISIC_0002288.JPG,28,26,false,0.19000000000000006,hl,keypress(j),0,true,648128.4000000954,648128.100000143,639940.246,639952.3000001907,639956.833,648139.409,1,40,25,
sequence,flow.Sequence,8_24,2023-11-27T19:50:05.381Z,,,,,,,,,,,8171.267000143067,completion,,,,,,,low,high,,,,,,,false,,,,,true,648129,648128.100000143,639940.246,639952.2000000477,639956.833,648139.409,1,40,,
trial,html.Screen,8_25_0,2023-11-27T19:50:11.786Z,,,,2,-0.0060934073440827,-0.0279108145883031,,0.04,false,ll,6394.991000095382,response,-1.0698162624196283,0.9826199398617088,-0.9999999999999998,-1.0648460966097275,1.1467253197002565,-1.0973299714258467,low,low,,ISIC_0032604.JPG,,ISIC_0030552.JPG,28,35,false,0.1,hh,keypress(i),0,true,654534.5,654534.4000000954,648122.812,648129.2000000477,648139.409,654552.274,1,40,26,
sequence,flow.Sequence,8_25,2023-11-27T19:50:11.786Z,,,,,,,,,,,6394.991000095382,completion,,,,,,,low,low,,,,,,,false,,,,,true,654534.8000001907,654534.4000000954,648122.812,648129.100000143,648139.409,654552.274,1,40,,
trial,html.Screen,8_26_0,2023-11-27T19:50:16.819Z,,,,2,-0.0166849894750452,0.0371614812368835,,0.04,true,ll,5013.926000047708,response,-0.9693644437173125,0.9826199398617088,-1.0499999999999998,-1.114502123877908,1.1467253197002565,-1.1473299714258467,low,low,,ISIC_6231450.JPG,,ISIC_0014795.JPG,28,28,false,0.1,ll,keypress(f),0,true,659566.3000001907,659566.2000000477,654518.702,654534.8000001907,654552.274,659578.354,1,40,27,
sequence,flow.Sequence,8_26,2023-11-27T19:50:16.819Z,,,,,,,,,,,5013.926000047708,completion,,,,,,,low,low,,,,,,,false,,,,,true,659566.600000143,659566.2000000477,654518.702,654534.8000001907,654552.274,659578.354,1,40,,
trial,html.Screen,8_27_0,2023-11-27T19:50:21.709Z,,,,2,0.0086413421586899,0.0360184993500958,,0.04,true,ll,4877.246000143001,response,-1.089914260719518,0.9826199398617088,-1.0499999999999998,-1.1695563571046357,1.1467253197002565,-1.1473299714258467,low,low,,ISIC_0010767.JPG,,ISIC_0030695.JPG,28,28,false,0.1,ll,keypress(f),0,true,664455.9000000954,664455.600000143,659561.862,659566.7000000477,659578.354,664471.23,1,40,28,
sequence,flow.Sequence,8_27,2023-11-27T19:50:21.709Z,,,,,,,,,,,4877.246000143001,completion,,,,,,,low,low,,,,,,,false,,,,,true,664456.5,664455.600000143,659561.862,659566.600000143,659578.354,664471.23,1,40,,
trial,html.Screen,8_28_0,2023-11-27T19:50:29.253Z,,,,2,-0.0071892445601978,0.0246015408628738,,0.04,true,lh,7528.37000014307,response,-0.8787496315223856,0.9826199398617088,-1.0920292404912717,1.3680901203013998,1.1467253197002565,-1.0920292404912717,low,high,,ISIC_0014133.JPG,,ISIC_0023811.JPG,28,25,false,0.2400000000000001,lh,keypress(e),0,true,671999.9000000954,671999.600000143,664454.664,664456.8000001907,664471.23,672002.591,1,40,29,
sequence,flow.Sequence,8_28,2023-11-27T19:50:29.253Z,,,,,,,,,,,7528.37000014307,completion,,,,,,,low,high,,,,,,,false,,,,,true,672000.5,671999.600000143,664454.664,664456.7000000477,664471.23,672002.591,1,40,,
trial,html.Screen,8_29_0,2023-11-27T19:50:36.604Z,,,,2,-0.0377791839943904,0.0227626648172468,,0.04,true,ll,7348.70900019072,response,-1.0011647073734584,0.9826199398617088,-1.0920292404912717,-1.090690958018423,1.1467253197002565,-1.0920292404912717,low,low,,ISIC_7167479.JPG,,ISIC_0021901.JPG,28,29,false,0.1,ll,keypress(f),0,true,679351.600000143,679351.3000001907,671986.02,672000.7000000477,672002.591,679366.854,1,40,30,
sequence,flow.Sequence,8_29,2023-11-27T19:50:36.605Z,,,,,,,,,,,7348.70900019072,completion,,,,,,,low,low,,,,,,,false,,,,,true,679352,679351.3000001907,671986.02,672000.600000143,672002.591,679366.854,1,40,,
trial,html.Screen,8_30_0,2023-11-27T19:50:44.477Z,,,,2,0.0367218428225813,-0.0026956749740767,,0.04,true,hl,7856.746000143001,response,0.7622914383475332,0.9826199398617088,-0.9959278326959407,-0.8883896910883083,1.1467253197002565,-1.0920292404912717,high,low,,ISIC_7212271.JPG,,ISIC_0032005.JPG,28,25,false,0.2300000000000001,hl,keypress(j),0,true,687223.9000000954,687223.600000143,679350.126,679352.3000001907,679366.854,687232.195,1,40,31,
sequence,flow.Sequence,8_30,2023-11-27T19:50:44.477Z,,,,,,,,,,,7856.746000143001,completion,,,,,,,high,low,,,,,,,false,,,,,true,687224.5,687223.600000143,679350.126,679352.2000000477,679366.854,687232.195,1,40,,
trial,html.Screen,8_31_0,2023-11-27T19:50:50.092Z,,,,2,0.0327772618698018,-0.0056908372048728,,0.04,true,ll,5606.605000190786,response,-1.0353494157291625,0.9826199398617088,-0.9959278326959407,-0.9833297148698538,1.1467253197002565,-1.0420292404912717,low,low,,ISIC_7897925.JPG,,ISIC_5156491.JPG,28,41,false,0.1,ll,keypress(f),0,true,692839,692838.8000001907,687215.503,687224.7000000477,687232.195,692843.188,1,40,32,
sequence,flow.Sequence,8_31,2023-11-27T19:50:50.092Z,,,,,,,,,,,5606.605000190786,completion,,,,,,,low,low,,,,,,,false,,,,,true,692839.3000001907,692838.8000001907,687215.503,687224.600000143,687232.195,692843.188,1,40,,
trial,html.Screen,8_32_0,2023-11-27T19:50:55.613Z,,,,2,0.0321039635696159,0.020496766286318,,0.04,false,lh,5516.612000190769,response,-0.9873794329144926,0.9826199398617088,-0.9959278326959407,0.9500689037516484,1.1467253197002565,-1.0420292404912717,low,high,,ISIC_0058063.JPG,,ISIC_0013498.JPG,28,27,false,0.22000000000000008,hh,keypress(i),0,true,698360.100000143,698359.8000001907,692826.631,692839.5,692843.188,698370.534,1,40,33,
sequence,flow.Sequence,8_32,2023-11-27T19:50:55.613Z,,,,,,,,,,,5516.612000190769,completion,,,,,,,low,high,,,,,,,false,,,,,true,698360.600000143,698359.8000001907,692826.631,692839.4000000954,692843.188,698370.534,1,40,,
trial,html.Screen,8_33_0,2023-11-27T19:51:02.909Z,,,,2,-0.0057914759495055,0.018500200317654,,0.04,false,hl,7284.966000000015,response,1.1224745971429997,0.9826199398617088,-1.0459278326959407,-0.8423270217438888,1.0967253197002564,-1.0420292404912717,high,low,,ISIC_0058723.JPG,,ISIC_0057032.JPG,28,26,false,0.21000000000000008,ll,keypress(f),0,true,705655.8000001907,705655.5,698354.061,698360.8000001907,698370.534,705668.072,1,40,34,
sequence,flow.Sequence,8_33,2023-11-27T19:51:02.909Z,,,,,,,,,,,7284.966000000015,completion,,,,,,,high,low,,,,,,,false,,,,,true,705656.3000001907,705655.5,698354.061,698360.8000001907,698370.534,705668.072,1,40,,
trial,html.Screen,8_34_0,2023-11-27T19:51:12.629Z,,,,2,-0.0060918352854008,0.029032683404407,,0.04,true,hl,9707.728000190691,response,0.931876071706936,1.0326199398617089,-1.0459278326959407,-0.7205780326045168,1.0967253197002564,-0.8628283683068713,high,low,,ISIC_8436194.JPG,,ISIC_0032426.JPG,28,27,false,0.17000000000000004,hl,keypress(j),0,true,715376.2000000477,715375.8000001907,705651.508,705656.7000000477,705668.072,715386.999,1,40,35,
sequence,flow.Sequence,8_34,2023-11-27T19:51:12.630Z,,,,,,,,,,,9707.728000190691,completion,,,,,,,high,low,,,,,,,false,,,,,true,715376.7000000477,715375.8000001907,705651.508,705656.5,705668.072,715386.999,1,40,,
trial,html.Screen,8_35_0,2023-11-27T19:51:22.278Z,,,,2,-0.012810673904807,0.00400964452501,,0.04,false,hh,9636.501000000047,response,0.9191486333136276,1.0326199398617089,-1.0459278326959407,1.080719641270871,1.0967253197002564,-0.8628283683068713,high,high,,ISIC_0064656.JPG,,ISIC_0663941.JPG,28,29,false,0.13,lh,keypress(e),0,true,725023.9000000954,725023.5,715370.41,715377,715386.999,725039.12,1,40,36,
sequence,flow.Sequence,8_35,2023-11-27T19:51:22.278Z,,,,,,,,,,,9636.501000000047,completion,,,,,,,high,high,,,,,,,false,,,,,true,725024.5,725023.5,715370.41,715376.9000000954,715386.999,725039.12,1,40,,
trial,html.Screen,8_36_0,2023-11-27T19:51:29.326Z,,,,2,0.0189295602385628,0.0128812415435153,,0.04,false,hl,7032.580000047688,response,0.9445114955578736,1.082619939861709,-1.0459278326959407,-1.0054210059625863,1.0967253197002564,-0.8628283683068713,high,low,,ISIC_0010372.JPG,,ISIC_0033807.JPG,28,26,false,0.18000000000000005,hh,keypress(i),0,true,732072.100000143,732071.7000000477,725022.608,725024.7000000477,725039.12,732086.155,1,40,37,
sequence,flow.Sequence,8_36,2023-11-27T19:51:29.327Z,,,,,,,,,,,7032.580000047688,completion,,,,,,,high,low,,,,,,,false,,,,,true,732072.600000143,732071.7000000477,725022.608,725024.7000000477,725039.12,732086.155,1,40,,
trial,html.Screen,8_37_0,2023-11-27T19:51:39.599Z,,,,2,0.0199897690678184,0.0312486875504497,,0.04,true,lh,10258.145000190707,response,-0.8588347582642082,1.082619939861709,-1.0459278326959407,0.8899503828496784,1.0967253197002564,-0.9128283683068713,low,high,,ISIC_5482426.JPG,,ISIC_0174983.JPG,28,26,false,0.2300000000000001,lh,keypress(e),0,true,742344.600000143,742344.3000001907,732069.657,732072.8000001907,732086.155,742356.199,1,40,38,
sequence,flow.Sequence,8_37,2023-11-27T19:51:39.599Z,,,,,,,,,,,10258.145000190707,completion,,,,,,,low,high,,,,,,,false,,,,,true,742345.2000000477,742344.3000001907,732069.657,732072.8000001907,732086.155,742356.199,1,40,,
trial,html.Screen,8_38_0,2023-11-27T19:51:48.462Z,,,,2,-0.0071892445601978,0.0246015408628738,,0.04,true,hl,8851.201000095345,response,1.1343164084491792,1.082619939861709,-1.0459278326959407,-0.7599392888539781,1.0467253197002564,-0.9128283683068713,high,low,,ISIC_0014133.JPG,,ISIC_0032265.JPG,28,25,false,0.20000000000000007,hl,keypress(j),0,true,751207.8000001907,751207.4000000954,742339.644,742345.4000000954,742356.199,751223.42,1,40,39,
sequence,flow.Sequence,8_38,2023-11-27T19:51:48.462Z,,,,,,,,,,,8851.201000095345,completion,,,,,,,high,low,,,,,,,false,,,,,true,751208.3000001907,751207.4000000954,742339.644,742345.3000001907,742356.199,751223.42,1,40,,
trial,html.Screen,8_39_0,2023-11-27T19:51:57.375Z,,,,2,-0.0050679133050021,-0.0174815595031679,,0.04,true,hl,8897.18000014301,response,1.1264523937924051,1.0326199398617089,-1.0459278326959407,-0.729579583367798,1.0467253197002564,-0.9128283683068713,high,low,,ISIC_9848743.JPG,,ISIC_0032095.JPG,28,26,false,0.19000000000000006,hl,keypress(j),0,true,760121.100000143,760120.600000143,751206.852,751208.5,751223.42,760124.156,1,40,40,
sequence,flow.Sequence,8_39,2023-11-27T19:51:57.376Z,,,,,,,,,,,8897.18000014301,completion,,,,,,,high,low,,,,,,,false,,,,,true,760121.8000001907,760120.600000143,751206.852,751208.5,751223.42,760124.156,1,40,,
stair_loop,flow.Loop,8,2023-11-27T19:51:57.376Z,,,,,,,,,,,267400.3970001431,completion,,,,,,,,,,,,,,,false,,,,,true,760122.100000143,760120.600000143,492703.743,492718,492720.203,760124.156,1,40,,
exp_instructions,html.Screen,9,2023-11-27T19:52:41.767Z,,,,,,,,,,,44386.544000047725,response,,,,,,,,,,,,,,,,,continue,keypress(Space),,,804511.5,804510.7000000477,760107.533,760122.2000000477,760124.156,804527.145,,,,
trial,html.Screen,10_0_0,2023-11-27T19:52:47.871Z,,,,1,-0.0118555311043871,-0.0087774532070196,,0.04,true,hh,6088.155000190716,response,0.9537595754201148,1.02210106872151,-1.0271668403970975,1.1342661775432377,1.1198922679313685,-1.0280227726384894,high,high,,ISIC_6488658.JPG,9,ISIC_0741694.JPG,28,29,false,0.13,hh,keypress(i),0,false,810615.600000143,810615.3000001907,804510.247,804512.100000143,804527.145,810639.099,5,600,1,
break,html.Screen,10_0_1,2023-11-27T19:52:47.873Z,,,,,,,,,,,NaN,,,,,,,,high,high,,,,,,,false,,,,,false,810617.100000143,810616.5,,810616,,810639.099,5,600,,
break_continue,html.Screen,10_0_2,2023-11-27T19:52:47.874Z,,,,,,,,,,,NaN,,,,,,,,high,high,,,,,,,false,,,,,false,810618.3000001907,810617.9000000954,,810617.5,,810639.099,5,600,,
sequence,flow.Sequence,10_0,2023-11-27T19:52:47.874Z,,,,,,,,,,,6090.755000095349,completion,,,,,,,high,high,,,,,,,false,,,,,false,810618.600000143,810617.9000000954,804510.247,804511.9000000954,804527.145,810639.099,5,600,,
trial,html.Screen,10_1_0,2023-11-27T19:52:51.984Z,,,,1,0.0189295602385628,0.0128812415435153,,0.04,false,hl,4088.601000047638,response,0.9445114955578736,1.02210106872151,-1.0271668403970975,-1.0054210059625863,1.1198922679313685,-1.0280227726384894,high,low,,ISIC_0010372.JPG,9,ISIC_0033807.JPG,28,28,false,0.22000000000000008,hh,keypress(i),0,false,814728,814727.7000000477,810605.848,810618.9000000954,810639.099,814730.444,5,600,2,
break,html.Screen,10_1_1,2023-11-27T19:52:51.985Z,,,,,,,,,,,NaN,,,,,,,,high,low,,,,,,,false,,,,,false,814729.100000143,814728.9000000954,,814728.3000001907,,814730.444,5,600,,
break_continue,html.Screen,10_1_2,2023-11-27T19:52:51.985Z,,,,,,,,,,,NaN,,,,,,,,high,low,,,,,,,false,,,,,false,814729.7000000477,814729.600000143,,814729.3000001907,,814730.444,5,600,,
sequence,flow.Sequence,10_1,2023-11-27T19:52:51.986Z,,,,,,,,,,,4090.5010001430055,completion,,,,,,,high,low,,,,,,,false,,,,,false,814730,814729.600000143,810605.848,810618.8000001907,810639.099,814730.444,5,600,,
trial,html.Screen,10_2_0,2023-11-27T19:52:55.887Z,,,,1,-0.0071892445601978,0.0246015408628738,,0.04,false,ll,3900.856000190717,response,-1.0103956367534752,1.02210106872151,-1.0271668403970975,-0.9950817758087226,1.1198922679313685,-1.0280227726384894,low,low,,ISIC_0014133.JPG,10,ISIC_0025267.JPG,28,36,false,0.1,hh,keypress(i),0,false,818631.600000143,818631.3000001907,814713.778,814730.2000000477,814730.444,818671.366,5,600,3,
break,html.Screen,10_2_1,2023-11-27T19:52:55.888Z,,,,,,,,,,,NaN,,,,,,,,low,low,,,,,,,false,,,,,false,818632.7000000477,818632.4000000954,,818632,,818671.366,5,600,,
break_continue,html.Screen,10_2_2,2023-11-27T19:52:55.889Z,,,,,,,,,,,NaN,,,,,,,,low,low,,,,,,,false,,,,,false,818633.4000000954,818633.100000143,,818632.9000000954,,818671.366,5,600,,
sequence,flow.Sequence,10_2,2023-11-27T19:52:55.889Z,,,,,,,,,,,3902.6560001430335,completion,,,,,,,low,low,,,,,,,false,,,,,false,818633.7000000477,818633.100000143,814713.778,814730.100000143,814730.444,818671.366,5,600,,
trial,html.Screen,10_3_0,2023-11-27T19:53:02.256Z,,,,1,-0.012020985739544,0.0126097407389903,,0.04,false,lh,6328.434000190697,response,-0.8035152873995188,1.02210106872151,-1.0271668403970975,1.2407642249743125,1.1198922679313685,-1.0280227726384894,low,high,,ISIC_0069379.JPG,9,ISIC_0010671.JPG,28,25,false,0.2300000000000001,ll,keypress(f),0,false,825000,824999.8000001907,818621.469,818633.9000000954,818671.366,825017.055,5,600,4,
break,html.Screen,10_3_1,2023-11-27T19:53:02.257Z,,,,,,,,,,,NaN,,,,,,,,low,high,,,,,,,false,,,,,false,825001.3000001907,825001,,825000.5,,825017.055,5,600,,
break_continue,html.Screen,10_3_2,2023-11-27T19:53:02.258Z,,,,,,,,,,,NaN,,,,,,,,low,high,,,,,,,false,,,,,false,825002,825001.8000001907,,825001.5,,825017.055,5,600,,
sequence,flow.Sequence,10_3,2023-11-27T19:53:02.258Z,,,,,,,,,,,6330.434000190697,completion,,,,,,,low,high,,,,,,,false,,,,,false,825002.3000001907,825001.8000001907,818621.469,818633.8000001907,818671.366,825017.055,5,600,,
trial,html.Screen,10_4_0,2023-11-27T19:53:09.880Z,,,,1,-0.0158987717472563,-0.0292472192292015,,0.04,true,lh,7606.444999999949,response,-0.8688859182707874,1.02210106872151,-1.0271668403970975,0.9566733172438716,1.1198922679313685,-1.0280227726384894,low,high,,ISIC_1366765.JPG,9,ISIC_0640770.JPG,28,25,false,0.2300000000000001,lh,keypress(e),0,false,832623.9000000954,832623.5,825000.573,825002.5,825017.055,832631.876,5,600,5,
break,html.Screen,10_4_1,2023-11-27T19:53:09.881Z,,,,,,,,,,,NaN,,,,,,,,low,high,,,,,,,false,,,,,false,832625.100000143,832624.8000001907,,832624.3000001907,,832631.876,5,600,,
break_continue,html.Screen,10_4_2,2023-11-27T19:53:09.882Z,,,,,,,,,,,NaN,,,,,,,,low,high,,,,,,,false,,,,,false,832625.9000000954,832625.7000000477,,832625.4000000954,,832631.876,5,600,,
sequence,flow.Sequence,10_4,2023-11-27T19:53:09.882Z,,,,,,,,,,,7608.6450000476325,completion,,,,,,,low,high,,,,,,,false,,,,,false,832626.100000143,832625.7000000477,825000.573,825002.5,825017.055,832631.876,5,600,,
trial,html.Screen,10_5_0,2023-11-27T19:53:14.328Z,,,,1,0.0063515208248796,0.0194177605767913,,0.04,true,ll,4440.02400009532,response,-1.0228768574896494,1.02210106872151,-1.0271668403970975,-0.9413691675751268,1.1198922679313685,-1.0280227726384894,low,low,,ISIC_5281908.JPG,8,ISIC_0063492.JPG,28,36,false,0.1,ll,keypress(f),0,false,837072.2000000477,837071.9000000954,832615.31,832626.4000000954,832631.876,837091.309,5,600,6,
break,html.Screen,10_5_1,2023-11-27T19:53:14.329Z,,,,,,,,,,,NaN,,,,,,,,low,low,,,,,,,false,,,,,false,837073.5,837073.2000000477,,837072.7000000477,,837091.309,5,600,,
break_continue,html.Screen,10_5_2,2023-11-27T19:53:14.330Z,,,,,,,,,,,NaN,,,,,,,,low,low,,,,,,,false,,,,,false,837074.4000000954,837074.100000143,,837073.9000000954,,837091.309,5,600,,
sequence,flow.Sequence,10_5,2023-11-27T19:53:14.330Z,,,,,,,,,,,4442.224000143004,completion,,,,,,,low,low,,,,,,,false,,,,,false,837074.7000000477,837074.100000143,832615.31,832626.4000000954,832631.876,837091.309,5,600,,
trial,html.Screen,10_6_0,2023-11-27T19:53:22.207Z,,,,1,0.0051046740562181,-0.0178832721027728,,0.04,false,lh,7860.091000095359,response,-1.0264463986917702,1.02210106872151,-1.0271668403970975,1.171271535505083,1.1198922679313685,-1.0280227726384894,low,high,,ISIC_9545819.JPG,9,ISIC_7889838.JPG,28,25,false,0.2300000000000001,hl,keypress(j),0,false,844951.8000001907,844951.4000000954,837057.281,837075,837091.309,844972.568,5,600,7,
break,html.Screen,10_6_1,2023-11-27T19:53:22.209Z,,,,,,,,,,,NaN,,,,,,,,low,high,,,,,,,false,,,,,false,844953,844952.7000000477,,844952.3000001907,,844972.568,5,600,,
break_continue,html.Screen,10_6_2,2023-11-27T19:53:22.209Z,,,,,,,,,,,NaN,,,,,,,,low,high,,,,,,,false,,,,,false,844953.8000001907,844953.600000143,,844953.3000001907,,844972.568,5,600,,
sequence,flow.Sequence,10_6,2023-11-27T19:53:22.210Z,,,,,,,,,,,7862.291000143043,completion,,,,,,,low,high,,,,,,,false,,,,,false,844954.100000143,844953.600000143,837057.281,837074.9000000954,837091.309,844972.568,5,600,,
trial,html.Screen,10_7_0,2023-11-27T19:53:27.344Z,,,,1,0.0365981355399771,0.0162670920008846,,0.04,false,lh,5115.332000095397,response,-1.155796217969438,1.02210106872151,-1.0271668403970975,1.1646564121743912,1.1198922679313685,-1.0280227726384894,low,high,,ISIC_0982855.JPG,8,ISIC_2685523.JPG,28,25,false,0.2300000000000001,ll,keypress(f),0,false,850088.3000001907,850087.9000000954,844939.134,844954.3000001907,844972.568,850099.215,5,600,8,
break,html.Screen,10_7_1,2023-11-27T19:53:27.345Z,,,,,,,,,,,NaN,,,,,,,,low,high,,,,,,,false,,,,,false,850089.5,850089.2000000477,,850088.7000000477,,850099.215,5,600,,
break_continue,html.Screen,10_7_2,2023-11-27T19:53:27.346Z,,,,,,,,,,,NaN,,,,,,,,low,high,,,,,,,false,,,,,false,850090.3000001907,850090.100000143,,850089.8000001907,,850099.215,5,600,,
sequence,flow.Sequence,10_7,2023-11-27T19:53:27.346Z,,,,,,,,,,,5117.532000143081,completion,,,,,,,low,high,,,,,,,false,,,,,false,850090.7000000477,850090.100000143,844939.134,844954.3000001907,844972.568,850099.215,5,600,,
trial,html.Screen,10_8_0,2023-11-27T19:53:32.487Z,,,,1,-0.0071892445601978,0.0246015408628738,,0.04,true,hh,5132.1850000954,response,0.9991910338212396,1.02210106872151,-1.0271668403970975,1.0085499824556403,1.1198922679313685,-1.0280227726384894,high,high,,ISIC_0014133.JPG,9,ISIC_7795549.JPG,28,29,false,0.13,hh,keypress(i),0,false,855231.8000001907,855231.4000000954,850082.623,850090.9000000954,850099.215,855242.556,5,600,9,
break,html.Screen,10_8_1,2023-11-27T19:53:32.489Z,,,,,,,,,,,NaN,,,,,,,,high,high,,,,,,,false,,,,,false,855233,855232.7000000477,,855232.2000000477,,855242.556,5,600,,
break_continue,html.Screen,10_8_2,2023-11-27T19:53:32.489Z,,,,,,,,,,,NaN,,,,,,,,high,high,,,,,,,false,,,,,false,855233.7000000477,855233.5,,855233.2000000477,,855242.556,5,600,,
sequence,flow.Sequence,10_8,2023-11-27T19:53:32.490Z,,,,,,,,,,,5134.285000000033,completion,,,,,,,high,high,,,,,,,false,,,,,false,855234.100000143,855233.5,850082.623,850090.9000000954,850099.215,855242.556,5,600,,
trial,html.Screen,10_9_0,2023-11-27T19:53:39.912Z,,,,1,-0.0060918352854008,0.029032683404407,,0.04,true,hl,7413.344000095385,response,0.9445114955578736,1.02210106872151,-1.0271668403970975,-1.0054210059625863,1.1198922679313685,-1.0280227726384894,high,low,,ISIC_8436194.JPG,9,ISIC_0033807.JPG,28,28,false,0.22000000000000008,hl,keypress(j),0,false,862656.2000000477,862655.9000000954,855226.087,855234.3000001907,855242.556,862673.882,5,600,10,
break,html.Screen,10_9_1,2023-11-27T19:53:39.913Z,,,,,,,,,,,NaN,,,,,,,,high,low,,,,,,,false,,,,,false,862657.4000000954,862657.100000143,,862656.600000143,,862673.882,5,600,,
break_continue,html.Screen,10_9_2,2023-11-27T19:53:39.914Z,,,,,,,,,,,NaN,,,,,,,,high,low,,,,,,,false,,,,,false,862658.2000000477,862658,,862657.7000000477,,862673.882,5,600,,
sequence,flow.Sequence,10_9,2023-11-27T19:53:39.914Z,,,,,,,,,,,7415.444000000018,completion,,,,,,,high,low,,,,,,,false,,,,,false,862658.4000000954,862658,855226.087,855234.3000001907,855242.556,862673.882,5,600,,
trial,html.Screen,10_10_0,2023-11-27T19:53:43.969Z,,,,1,0.0127320821962457,-0.0315308940184827,,0.04,true,hh,4037.518000095384,response,1.1217390688497193,1.02210106872151,-1.0271668403970975,1.2276600934505035,1.1198922679313685,-1.0280227726384894,high,high,,ISIC_8156101.JPG,9,ISIC_0026344.JPG,28,29,false,0.13,hh,keypress(i),0,false,866711.7000000477,866711.4000000954,862657.123,862658.7000000477,862673.882,866714.967,5,600,11,
break,html.Screen,10_10_1,2023-11-27T19:53:43.970Z,,,,,,,,,,,NaN,,,,,,,,high,high,,,,,,,false,,,,,false,866712.9000000954,866712.600000143,,866712,,866714.967,5,600,,
break_continue,html.Screen,10_10_2,2023-11-27T19:53:43.971Z,,,,,,,,,,,NaN,,,,,,,,high,high,,,,,,,false,,,,,false,866713.7000000477,866713.4000000954,,866713.2000000477,,866714.967,5,600,,
sequence,flow.Sequence,10_10,2023-11-27T19:53:43.971Z,,,,,,,,,,,4039.518000095384,completion,,,,,,,high,high,,,,,,,false,,,,,false,866713.9000000954,866713.4000000954,862657.123,862658.7000000477,862673.882,866714.967,5,600,,
trial,html.Screen,10_11_0,2023-11-27T19:53:47.105Z,,,,1,-0.0023664502831079,-0.0252784582169994,,0.04,true,hh,3132.833000190789,response,1.1217390688497193,1.02210106872151,-1.0271668403970975,1.2276600934505035,1.1198922679313685,-1.0280227726384894,high,high,,ISIC_4156010.JPG,8,ISIC_0026344.JPG,28,29,false,0.13,hh,keypress(i),0,false,869848.100000143,869847.8000001907,866698.42,866714.2000000477,866714.967,869854.33,5,600,12,
break,html.Screen,10_11_1,2023-11-27T19:53:47.106Z,,,,,,,,,,,NaN,,,,,,,,high,high,,,,,,,false,,,,,false,869849.4000000954,869849.100000143,,869848.600000143,,869854.33,5,600,,
break_continue,html.Screen,10_11_2,2023-11-27T19:53:47.107Z,,,,,,,,,,,NaN,,,,,,,,high,high,,,,,,,false,,,,,false,869850.2000000477,869850,,869849.7000000477,,869854.33,5,600,,
sequence,flow.Sequence,10_11,2023-11-27T19:53:47.107Z,,,,,,,,,,,3135.033000000054,completion,,,,,,,high,high,,,,,,,false,,,,,false,869850.5,869850,866698.42,866714.100000143,866714.967,869854.33,5,600,,
trial,html.Screen,10_12_0,2023-11-27T19:53:52.386Z,,,,1,0.0189295602385628,0.0128812415435153,,0.04,true,ll,5273.870000047726,response,-0.9453986743399044,1.02210106872151,-1.0271668403970975,-1.1220583709928147,1.1198922679313685,-1.0280227726384894,low,low,,ISIC_0010372.JPG,8,ISIC_0068696.JPG,28,36,false,0.1,ll,keypress(f),0,false,875128.600000143,875128.2000000477,869837.855,869850.8000001907,869854.33,875131.364,5,600,13,
break,html.Screen,10_12_1,2023-11-27T19:53:52.387Z,,,,,,,,,,,NaN,,,,,,,,low,low,,,,,,,false,,,,,false,875129.8000001907,875129.5,,875129.100000143,,875131.364,5,600,,
break_continue,html.Screen,10_12_2,2023-11-27T19:53:52.388Z,,,,,,,,,,,NaN,,,,,,,,low,low,,,,,,,false,,,,,false,875130.600000143,875130.3000001907,,875130.100000143,,875131.364,5,600,,
sequence,flow.Sequence,10_12,2023-11-27T19:53:52.388Z,,,,,,,,,,,5275.970000190777,completion,,,,,,,low,low,,,,,,,false,,,,,false,875130.9000000954,875130.3000001907,869837.855,869850.8000001907,869854.33,875131.364,5,600,,
trial,html.Screen,10_13_0,2023-11-27T19:53:59.633Z,,,,1,0.0367218428225813,-0.0026956749740767,,0.04,false,hl,7244.236000143108,response,0.8152354890677903,1.02210106872151,-1.0271668403970975,-1.10470584815077,1.1198922679313685,-1.0280227726384894,high,low,,ISIC_7212271.JPG,9,ISIC_0010283.JPG,28,28,false,0.22000000000000008,lh,keypress(e),0,false,882375.9000000954,882375.600000143,875114.67,875131.2000000477,875131.364,882378.755,5,600,14,
break,html.Screen,10_13_1,2023-11-27T19:53:59.634Z,,,,,,,,,,,NaN,,,,,,,,high,low,,,,,,,false,,,,,false,882377.100000143,882376.8000001907,,882376.3000001907,,882378.755,5,600,,
break_continue,html.Screen,10_13_2,2023-11-27T19:53:59.635Z,,,,,,,,,,,NaN,,,,,,,,high,low,,,,,,,false,,,,,false,882377.7000000477,882377.5,,882377.3000001907,,882378.755,5,600,,
sequence,flow.Sequence,10_13,2023-11-27T19:53:59.635Z,,,,,,,,,,,7246.136000000057,completion,,,,,,,high,low,,,,,,,false,,,,,false,882378,882377.5,875114.67,875131.2000000477,875131.364,882378.755,5,600,,
trial,html.Screen,10_14_0,2023-11-27T19:54:04.401Z,,,,1,-0.0118555311043871,-0.0087774532070196,,0.04,false,ll,4765.04500019073,response,-0.968277930473984,1.02210106872151,-1.0271668403970975,-1.0901346674420178,1.1198922679313685,-1.0280227726384894,low,low,,ISIC_6488658.JPG,8,ISIC_0519386.JPG,28,36,false,0.1,hh,keypress(i),0,false,887144.2000000477,887143.8000001907,882362.257,882378.2000000477,882378.755,887154.655,5,600,15,
break,html.Screen,10_14_1,2023-11-27T19:54:04.402Z,,,,,,,,,,,NaN,,,,,,,,low,low,,,,,,,false,,,,,false,887145.4000000954,887145.100000143,,887144.600000143,,887154.655,5,600,,
break_continue,html.Screen,10_14_2,2023-11-27T19:54:04.403Z,,,,,,,,,,,NaN,,,,,,,,low,low,,,,,,,false,,,,,false,887146.2000000477,887146,,887145.7000000477,,887154.655,5,600,,
sequence,flow.Sequence,10_14,2023-11-27T19:54:04.404Z,,,,,,,,,,,4767.244999999995,completion,,,,,,,low,low,,,,,,,false,,,,,false,887146.5,887146,882362.257,882378.100000143,882378.755,887154.655,5,600,,
trial,html.Screen,10_15_0,2023-11-27T19:54:09.209Z,,,,1,-0.0057914759495055,0.018500200317654,,0.04,false,ll,4796.945000143023,response,-1.0193735734252425,1.02210106872151,-1.0271668403970975,-0.9365358249762208,1.1198922679313685,-1.0280227726384894,low,low,,ISIC_0058723.JPG,8,ISIC_0071951.JPG,28,36,false,0.1,hh,keypress(i),0,false,891952,891951.600000143,887138.081,887146.8000001907,887154.655,891964.019,5,600,16,
break,html.Screen,10_15_1,2023-11-27T19:54:09.210Z,,,,,,,,,,,NaN,,,,,,,,low,low,,,,,,,false,,,,,false,891953.3000001907,891952.9000000954,,891952.4000000954,,891964.019,5,600,,
break_continue,html.Screen,10_15_2,2023-11-27T19:54:09.211Z,,,,,,,,,,,NaN,,,,,,,,low,low,,,,,,,false,,,,,false,891954.100000143,891953.9000000954,,891953.5,,891964.019,5,600,,
sequence,flow.Sequence,10_15,2023-11-27T19:54:09.211Z,,,,,,,,,,,4799.2450000953395,completion,,,,,,,low,low,,,,,,,false,,,,,false,891954.4000000954,891953.9000000954,887138.081,887146.7000000477,887154.655,891964.019,5,600,,
trial,html.Screen,10_16_0,2023-11-27T19:54:13.185Z,,,,1,-0.0158987717472563,-0.0292472192292015,,0.04,true,hh,3963.7810001907637,response,1.0831477774866454,1.02210106872151,-1.0271668403970975,1.0347343776726454,1.1198922679313685,-1.0280227726384894,high,high,,ISIC_1366765.JPG,10,ISIC_9475559.JPG,28,29,false,0.13,hh,keypress(i),0,false,895928.100000143,895927.8000001907,891947.498,891954.7000000477,891964.019,895938.435,5,600,17,
break,html.Screen,10_16_1,2023-11-27T19:54:13.186Z,,,,,,,,,,,NaN,,,,,,,,high,high,,,,,,,false,,,,,false,895929.3000001907,895929,,895928.600000143,,895938.435,5,600,,
break_continue,html.Screen,10_16_2,2023-11-27T19:54:13.187Z,,,,,,,,,,,NaN,,,,,,,,high,high,,,,,,,false,,,,,false,895930.100000143,895929.8000001907,,895929.600000143,,895938.435,5,600,,
sequence,flow.Sequence,10_16,2023-11-27T19:54:13.187Z,,,,,,,,,,,3965.7810001907637,completion,,,,,,,high,high,,,,,,,false,,,,,false,895930.5,895929.8000001907,891947.498,891954.600000143,891964.019,895938.435,5,600,,
trial,html.Screen,10_17_0,2023-11-27T19:54:21.263Z,,,,1,0.0199897690678184,0.0312486875504497,,0.04,true,lh,8067.765000047628,response,-0.8588347582642082,1.02210106872151,-1.0271668403970975,0.8899503828496784,1.1198922679313685,-1.0280227726384894,low,high,,ISIC_5482426.JPG,9,ISIC_0174983.JPG,28,25,false,0.2300000000000001,lh,keypress(e),0,false,904006.4000000954,904006.2000000477,895921.969,895930.7000000477,895938.435,904020.818,5,600,18,
break,html.Screen,10_17_1,2023-11-27T19:54:21.264Z,,,,,,,,,,,NaN,,,,,,,,low,high,,,,,,,false,,,,,false,904006.7000000477,904006.7000000477,,904006.5,,904020.818,5,600,,
break_continue,html.Screen,10_17_2,2023-11-27T19:54:21.264Z,,,,,,,,,,,NaN,,,,,,,,low,high,,,,,,,false,,,,,false,904006.9000000954,904006.9000000954,,904006.8000001907,,904020.818,5,600,,
sequence,flow.Sequence,10_17,2023-11-27T19:54:21.264Z,,,,,,,,,,,8068.465000095312,completion,,,,,,,low,high,,,,,,,false,,,,,false,904007,904006.9000000954,895921.969,895930.600000143,895938.435,904020.818,5,600,,
trial,html.Screen,10_18_0,2023-11-27T19:54:25.089Z,,,,1,-0.0350697500805515,-0.0166617848231997,,0.04,false,hl,3810.8820000477135,response,0.9039158082670506,1.02210106872151,-1.0271668403970975,-1.0517562064343149,1.1198922679313685,-1.0280227726384894,high,low,,ISIC_0024423.JPG,9,ISIC_0015411.JPG,28,28,false,0.22000000000000008,hh,keypress(i),0,false,907831.9000000954,907831.7000000477,904004.253,904007,904020.818,907844.944,5,600,19,
break,html.Screen,10_18_1,2023-11-27T19:54:25.090Z,,,,,,,,,,,NaN,,,,,,,,high,low,,,,,,,false,,,,,false,907833.2000000477,907832.9000000954,,907832.4000000954,,907844.944,5,600,,
break_continue,html.Screen,10_18_2,2023-11-27T19:54:25.091Z,,,,,,,,,,,NaN,,,,,,,,high,low,,,,,,,false,,,,,false,907834.100000143,907833.8000001907,,907833.5,,907844.944,5,600,,
sequence,flow.Sequence,10_18,2023-11-27T19:54:25.091Z,,,,,,,,,,,3812.9820001907647,completion,,,,,,,high,low,,,,,,,false,,,,,false,907834.3000001907,907833.8000001907,904004.253,904007,904020.818,907844.944,5,600,,
trial,html.Screen,10_19_0,2023-11-27T19:54:31.225Z,,,,1,0.0361875505619981,-0.0291457404567876,,0.04,false,hl,6122.656000143033,response,1.1224745971429997,1.02210106872151,-1.0271668403970975,-0.8423270217438888,1.1198922679313685,-1.0280227726384894,high,low,,ISIC_0027480.JPG,9,ISIC_0057032.JPG,28,28,false,0.22000000000000008,hh,keypress(i),0,false,913967.9000000954,913967.600000143,907828.322,907834.600000143,907844.944,913990.434,5,600,20,
break,html.Screen,10_19_1,2023-11-27T19:54:31.226Z,,,,,,,,,,,NaN,,,,,,,,high,low,,,,,,,false,,,,,false,913969.100000143,913968.9000000954,,913968.3000001907,,913990.434,5,600,,
break_continue,html.Screen,10_19_2,2023-11-27T19:54:31.227Z,,,,,,,,,,,NaN,,,,,,,,high,low,,,,,,,false,,,,,false,913969.8000001907,913969.5,,913969.3000001907,,913990.434,5,600,,
sequence,flow.Sequence,10_19,2023-11-27T19:54:31.227Z,,,,,,,,,,,6124.555999999982,completion,,,,,,,high,low,,,,,,,false,,,,,false,913970.100000143,913969.5,907828.322,907834.4000000954,907844.944,913990.434,5,600,,
trial,html.Screen,10_20_0,2023-11-27T19:54:34.745Z,,,,1,-0.0057914759495055,0.018500200317654,,0.04,true,ll,3497.3660001907265,response,-1.0762260610050776,1.02210106872151,-1.0271668403970975,-1.1184338818466155,1.1198922679313685,-1.0280227726384894,low,low,,ISIC_0058723.JPG,9,ISIC_0058666.JPG,28,36,false,0.1,ll,keypress(f),0,false,917488.100000143,917487.8000001907,913973.556,913970.3000001907,913990.434,917497.065,5,600,21,
break,html.Screen,10_20_1,2023-11-27T19:54:34.746Z,,,,,,,,,,,NaN,,,,,,,,low,low,,,,,,,false,,,,,false,917489.2000000477,917489,,917488.5,,917497.065,5,600,,
break_continue,html.Screen,10_20_2,2023-11-27T19:54:34.747Z,,,,,,,,,,,NaN,,,,,,,,low,low,,,,,,,false,,,,,false,917490,917489.7000000477,,917489.4000000954,,917497.065,5,600,,
sequence,flow.Sequence,10_20,2023-11-27T19:54:34.747Z,,,,,,,,,,,3499.2660000476753,completion,,,,,,,low,low,,,,,,,false,,,,,false,917490.2000000477,917489.7000000477,913973.556,913970.3000001907,913990.434,917497.065,5,600,,
trial,html.Screen,10_21_0,2023-11-27T19:54:37.744Z,,,,1,-0.0057914759495055,0.018500200317654,,0.04,true,hh,2989.435000000056,response,1.011737552725394,1.02210106872151,-1.0271668403970975,1.0893360711742854,1.1198922679313685,-1.0280227726384894,high,high,,ISIC_0058723.JPG,9,ISIC_2998367.JPG,28,29,false,0.13,hh,keypress(i),0,false,920486.600000143,920486.5,917480.558,917490.5,917497.065,920502.909,5,600,22,
break,html.Screen,10_21_1,2023-11-27T19:54:37.744Z,,,,,,,,,,,NaN,,,,,,,,high,high,,,,,,,false,,,,,false,920487,920486.9000000954,,920486.8000001907,,920502.909,5,600,,
break_continue,html.Screen,10_21_2,2023-11-27T19:54:37.744Z,,,,,,,,,,,NaN,,,,,,,,high,high,,,,,,,false,,,,,false,920487.100000143,920487,,920487,,920502.909,5,600,,
sequence,flow.Sequence,10_21,2023-11-27T19:54:37.744Z,,,,,,,,,,,2989.935000000056,completion,,,,,,,high,high,,,,,,,false,,,,,false,920487.2000000477,920487,917480.558,917490.3000001907,917497.065,920502.909,5,600,,
trial,html.Screen,10_22_0,2023-11-27T19:54:40.761Z,,,,1,-0.0050679133050021,-0.0174815595031679,,0.04,false,hl,3000.8910001907498,response,1.225025174430573,1.02210106872151,-1.0271668403970975,-0.8422679054456499,1.1198922679313685,-1.0280227726384894,high,low,,ISIC_9848743.JPG,10,ISIC_7503950.JPG,28,28,false,0.22000000000000008,hh,keypress(i),0,false,923504.2000000477,923503.8000001907,920486.42,920487.3000001907,920502.909,923508.766,5,600,23,
break,html.Screen,10_22_1,2023-11-27T19:54:40.762Z,,,,,,,,,,,NaN,,,,,,,,high,low,,,,,,,false,,,,,false,923505.3000001907,923505,,923504.600000143,,923508.766,5,600,,
break_continue,html.Screen,10_22_2,2023-11-27T19:54:40.763Z,,,,,,,,,,,NaN,,,,,,,,high,low,,,,,,,false,,,,,false,923506.100000143,923505.8000001907,,923505.5,,923508.766,5,600,,
sequence,flow.Sequence,10_22,2023-11-27T19:54:40.763Z,,,,,,,,,,,3002.8910001907498,completion,,,,,,,high,low,,,,,,,false,,,,,false,923506.4000000954,923505.8000001907,920486.42,920487.3000001907,920502.909,923508.766,5,600,,
trial,html.Screen,10_23_0,2023-11-27T19:54:44.761Z,,,,1,0.0361875505619981,-0.0291457404567876,,0.04,false,lh,3993.834000143106,response,-0.8709576717420565,1.02210106872151,-1.0271668403970975,1.2795156779072283,1.1198922679313685,-1.0280227726384894,low,high,,ISIC_0027480.JPG,10,ISIC_1925632.JPG,28,25,false,0.2300000000000001,hh,keypress(i),0,false,927502.7000000477,927502.600000143,923492.283,923506.600000143,923508.766,927516.577,5,600,24,
break,html.Screen,10_23_1,2023-11-27T19:54:44.761Z,,,,,,,,,,,NaN,,,,,,,,low,high,,,,,,,false,,,,,false,927503,927503,,927502.7000000477,,927516.577,5,600,,
break_continue,html.Screen,10_23_2,2023-11-27T19:54:44.761Z,,,,,,,,,,,NaN,,,,,,,,low,high,,,,,,,false,,,,,false,927503.100000143,927503.100000143,,927503.100000143,,927516.577,5,600,,
sequence,flow.Sequence,10_23,2023-11-27T19:54:44.761Z,,,,,,,,,,,3994.334000143106,completion,,,,,,,low,high,,,,,,,false,,,,,false,927503.2000000477,927503.100000143,923492.283,923506.600000143,923508.766,927516.577,5,600,,
trial,html.Screen,10_24_0,2023-11-27T19:54:50.426Z,,,,1,0.0365981355399771,0.0162670920008846,,0.04,true,hl,5651.123000047635,response,0.9087169856594104,1.02210106872151,-1.0271668403970975,-0.8835647084207277,1.1198922679313685,-1.0280227726384894,high,low,,ISIC_0982855.JPG,9,ISIC_0000349.JPG,28,28,false,0.22000000000000008,hl,keypress(j),0,false,933168,933167.7000000477,927500.019,927503.3000001907,927516.577,933177.586,5,600,25,
break,html.Screen,10_24_1,2023-11-27T19:54:50.427Z,,,,,,,,,,,NaN,,,,,,,,high,low,,,,,,,false,,,,,false,933169.2000000477,933169,,933168.5,,933177.586,5,600,,
break_continue,html.Screen,10_24_2,2023-11-27T19:54:50.428Z,,,,,,,,,,,NaN,,,,,,,,high,low,,,,,,,false,,,,,false,933170,933169.7000000477,,933169.5,,933177.586,5,600,,
sequence,flow.Sequence,10_24,2023-11-27T19:54:50.428Z,,,,,,,,,,,5653.123000047635,completion,,,,,,,high,low,,,,,,,false,,,,,false,933170.3000001907,933169.7000000477,927500.019,927503.3000001907,927516.577,933177.586,5,600,,
trial,html.Screen,10_25_0,2023-11-27T19:55:02.939Z,,,,1,-0.0060918352854008,0.029032683404407,,0.04,false,hl,12502.51400014304,response,0.8479396253253069,1.02210106872151,-1.0271668403970975,-1.011054319516718,1.1198922679313685,-1.0280227726384894,high,low,,ISIC_8436194.JPG,9,ISIC_0063521.JPG,28,28,false,0.22000000000000008,lh,keypress(e),0,false,945680.4000000954,945680.100000143,933161.116,933170.600000143,933177.586,945685.279,5,600,26,
break,html.Screen,10_25_1,2023-11-27T19:55:02.940Z,,,,,,,,,,,NaN,,,,,,,,high,low,,,,,,,false,,,,,false,945681.600000143,945681.3000001907,,945680.8000001907,,945685.279,5,600,,
break_continue,html.Screen,10_25_2,2023-11-27T19:55:02.941Z,,,,,,,,,,,NaN,,,,,,,,high,low,,,,,,,false,,,,,false,945682.4000000954,945682.2000000477,,945681.9000000954,,945685.279,5,600,,
sequence,flow.Sequence,10_25,2023-11-27T19:55:02.941Z,,,,,,,,,,,12504.614000047673,completion,,,,,,,high,low,,,,,,,false,,,,,false,945682.7000000477,945682.2000000477,933161.116,933170.4000000954,933177.586,945685.279,5,600,,
trial,html.Screen,10_26_0,2023-11-27T19:55:06.058Z,,,,1,0.0321039635696159,0.020496766286318,,0.04,true,hh,3114.4210000477033,response,0.8966918590347848,1.02210106872151,-1.0271668403970975,1.078424090533439,1.1198922679313685,-1.0280227726384894,high,high,,ISIC_0058063.JPG,9,ISIC_0034193.JPG,28,29,false,0.13,hh,keypress(i),0,false,948800.100000143,948799.7000000477,945668.724,945682.9000000954,945685.279,948807.997,5,600,27,
break,html.Screen,10_26_1,2023-11-27T19:55:06.060Z,,,,,,,,,,,NaN,,,,,,,,high,high,,,,,,,false,,,,,false,948801.3000001907,948801.100000143,,948800.600000143,,948807.997,5,600,,
break_continue,html.Screen,10_26_2,2023-11-27T19:55:06.060Z,,,,,,,,,,,NaN,,,,,,,,high,high,,,,,,,false,,,,,false,948802.100000143,948801.8000001907,,948801.600000143,,948807.997,5,600,,
sequence,flow.Sequence,10_26,2023-11-27T19:55:06.061Z,,,,,,,,,,,3116.5210001907544,completion,,,,,,,high,high,,,,,,,false,,,,,false,948802.4000000954,948801.8000001907,945668.724,945682.8000001907,945685.279,948807.997,5,600,,
trial,html.Screen,10_27_0,2023-11-27T19:55:13.259Z,,,,1,0.0327772618698018,-0.0056908372048728,,0.04,true,hh,7192.103000143077,response,0.9584046290108544,1.02210106872151,-1.0271668403970975,1.2089382903602173,1.1198922679313685,-1.0280227726384894,high,high,,ISIC_7897925.JPG,9,ISIC_4874581.JPG,28,29,false,0.13,hh,keypress(i),0,false,956000.4000000954,956000.100000143,948791.546,948802.600000143,948807.997,956005.357,5,600,28,
break,html.Screen,10_27_1,2023-11-27T19:55:13.260Z,,,,,,,,,,,NaN,,,,,,,,high,high,,,,,,,false,,,,,false,956001.600000143,956001.4000000954,,956000.8000001907,,956005.357,5,600,,
break_continue,html.Screen,10_27_2,2023-11-27T19:55:13.261Z,,,,,,,,,,,NaN,,,,,,,,high,high,,,,,,,false,,,,,false,956002.4000000954,956002.100000143,,956001.8000001907,,956005.357,5,600,,
sequence,flow.Sequence,10_27,2023-11-27T19:55:13.261Z,,,,,,,,,,,7194.103000143077,completion,,,,,,,high,high,,,,,,,false,,,,,false,956002.7000000477,956002.100000143,948791.546,948802.600000143,948807.997,956005.357,5,600,,
trial,html.Screen,10_28_0,2023-11-27T19:55:21.865Z,,,,1,0.0086413421586899,0.0360184993500958,,0.04,true,lh,8600.943000190775,response,-1.1547137855907486,1.02210106872151,-1.0271668403970975,1.0185275168641534,1.1198922679313685,-1.0280227726384894,low,high,,ISIC_0010767.JPG,9,ISIC_7604870.JPG,28,25,false,0.2300000000000001,lh,keypress(e),0,false,964606.3000001907,964606.3000001907,955988.868,956002.9000000954,956005.357,964622.112,5,600,29,
break,html.Screen,10_28_1,2023-11-27T19:55:21.865Z,,,,,,,,,,,NaN,,,,,,,,low,high,,,,,,,false,,,,,false,964606.8000001907,964606.7000000477,,964606.5,,964622.112,5,600,,
break_continue,html.Screen,10_28_2,2023-11-27T19:55:21.865Z,,,,,,,,,,,NaN,,,,,,,,low,high,,,,,,,false,,,,,false,964606.9000000954,964606.9000000954,,964606.9000000954,,964622.112,5,600,,
sequence,flow.Sequence,10_28,2023-11-27T19:55:21.865Z,,,,,,,,,,,8601.543000095407,completion,,,,,,,low,high,,,,,,,false,,,,,false,964607,964606.9000000954,955988.868,956002.9000000954,956005.357,964622.112,5,600,,
trial,html.Screen,10_29_0,2023-11-27T19:55:25.730Z,,,,1,-0.0350697500805515,-0.0166617848231997,,0.04,false,hl,3849.588000047719,response,0.9385447468573198,1.02210106872151,-1.0271668403970975,-1.2289860846064424,1.1198922679313685,-1.0280227726384894,high,low,,ISIC_0024423.JPG,9,ISIC_0032780.JPG,28,28,false,0.22000000000000008,hh,keypress(i),0,false,968472.100000143,968471.7000000477,964605.639,964607,964622.112,968479.637,5,600,30,
break,html.Screen,10_29_1,2023-11-27T19:55:25.731Z,,,,,,,,,,,NaN,,,,,,,,high,low,,,,,,,false,,,,,false,968473.2000000477,968472.9000000954,,968472.5,,968479.637,5,600,,
break_continue,html.Screen,10_29_2,2023-11-27T19:55:25.732Z,,,,,,,,,,,NaN,,,,,,,,high,low,,,,,,,false,,,,,false,968473.8000001907,968473.600000143,,968473.3000001907,,968479.637,5,600,,
sequence,flow.Sequence,10_29,2023-11-27T19:55:25.732Z,,,,,,,,,,,3851.4880001430865,completion,,,,,,,high,low,,,,,,,false,,,,,false,968474.100000143,968473.600000143,964605.639,964607,964622.112,968479.637,5,600,,
trial,html.Screen,10_30_0,2023-11-27T19:55:31.641Z,,,,1,-0.0023664502831079,-0.0252784582169994,,0.04,false,hh,5902.663000190747,response,1.1513073368404492,1.02210106872151,-1.0271668403970975,1.0485268550965705,1.1198922679313685,-1.0280227726384894,high,high,,ISIC_4156010.JPG,9,ISIC_0030666.JPG,28,29,false,0.13,lh,keypress(e),0,false,974382.4000000954,974382.3000001907,968463.176,968474.4000000954,968479.637,974391.157,5,600,31,
break,html.Screen,10_30_1,2023-11-27T19:55:31.641Z,,,,,,,,,,,NaN,,,,,,,,high,high,,,,,,,false,,,,,false,974382.8000001907,974382.8000001907,,974382.600000143,,974391.157,5,600,,
break_continue,html.Screen,10_30_2,2023-11-27T19:55:31.641Z,,,,,,,,,,,NaN,,,,,,,,high,high,,,,,,,false,,,,,false,974383,974382.9000000954,,974382.9000000954,,974391.157,5,600,,
sequence,flow.Sequence,10_30,2023-11-27T19:55:31.641Z,,,,,,,,,,,5903.2630000953795,completion,,,,,,,high,high,,,,,,,false,,,,,false,974383,974382.9000000954,968463.176,968474.3000001907,968479.637,974391.157,5,600,,
trial,html.Screen,10_31_0,2023-11-27T19:55:36.249Z,,,,1,0.0127320821962457,-0.0315308940184827,,0.04,false,hl,4599.3429999999935,response,0.8069690440362255,1.02210106872151,-1.0271668403970975,-0.8262727717500657,1.1198922679313685,-1.0280227726384894,high,low,,ISIC_8156101.JPG,9,ISIC_0028469.JPG,28,28,false,0.22000000000000008,hh,keypress(i),0,false,978990.600000143,978990.5,974374.652,974383.2000000477,974391.157,979000.098,5,600,32,
break,html.Screen,10_31_1,2023-11-27T19:55:36.249Z,,,,,,,,,,,NaN,,,,,,,,high,low,,,,,,,false,,,,,false,978991,978991,,978990.7000000477,,979000.098,5,600,,
break_continue,html.Screen,10_31_2,2023-11-27T19:55:36.250Z,,,,,,,,,,,NaN,,,,,,,,high,low,,,,,,,false,,,,,false,978991.4000000954,978991.2000000477,,978991.2000000477,,979000.098,5,600,,
sequence,flow.Sequence,10_31,2023-11-27T19:55:36.250Z,,,,,,,,,,,4600.043000047677,completion,,,,,,,high,low,,,,,,,false,,,,,false,978991.4000000954,978991.2000000477,974374.652,974383.2000000477,974391.157,979000.098,5,600,,
trial,html.Screen,10_32_0,2023-11-27T19:55:41.489Z,,,,1,-0.0071892445601978,0.0246015408628738,,0.04,true,lh,5231.002000143053,response,-0.8688859182707874,1.02210106872151,-1.0271668403970975,0.9566733172438716,1.1198922679313685,-1.0280227726384894,low,high,,ISIC_0014133.JPG,9,ISIC_0640770.JPG,28,25,false,0.2300000000000001,lh,keypress(e),0,false,984231.2000000477,984231.100000143,978983.423,978991.5,979000.098,984260.371,5,600,33,
break,html.Screen,10_32_1,2023-11-27T19:55:41.490Z,,,,,,,,,,,NaN,,,,,,,,low,high,,,,,,,false,,,,,false,984232,984231.8000001907,,984231.5,,984260.371,5,600,,
break_continue,html.Screen,10_32_2,2023-11-27T19:55:41.491Z,,,,,,,,,,,NaN,,,,,,,,low,high,,,,,,,false,,,,,false,984232.4000000954,984232.2000000477,,984232.2000000477,,984260.371,5,600,,
sequence,flow.Sequence,10_32,2023-11-27T19:55:41.491Z,,,,,,,,,,,5232.102000047686,completion,,,,,,,low,high,,,,,,,false,,,,,false,984232.600000143,984232.2000000477,978983.423,978991.5,979000.098,984260.371,5,600,,
trial,html.Screen,10_33_0,2023-11-27T19:55:45.867Z,,,,1,-0.0118555311043871,-0.0087774532070196,,0.04,false,lh,4347.229000143008,response,-1.1592423187534993,1.02210106872151,-1.0271668403970975,1.067128884093211,1.1198922679313685,-1.0280227726384894,low,high,,ISIC_6488658.JPG,10,ISIC_6854940.JPG,28,25,false,0.2300000000000001,hh,keypress(i),0,false,988608,988607.600000143,984244.496,984232.8000001907,984260.371,988618.819,5,600,34,
break,html.Screen,10_33_1,2023-11-27T19:55:45.868Z,,,,,,,,,,,NaN,,,,,,,,low,high,,,,,,,false,,,,,false,988609.100000143,988608.9000000954,,988608.4000000954,,988618.819,5,600,,
break_continue,html.Screen,10_33_2,2023-11-27T19:55:45.869Z,,,,,,,,,,,NaN,,,,,,,,low,high,,,,,,,false,,,,,false,988609.9000000954,988609.600000143,,988609.4000000954,,988618.819,5,600,,
sequence,flow.Sequence,10_33,2023-11-27T19:55:45.870Z,,,,,,,,,,,4349.229000143008,completion,,,,,,,low,high,,,,,,,false,,,,,false,988610.2000000477,988609.600000143,984244.496,984232.7000000477,984260.371,988618.819,5,600,,
trial,html.Screen,10_34_0,2023-11-27T19:55:51.420Z,,,,1,-0.0377791839943904,0.0227626648172468,,0.04,true,ll,5541.180999999982,response,-0.9693644437173125,1.02210106872151,-1.0271668403970975,-1.114502123877908,1.1198922679313685,-1.0280227726384894,low,low,,ISIC_7167479.JPG,9,ISIC_0014795.JPG,28,36,false,0.1,ll,keypress(f),0,false,994160.4000000954,994160,988602.331,988610.4000000954,988618.819,994179.677,5,600,35,
break,html.Screen,10_34_1,2023-11-27T19:55:51.421Z,,,,,,,,,,,NaN,,,,,,,,low,low,,,,,,,false,,,,,false,994161.600000143,994161.4000000954,,994160.9000000954,,994179.677,5,600,,
break_continue,html.Screen,10_34_2,2023-11-27T19:55:51.422Z,,,,,,,,,,,NaN,,,,,,,,low,low,,,,,,,false,,,,,false,994162.4000000954,994162.100000143,,994161.8000001907,,994179.677,5,600,,
sequence,flow.Sequence,10_34,2023-11-27T19:55:51.422Z,,,,,,,,,,,5543.281000143033,completion,,,,,,,low,low,,,,,,,false,,,,,false,994162.600000143,994162.100000143,988602.331,988610.4000000954,988618.819,994179.677,5,600,,
trial,html.Screen,10_35_0,2023-11-27T19:55:54.875Z,,,,1,-0.00126575685933,-0.0325046559638838,,0.04,false,lh,3436.1230001907097,response,-0.9212323139676136,1.02210106872151,-1.0271668403970975,0.9882196642247332,1.1198922679313685,-1.0280227726384894,low,high,,ISIC_5682259.JPG,8,ISIC_0014255.JPG,28,25,false,0.2300000000000001,ll,keypress(f),0,false,997616.2000000477,997615.8000001907,994163.061,994162.9000000954,994179.677,997619.777,5,600,36,
break,html.Screen,10_35_1,2023-11-27T19:55:54.877Z,,,,,,,,,,,NaN,,,,,,,,low,high,,,,,,,false,,,,,false,997617.3000001907,997617,,997616.600000143,,997619.777,5,600,,
break_continue,html.Screen,10_35_2,2023-11-27T19:55:54.877Z,,,,,,,,,,,NaN,,,,,,,,low,high,,,,,,,false,,,,,false,997618.100000143,997617.8000001907,,997617.600000143,,997619.777,5,600,,
sequence,flow.Sequence,10_35,2023-11-27T19:55:54.878Z,,,,,,,,,,,3438.1230001907097,completion,,,,,,,low,high,,,,,,,false,,,,,false,997618.3000001907,997617.8000001907,994163.061,994162.8000001907,994179.677,997619.777,5,600,,
trial,html.Screen,10_36_0,2023-11-27T19:56:01.636Z,,,,1,-0.012810673904807,0.00400964452501,,0.04,false,hl,6756.623000095366,response,1.2018448523268856,1.02210106872151,-1.0271668403970975,-0.8157731190790072,1.1198922679313685,-1.0280227726384894,high,low,,ISIC_0064656.JPG,0,ISIC_7662993.JPG,28,28,false,0.22000000000000008,ll,keypress(f),0,false,1004376.600000143,1004376.4000000954,997602.96,997618.600000143,997619.777,1004382.865,5,600,37,
break,html.Screen,10_36_1,2023-11-27T19:56:01.637Z,,,,,,,,,,,NaN,,,,,,,,high,low,,,,,,,false,,,,,false,1004377.9000000954,1004377.600000143,,1004377,,1004382.865,5,600,,
break_continue,html.Screen,10_36_2,2023-11-27T19:56:01.638Z,,,,,,,,,,,NaN,,,,,,,,high,low,,,,,,,false,,,,,false,1004378.5,1004378.3000001907,,1004378.100000143,,1004382.865,5,600,,
sequence,flow.Sequence,10_36,2023-11-27T19:56:01.638Z,,,,,,,,,,,6758.523000190733,completion,,,,,,,high,low,,,,,,,false,,,,,false,1004378.8000001907,1004378.3000001907,997602.96,997618.600000143,997619.777,1004382.865,5,600,,
trial,html.Screen,10_37_0,2023-11-27T19:56:06.587Z,,,,1,-0.0060918352854008,0.029032683404407,,0.04,false,lh,4944.935000190744,response,-0.9046170303418553,1.02210106872151,-1.0271668403970975,1.0063426986460375,1.1198922679313685,-1.0280227726384894,low,high,,ISIC_8436194.JPG,10,ISIC_0055759.JPG,28,25,false,0.2300000000000001,hh,keypress(i),0,false,1009328.100000143,1009327.8000001907,1004366.391,1004379.100000143,1004382.865,1009342.602,5,600,38,
break,html.Screen,10_37_1,2023-11-27T19:56:06.589Z,,,,,,,,,,,NaN,,,,,,,,low,high,,,,,,,false,,,,,false,1009329.2000000477,1009328.9000000954,,1009328.5,,1009342.602,5,600,,
break_continue,html.Screen,10_37_2,2023-11-27T19:56:06.589Z,,,,,,,,,,,NaN,,,,,,,,low,high,,,,,,,false,,,,,false,1009329.8000001907,1009329.600000143,,1009329.4000000954,,1009342.602,5,600,,
