sender,sender_type,sender_id,timestamp,meta,,age,blockNo,c1,c2,condition,control_tolerance,correct,correctResponse,duration,ended_on,f1,f1_high,f1_low,f2,f2_high,f2_low,feature_level1,feature_level2,gender,img_left,img_reveal,img_right,n_control_images,n_target_images,practice,range_tolerance,response,response_action,selection_duration,staircase,time_commit,time_end,time_render,time_run,time_show,time_switch,total_blocks,total_trials,trialNo,url
informed_consent,html.Screen,0,2024-03-05T21:44:03.842Z,"{""labjs_version"":""20.2.4"",""labjs_build"":{""flavor"":""development"",""commit"":""f5b4a49f956347addd546a832a3327688c2c0fef""},""location"":""https://labjs.felixhenninger.com/api/labjs_preview/index.html"",""userAgent"":""Mozilla/5.0 (Windows NT 10.0; Win64; x64) AppleWebKit/537.36 (KHTML, like Gecko) Chrome/122.0.0.0 Safari/537.36"",""platform"":""Win32"",""language"":""en-US"",""locale"":""en-US"",""timeZone"":""America/Chicago"",""timezoneOffset"":360,""screen_width"":2560,""screen_height"":1440,""scroll_width"":1265,""scroll_height"":1278,""window_innerWidth"":1265,""window_innerHeight"":1326,""devicePixelRatio"":1}",,,,,,,,,,102649.60000000037,response,,,,,,,,,,,,,,,,,consent,click button,,,103139.40000000037,103129.40000000037,463.1,466.70000000018626,479.8,103131.496,,,,{}
Demography form,html.Form,1,2024-03-05T21:44:14.975Z,,,18,,,,,,,,11141.004,form submission,,,,,,,,,female,,,,,,,,,,,,114272.59999999963,114272.5,103131.496,103139.59999999963,103131.496,114290.6,,,,
Welcome,html.Screen,2,2024-03-05T21:44:56.224Z,,,,,,,"[""asym"",""col""]",,,,41230.69999999981,response,,,,,,,,,,,,,,,,,continue,click button,,,155522.09999999963,155521.2999999998,114274.032,114272.70000000019,114290.6,155524.3,,,,
demo_instructions,html.Screen,3,2024-03-05T21:45:17.488Z,,,,,,,,,,,21260.499999999825,response,,,,,,,,,,,,,,,,,continue,click button,,,176785.59999999963,176784.7999999998,155521.274,155522.2000000002,155524.3,176792.128,,,,
trial,html.Screen,4_0_0,2024-03-05T21:45:26.677Z,,,,0,-1.152619213055059,-1.2957497771092716,,,true,hh,9181.372000000003,response,1.1727618800748076,1.2,-1.2,1.0636787813411093,1.2,-1.2,high,high,,ISIC_0061915.JPG,,ISIC_9690371.JPG,,25,true,0.15000000000000002,hh,keypress(i),100,false,185974,185973.5,176792.128,176785.7999999998,176792.128,185999.9,1,16,1,
sequence,flow.Sequence,4_0,2024-03-05T21:45:26.688Z,,,,,,,,,,,9181.372000000003,completion,,,,,,,high,high,,,,,,,true,,,,,false,185985,185973.5,176792.128,176785.7999999998,176792.128,185999.9,1,16,,
trial,html.Screen,4_1_0,2024-03-05T21:45:30.581Z,,,,0,-1.2232482867978696,-1.2451219760556858,,,true,hh,3877.5000000003783,response,1.1217390688497193,1.2,-1.2,1.2276600934505035,1.2,-1.2,high,high,,ISIC_0030889.JPG,,ISIC_0026344.JPG,,25,true,0.15000000000000002,hh,keypress(i),100,false,189877.7000000002,189877.40000000037,185983.166,185985,185999.9,189902.9,1,16,2,
sequence,flow.Sequence,4_1,2024-03-05T21:45:30.581Z,,,,,,,,,,,3877.5000000003783,completion,,,,,,,high,high,,,,,,,true,,,,,false,189878.2999999998,189877.40000000037,185983.166,185985,185999.9,189902.9,1,16,,
trial,html.Screen,4_2_0,2024-03-05T21:45:34.031Z,,,,0,-1.1715181192107684,-1.2251845559044463,,,true,hh,3424.6999999996333,response,1.294521945180264,1.2,-1.2,1.3078626540563885,1.2,-1.2,high,high,,ISIC_0011957.JPG,,ISIC_3601224.JPG,,25,true,0.15000000000000002,hh,keypress(i),100,false,193327.90000000037,193327.59999999963,189886.466,189878.59999999963,189902.9,193355.6,1,16,3,
sequence,flow.Sequence,4_2,2024-03-05T21:45:34.031Z,,,,,,,,,,,3424.6999999996333,completion,,,,,,,high,high,,,,,,,true,,,,,false,193328.09999999963,193327.59999999963,189886.466,189878.5,189902.9,193355.6,1,16,,
trial,html.Screen,4_3_0,2024-03-05T21:45:37.973Z,,,,0,-1.2232482867978696,-1.2451219760556858,,,true,hh,3913.899999999994,response,1.1305948371148624,1.2,-1.2,1.2802709447034604,1.2,-1.2,high,high,,ISIC_0030889.JPG,,ISIC_5648111.JPG,,25,true,0.15000000000000002,hh,keypress(i),100,false,197270.2000000002,197269.5,193338.966,193328.2000000002,193355.6,197292.4,1,16,4,
sequence,flow.Sequence,4_3,2024-03-05T21:45:37.974Z,,,,,,,,,,,3913.899999999994,completion,,,,,,,high,high,,,,,,,true,,,,,false,197270.90000000037,197269.5,193338.966,193328.2000000002,193355.6,197292.4,1,16,,
trial,html.Screen,4_4_0,2024-03-05T21:45:43.615Z,,,,0,1.1604734171556077,1.0789312625280616,,,true,ll,5619.199999999633,response,-1.1711612520017805,1.2,-1.2,-1.191169949562454,1.2,-1.2,low,low,,ISIC_3950753.JPG,,ISIC_0061936.JPG,,27,true,0.12,ll,keypress(f),100,false,202912.09999999963,202911.59999999963,197275.866,197271.2999999998,197292.4,202930.3,1,16,5,
sequence,flow.Sequence,4_4,2024-03-05T21:45:43.616Z,,,,,,,,,,,5619.199999999633,completion,,,,,,,low,low,,,,,,,true,,,,,false,202912.7999999998,202911.59999999963,197275.866,197271.2000000002,197292.4,202930.3,1,16,,
trial,html.Screen,4_5_0,2024-03-05T21:45:46.347Z,,,,0,1.073296525451802,1.3454282740421717,,,true,ll,2713.100000000384,response,-1.1671212908494544,1.2,-1.2,-1.1286681796701683,1.2,-1.2,low,low,,ISIC_5787312.JPG,,ISIC_0065022.JPG,,41,true,0.15000000000000002,ll,keypress(f),100,false,205643.5,205643.40000000037,202913.766,202913.09999999963,202930.3,205665.7,1,16,6,
sequence,flow.Sequence,4_5,2024-03-05T21:45:46.347Z,,,,,,,,,,,2713.100000000384,completion,,,,,,,low,low,,,,,,,true,,,,,false,205643.59999999963,205643.40000000037,202913.766,202913,202930.3,205665.7,1,16,,
trial,html.Screen,4_6_0,2024-03-05T21:45:48.400Z,,,,0,1.2714351764931109,1.0785174776187512,,,true,ll,2030.200000000361,response,-1.0657476601009717,1.2,-1.2,-1.166572336354465,1.2,-1.2,low,low,,ISIC_2454898.JPG,,ISIC_0010778.JPG,,41,true,0.15000000000000002,ll,keypress(f),100,false,207696.40000000037,207695.90000000037,205649.1,205643.7000000002,205665.7,207717.7,1,16,7,
sequence,flow.Sequence,4_6,2024-03-05T21:45:48.400Z,,,,,,,,,,,2030.200000000361,completion,,,,,,,low,low,,,,,,,true,,,,,false,207696.90000000037,207695.90000000037,205649.1,205643.59999999963,205665.7,207717.7,1,16,,
trial,html.Screen,4_7_0,2024-03-05T21:45:50.059Z,,,,0,1.204229955025689,1.0874249761617445,,,true,ll,1637.700000000361,response,-1.2359980588867217,1.2,-1.2,-1.0529964469124329,1.2,-1.2,low,low,,ISIC_0056930.JPG,,ISIC_0032840.JPG,,41,true,0.15000000000000002,ll,keypress(f),100,false,209355.7000000002,209355.40000000037,207701.098,207697.2000000002,207717.7,209385.8,1,16,8,
sequence,flow.Sequence,4_7,2024-03-05T21:45:50.059Z,,,,,,,,,,,1637.700000000361,completion,,,,,,,low,low,,,,,,,true,,,,,false,209356.2000000002,209355.40000000037,207701.098,207697.09999999963,207717.7,209385.8,1,16,,
trial,html.Screen,4_8_0,2024-03-05T21:45:55.679Z,,,,0,1.1890109863264902,-0.8867825318561365,,,true,lh,5589.999999999825,response,-1.1592423187534993,1.2,-1.2,1.067128884093211,1.2,-1.2,low,high,,ISIC_0072576.JPG,,ISIC_6854940.JPG,,26,true,0.3300000000000002,lh,keypress(e),100,false,214976.09999999963,214975.7999999998,209369.198,209356.40000000037,209385.8,215006.6,1,16,9,
sequence,flow.Sequence,4_8,2024-03-05T21:45:55.680Z,,,,,,,,,,,5589.999999999825,completion,,,,,,,low,high,,,,,,,true,,,,,false,214976.40000000037,214975.7999999998,209369.198,209356.2999999998,209385.8,215006.6,1,16,,
trial,html.Screen,4_9_0,2024-03-05T21:45:57.803Z,,,,0,0.9013888878932071,-0.9328095253308732,,,true,lh,2092.6000000001804,response,-0.9448560599810628,1.2,-1.2,0.9099421612683488,1.2,-1.2,low,high,,ISIC_0068259.JPG,,ISIC_9684318.JPG,,33,true,0.3600000000000002,lh,keypress(e),100,false,217099.5,217099.2000000002,214990.066,214976.59999999963,215006.6,217125.5,1,16,10,
sequence,flow.Sequence,4_9,2024-03-05T21:45:57.803Z,,,,,,,,,,,2092.6000000001804,completion,,,,,,,low,high,,,,,,,true,,,,,false,217100,217099.2000000002,214990.066,214976.5,215006.6,217125.5,1,16,,
trial,html.Screen,4_10_0,2024-03-05T21:45:59.242Z,,,,0,1.2838089642212804,-0.8550527900640753,,,true,lh,1412.9000000003725,response,-1.0700930503975157,1.2,-1.2,0.923753102263735,1.2,-1.2,low,high,,ISIC_0034187.JPG,,ISIC_0000022.JPG,,33,true,0.3600000000000002,lh,keypress(e),100,false,218538.7000000002,218538.40000000037,217108.898,217100.2000000002,217125.5,218560,1,16,11,
sequence,flow.Sequence,4_10,2024-03-05T21:45:59.243Z,,,,,,,,,,,1412.9000000003725,completion,,,,,,,low,high,,,,,,,true,,,,,false,218539.40000000037,218538.40000000037,217108.898,217100.09999999963,217125.5,218560,1,16,,
trial,html.Screen,4_11_0,2024-03-05T21:46:00.813Z,,,,0,1.0143509683988825,-1.0281980567462463,,,true,lh,1548.9000000003725,response,-0.9225524349657857,1.2,-1.2,0.929746784178986,1.2,-1.2,low,high,,ISIC_0062031.JPG,,ISIC_0011077.JPG,,33,true,0.3600000000000002,lh,keypress(e),100,false,220109.2999999998,220108.90000000037,218543.366,218539.59999999963,218560,220127.998,1,16,12,
sequence,flow.Sequence,4_11,2024-03-05T21:46:00.813Z,,,,,,,,,,,1548.9000000003725,completion,,,,,,,low,high,,,,,,,true,,,,,false,220109.90000000037,220108.90000000037,218543.366,218539.5,218560,220127.998,1,16,,
trial,html.Screen,4_12_0,2024-03-05T21:46:03.521Z,,,,0,-0.9566823908868002,0.9602125665128364,,,true,hl,2689.40200000038,response,0.8494721812820843,1.2,-1.2,-1.3435429139974266,1.2,-1.2,high,low,,ISIC_0056784.JPG,,ISIC_0033585.JPG,,29,true,0.3600000000000002,hl,keypress(j),100,false,222817.7000000002,222817.40000000037,220127.998,220110.2000000002,220127.998,222846.9,1,16,13,
sequence,flow.Sequence,4_12,2024-03-05T21:46:03.522Z,,,,,,,,,,,2689.40200000038,completion,,,,,,,high,low,,,,,,,true,,,,,false,222818.2999999998,222817.40000000037,220127.998,220110.09999999963,220127.998,222846.9,1,16,,
trial,html.Screen,4_13_0,2024-03-05T21:46:06.211Z,,,,0,-1.082730232773217,0.8833175387485132,,,true,hl,2660.6999999996333,response,1.411763789273233,1.2,-1.2,-1.0057734478347988,1.2,-1.2,high,low,,ISIC_0011933.JPG,,ISIC_0027235.JPG,,29,true,0.3600000000000002,hl,keypress(j),100,false,225508.09999999963,225507.59999999963,222830.232,222818.5,222846.9,225532.3,1,16,14,
sequence,flow.Sequence,4_13,2024-03-05T21:46:06.212Z,,,,,,,,,,,2660.6999999996333,completion,,,,,,,high,low,,,,,,,true,,,,,false,225508.59999999963,225507.59999999963,222830.232,222818.5,222846.9,225532.3,1,16,,
trial,html.Screen,4_14_0,2024-03-05T21:46:08.199Z,,,,0,-1.0264463986917702,1.171271535505083,,,true,hl,1962.900000000198,response,0.9445114955578736,1.2,-1.2,-1.0054210059625863,1.2,-1.2,high,low,,ISIC_7889838.JPG,,ISIC_0033807.JPG,,29,true,0.3600000000000002,hl,keypress(j),100,false,227495.2999999998,227495.2000000002,225515.766,225508.7000000002,225532.3,227516.9,1,16,15,
sequence,flow.Sequence,4_14,2024-03-05T21:46:08.199Z,,,,,,,,,,,1962.900000000198,completion,,,,,,,high,low,,,,,,,true,,,,,false,227495.40000000037,227495.2000000002,225515.766,225508.7000000002,225532.3,227516.9,1,16,,
trial,html.Screen,4_15_0,2024-03-05T21:46:10.207Z,,,,0,-1.2704198237183777,1.138121072015301,,,true,hl,1986.0000000003783,response,1.11329866545753,1.2,-1.2,-1.2155631217348757,1.2,-1.2,high,low,,ISIC_0501843.JPG,,ISIC_0032610.JPG,,29,true,0.3600000000000002,hl,keypress(j),100,false,229503.40000000037,229502.90000000037,227500.366,227495.40000000037,227516.9,229535.7,1,16,16,
sequence,flow.Sequence,4_15,2024-03-05T21:46:10.207Z,,,,,,,,,,,1986.0000000003783,completion,,,,,,,high,low,,,,,,,true,,,,,false,229503.90000000037,229502.90000000037,227500.366,227495.40000000037,227516.9,229535.7,1,16,,
demonstration_loop,flow.Loop,4,2024-03-05T21:46:10.207Z,,,,,,,,,,,52710.772000000376,completion,,,,,,,,,,,,,,,true,,,,,false,229504.2000000002,229502.90000000037,176792.128,176785.7000000002,176792.128,229535.7,1,16,,
practice_instructions,html.Screen,5,2024-03-05T21:48:25.261Z,,,,,,,,,,,135010.89999999962,response,,,,,,,,,,,,,,,,,continue,keypress(Space),,,364557.4000000004,364546.5999999996,229518.8,229504.5,229535.7,364580.1,,,,
trial,html.Screen,6_0_0,2024-03-05T21:48:31.708Z,,,,1,1.00615481805876,-0.8428903771195875,,,false,lh,6417.999999999651,response,-1.0822170028935367,1.2,-1.2,1.1654796154432183,1.2,-1.2,low,high,,ISIC_0069970.JPG,,ISIC_7288818.JPG,,26,true,0.3300000000000002,ll,keypress(f),0,false,371005.2000000002,370998.0999999996,364576.306,364557.5,364580.1,371018.7,1,40,1,
sequence,flow.Sequence,6_0,2024-03-05T21:48:31.709Z,,,,,,,,,,,6417.999999999651,completion,,,,,,,low,high,,,,,,,true,,,,,false,371005.4000000004,370998.0999999996,364576.306,364557.5,364580.1,371018.7,1,40,,
trial,html.Screen,6_1_0,2024-03-05T21:48:37.124Z,,,,1,-1.250220052739973,-1.2967258992731714,,,true,hh,5401.799999999988,response,1.1653123206802332,1.2,-1.2,0.8605012383520609,1.2,-1.2,high,high,,ISIC_0031368.JPG,,ISIC_0071508.JPG,,157,true,0.3600000000000002,hh,keypress(i),0,false,376420.7999999998,376420.5,371002.1,371005.5,371018.7,376440.4,1,40,2,
sequence,flow.Sequence,6_1,2024-03-05T21:48:37.125Z,,,,,,,,,,,5401.799999999988,completion,,,,,,,high,high,,,,,,,true,,,,,false,376421.2999999998,376420.5,371002.1,371005.4000000004,371018.7,376440.4,1,40,,
trial,html.Screen,6_2_0,2024-03-05T21:48:42.787Z,,,,1,-1.0822170028935367,1.1654796154432183,,,false,hl,5642.89999999979,response,0.8779374983479176,1.2,-1.2,-0.9745548032823428,1.2,-1.2,high,low,,ISIC_7288818.JPG,,ISIC_2991354.JPG,,29,true,0.3600000000000002,hh,keypress(i),0,false,382083.5999999996,382083.2999999998,376436.256,376421.5999999996,376440.4,382094.6,1,40,3,
sequence,flow.Sequence,6_2,2024-03-05T21:48:42.787Z,,,,,,,,,,,5642.89999999979,completion,,,,,,,high,low,,,,,,,true,,,,,false,382084.2000000002,382083.2999999998,376436.256,376421.5999999996,376440.4,382094.6,1,40,,
trial,html.Screen,6_3_0,2024-03-05T21:48:50.320Z,,,,1,-1.082730232773217,0.8833175387485132,,,false,hl,7522.499999999651,response,1.3515962101204746,1.2,-1.2,-0.8414583575292955,1.2,-1.2,high,low,,ISIC_0011933.JPG,,ISIC_0274382.JPG,,29,true,0.3600000000000002,hh,keypress(i),0,false,389617.2000000002,389617.0999999996,382090.714,382084.5,382094.6,389634.4,1,40,4,
sequence,flow.Sequence,6_3,2024-03-05T21:48:50.321Z,,,,,,,,,,,7522.499999999651,completion,,,,,,,high,low,,,,,,,true,,,,,false,389617.4000000004,389617.0999999996,382090.714,382084.5,382094.6,389634.4,1,40,,
trial,html.Screen,6_4_0,2024-03-05T21:48:55.891Z,,,,1,-1.2974483548597415,-1.2071506593281005,,,true,hh,5552.800000000163,response,1.2512482034836876,1.2,-1.2,0.9575957368769288,1.2,-1.2,high,high,,ISIC_0011007.JPG,,ISIC_5736624.JPG,,127,true,0.3300000000000002,hh,keypress(i),0,false,395187.5999999996,395187.2000000002,389617.3,389617.5,389634.4,395205.4,1,40,5,
sequence,flow.Sequence,6_4,2024-03-05T21:48:55.891Z,,,,,,,,,,,5552.800000000163,completion,,,,,,,high,high,,,,,,,true,,,,,false,395188.0999999996,395187.2000000002,389617.3,389617.5,389634.4,395205.4,1,40,,
trial,html.Screen,6_5_0,2024-03-05T21:49:02.611Z,,,,1,1.4727776799485246,-0.8779113138076752,,,true,lh,6702.000000000349,response,-1.0700930503975157,1.2,-1.2,0.923753102263735,1.2,-1.2,low,high,,ISIC_0033074.JPG,,ISIC_0000022.JPG,,26,true,0.3300000000000002,lh,keypress(e),0,false,401907.7999999998,401907.4000000004,395201.55,395188.4000000004,395205.4,401911,1,40,6,
sequence,flow.Sequence,6_5,2024-03-05T21:49:02.612Z,,,,,,,,,,,6702.000000000349,completion,,,,,,,low,high,,,,,,,true,,,,,false,401908.2999999998,401907.4000000004,395201.55,395188.2999999998,395205.4,401911,1,40,,
trial,html.Screen,6_6_0,2024-03-05T21:49:09.459Z,,,,1,1.411763789273233,-1.0057734478347988,,,false,lh,6844.200000000186,response,-1.2043484010107477,1.2,-1.2,1.2178113180138233,1.2,-1.2,low,high,,ISIC_0027235.JPG,,ISIC_0011917.JPG,,33,true,0.3600000000000002,ll,keypress(f),0,false,408755.7000000002,408755.2000000002,401906.172,401908.5,401911,408766.5,1,40,7,
sequence,flow.Sequence,6_6,2024-03-05T21:49:09.459Z,,,,,,,,,,,6844.200000000186,completion,,,,,,,low,high,,,,,,,true,,,,,false,408756.0999999996,408755.2000000002,401906.172,401908.5,401911,408766.5,1,40,,
trial,html.Screen,6_7_0,2024-03-05T21:49:15.059Z,,,,1,0.8591294258188253,-0.870797302150167,,,true,lh,5589.200000000186,response,-1.2704198237183777,1.2,-1.2,1.138121072015301,1.2,-1.2,low,high,,ISIC_0055841.JPG,,ISIC_0501843.JPG,,33,true,0.3600000000000002,lh,keypress(e),0,false,414356.0999999996,414355.7000000002,408761.5,408756.4000000004,408766.5,414371.5,1,40,8,
sequence,flow.Sequence,6_7,2024-03-05T21:49:15.060Z,,,,,,,,,,,5589.200000000186,completion,,,,,,,low,high,,,,,,,true,,,,,false,414356.5999999996,414355.7000000002,408761.5,408756.4000000004,408766.5,414371.5,1,40,,
trial,html.Screen,6_8_0,2024-03-05T21:49:16.561Z,,,,1,1.1510001454240106,1.132540312667795,,,true,ll,1485.9000000003725,response,-0.9735583105865782,1.2,-1.2,-0.8683758859171238,1.2,-1.2,low,low,,ISIC_0009959.JPG,,ISIC_0065204.JPG,,249,true,0.3600000000000002,ll,keypress(f),0,false,415857.5,415857.4000000004,414354.7,414356.9000000004,414371.5,415872.5,1,40,9,
sequence,flow.Sequence,6_8,2024-03-05T21:49:16.561Z,,,,,,,,,,,1485.9000000003725,completion,,,,,,,low,low,,,,,,,true,,,,,false,415857.7000000002,415857.4000000004,414354.7,414356.9000000004,414371.5,415872.5,1,40,,
trial,html.Screen,6_9_0,2024-03-05T21:49:17.747Z,,,,1,-0.9212323139676136,0.9882196642247332,,,true,hl,1170.7999999998137,response,0.9039158082670506,1.2,-1.2,-1.0517562064343149,1.2,-1.2,high,low,,ISIC_0014255.JPG,,ISIC_0015411.JPG,,29,true,0.3600000000000002,hl,keypress(j),0,false,417043.5999999996,417043.2999999998,415872.28,415857.7000000002,415872.5,417056.926,1,40,10,
sequence,flow.Sequence,6_9,2024-03-05T21:49:17.747Z,,,,,,,,,,,1170.7999999998137,completion,,,,,,,high,low,,,,,,,true,,,,,false,417044.2000000002,417043.2999999998,415872.28,415857.7000000002,415872.5,417056.926,1,40,,
trial,html.Screen,6_10_0,2024-03-05T21:49:19.761Z,,,,1,-0.8787496315223856,1.3680901203013998,,,true,hl,2000.873999999836,response,1.2615315960773072,1.2,-1.2,-1.194084675079932,1.2,-1.2,high,low,,ISIC_0023811.JPG,,ISIC_0010044.JPG,,29,true,0.3600000000000002,hl,keypress(j),0,false,419058,419057.7999999998,417056.926,417044.4000000004,417056.926,419075.2,1,40,11,
sequence,flow.Sequence,6_10,2024-03-05T21:49:19.761Z,,,,,,,,,,,2000.873999999836,completion,,,,,,,high,low,,,,,,,true,,,,,false,419058.2000000002,419057.7999999998,417056.926,417044.4000000004,417056.926,419075.2,1,40,,
trial,html.Screen,6_11_0,2024-03-05T21:49:21.682Z,,,,1,1.301795918505203,1.0518606632781424,,,true,ll,1903.5000000001746,response,-1.194799101954455,1.2,-1.2,-1.2071632388858642,1.2,-1.2,low,low,,ISIC_0027666.JPG,,ISIC_4347535.JPG,,211,true,0.3300000000000002,ll,keypress(f),0,false,420978.9000000004,420978.7000000002,419058.7,419058.2999999998,419075.2,420993.5,1,40,12,
sequence,flow.Sequence,6_11,2024-03-05T21:49:21.683Z,,,,,,,,,,,1903.5000000001746,completion,,,,,,,low,low,,,,,,,true,,,,,false,420979.4000000004,420978.7000000002,419058.7,419058.2999999998,419075.2,420993.5,1,40,,
trial,html.Screen,6_12_0,2024-03-05T21:49:23.970Z,,,,1,-1.250220052739973,-1.2967258992731714,,,true,hh,2273.2999999998137,response,1.294521945180264,1.2,-1.2,1.3078626540563885,1.2,-1.2,high,high,,ISIC_0031368.JPG,,ISIC_3601224.JPG,,25,true,0.15000000000000002,hh,keypress(i),0,false,423267.0999999996,423266.7999999998,420976.9,420979.5999999996,420993.5,423278.5,1,40,13,
sequence,flow.Sequence,6_12,2024-03-05T21:49:23.971Z,,,,,,,,,,,2273.2999999998137,completion,,,,,,,high,high,,,,,,,true,,,,,false,423267.2000000002,423266.7999999998,420976.9,420979.5,420993.5,423278.5,1,40,,
trial,html.Screen,6_13_0,2024-03-05T21:49:25.763Z,,,,1,-1.238264833797662,-1.176099940770289,,,true,hh,1781.2000000001863,response,1.0878102877901663,1.2,-1.2,1.3154097543539391,1.2,-1.2,high,high,,ISIC_0032861.JPG,,ISIC_1413242.JPG,,25,true,0.15000000000000002,hh,keypress(i),0,false,425060.2000000002,425059.7000000002,423262.1,423267.2999999998,423278.5,425080,1,40,14,
sequence,flow.Sequence,6_13,2024-03-05T21:49:25.764Z,,,,,,,,,,,1781.2000000001863,completion,,,,,,,high,high,,,,,,,true,,,,,false,425060.7000000002,425059.7000000002,423262.1,423267.2999999998,423278.5,425080,1,40,,
trial,html.Screen,6_14_0,2024-03-05T21:49:27.267Z,,,,1,-1.2704198237183777,1.138121072015301,,,true,hl,1483.2000000001863,response,1.3411487193830047,1.2,-1.2,-1.198640448317381,1.2,-1.2,high,low,,ISIC_0501843.JPG,,ISIC_3093026.JPG,,29,true,0.3600000000000002,hl,keypress(j),0,false,426563.5,426563.2000000002,425079.568,425061,425080,426598,1,40,15,
sequence,flow.Sequence,6_14,2024-03-05T21:49:27.267Z,,,,,,,,,,,1483.2000000001863,completion,,,,,,,high,low,,,,,,,true,,,,,false,426564,426563.2000000002,425079.568,425061,425080,426598,1,40,,
trial,html.Screen,6_15_0,2024-03-05T21:49:29.107Z,,,,1,-1.0822170028935367,1.1654796154432183,,,true,hl,1805,response,0.9385447468573198,1.2,-1.2,-1.2289860846064424,1.2,-1.2,high,low,,ISIC_7288818.JPG,,ISIC_0032780.JPG,,29,true,0.3600000000000002,hl,keypress(j),0,false,428403.4000000004,428403,426581.5,426564.2999999998,426598,428416.2,1,40,16,
sequence,flow.Sequence,6_15,2024-03-05T21:49:29.107Z,,,,,,,,,,,1805,completion,,,,,,,high,low,,,,,,,true,,,,,false,428403.9000000004,428403,426581.5,426564.2000000002,426598,428416.2,1,40,,
trial,html.Screen,6_16_0,2024-03-05T21:49:30.563Z,,,,1,1.0581281450494728,1.133169116569424,,,true,ll,1443.0000000001746,response,-1.1392234684115472,1.2,-1.2,-1.3198277407683998,1.2,-1.2,low,low,,ISIC_5490352.JPG,,ISIC_0071875.JPG,,211,true,0.3300000000000002,ll,keypress(f),0,false,429859.5,429859.2000000002,428399.7,428404.0999999996,428416.2,429867.3,1,40,17,
sequence,flow.Sequence,6_16,2024-03-05T21:49:30.563Z,,,,,,,,,,,1443.0000000001746,completion,,,,,,,low,low,,,,,,,true,,,,,false,429860.0999999996,429859.2000000002,428399.7,428404.0999999996,428416.2,429867.3,1,40,,
trial,html.Screen,6_17_0,2024-03-05T21:49:32.499Z,,,,1,-0.9566823908868002,0.9602125665128364,,,true,hl,1927.900000000198,response,0.8779374983479176,1.2,-1.2,-0.9745548032823428,1.2,-1.2,high,low,,ISIC_0056784.JPG,,ISIC_2991354.JPG,,29,true,0.3600000000000002,hl,keypress(j),0,false,431795.5,431795.2000000002,429867.282,429860.2999999998,429867.3,431802.3,1,40,18,
sequence,flow.Sequence,6_17,2024-03-05T21:49:32.499Z,,,,,,,,,,,1927.900000000198,completion,,,,,,,high,low,,,,,,,true,,,,,false,431796.0999999996,431795.2000000002,429867.282,429860.2999999998,429867.3,431802.3,1,40,,
trial,html.Screen,6_18_0,2024-03-05T21:49:34.466Z,,,,1,-1.2974483548597415,-1.2071506593281005,,,true,hh,1959.799999999639,response,1.004164099430695,1.2,-1.2,1.0674669038247562,1.2,-1.2,high,high,,ISIC_0011007.JPG,,ISIC_0541345.JPG,,127,true,0.3300000000000002,hh,keypress(i),0,false,433762.2000000002,433762.0999999996,431785.8,431796.2999999998,431802.3,433770.5,1,40,19,
sequence,flow.Sequence,6_18,2024-03-05T21:49:34.466Z,,,,,,,,,,,1959.799999999639,completion,,,,,,,high,high,,,,,,,true,,,,,false,433762.2999999998,433762.0999999996,431785.8,431796.2999999998,431802.3,433770.5,1,40,,
trial,html.Screen,6_19_0,2024-03-05T21:49:36.291Z,,,,1,1.1638334638021437,1.0846635401396965,,,true,ll,1817.0999999996275,response,-1.1894733304494307,1.2,-1.2,-1.1169761866204877,1.2,-1.2,low,low,,ISIC_4718313.JPG,,ISIC_0033813.JPG,,27,true,0.12,ll,keypress(f),0,false,435587.9000000004,435587.5999999996,433754.1,433762.4000000004,433770.5,435605.4,1,40,20,
sequence,flow.Sequence,6_19,2024-03-05T21:49:36.292Z,,,,,,,,,,,1817.0999999996275,completion,,,,,,,low,low,,,,,,,true,,,,,false,435588.4000000004,435587.5999999996,433754.1,433762.4000000004,433770.5,435605.4,1,40,,
trial,html.Screen,6_20_0,2024-03-05T21:49:37.475Z,,,,1,-0.9225524349657857,0.929746784178986,,,true,hl,1165.6999999996042,response,1.225025174430573,1.2,-1.2,-0.8422679054456499,1.2,-1.2,high,low,,ISIC_0011077.JPG,,ISIC_7503950.JPG,,29,true,0.3600000000000002,hl,keypress(j),0,false,436771.5,436771.0999999996,435604.7,435588.5999999996,435605.4,436790,1,40,21,
sequence,flow.Sequence,6_20,2024-03-05T21:49:37.475Z,,,,,,,,,,,1165.6999999996042,completion,,,,,,,high,low,,,,,,,true,,,,,false,436772,436771.0999999996,435604.7,435588.5999999996,435605.4,436790,1,40,,
trial,html.Screen,6_21_0,2024-03-05T21:49:38.769Z,,,,1,0.849847885203758,-0.973447384095442,,,true,lh,1275.7999999998137,response,-0.9225524349657857,1.2,-1.2,0.929746784178986,1.2,-1.2,low,high,,ISIC_9612228.JPG,,ISIC_0011077.JPG,,26,true,0.3300000000000002,lh,keypress(e),0,false,438066,438065.7999999998,436773.16,436772.2000000002,436790,438074.1,1,40,22,
sequence,flow.Sequence,6_21,2024-03-05T21:49:38.770Z,,,,,,,,,,,1275.7999999998137,completion,,,,,,,low,high,,,,,,,true,,,,,false,438066.2000000002,438065.7999999998,436773.16,436772.2000000002,436790,438074.1,1,40,,
trial,html.Screen,6_22_0,2024-03-05T21:49:39.922Z,,,,1,1.0885984639975343,1.2042618719491294,,,true,ll,1144.199999999837,response,-1.026546863458038,1.2,-1.2,-1.2570421604565634,1.2,-1.2,low,low,,ISIC_0012740.JPG,,ISIC_0026500.JPG,,249,true,0.3600000000000002,ll,keypress(f),0,false,439218.5,439218.2999999998,438057.5,438066.4000000004,438074.1,439225,1,40,23,
sequence,flow.Sequence,6_22,2024-03-05T21:49:39.922Z,,,,,,,,,,,1144.199999999837,completion,,,,,,,low,low,,,,,,,true,,,,,false,439218.9000000004,439218.2999999998,438057.5,438066.2999999998,438074.1,439225,1,40,,
trial,html.Screen,6_23_0,2024-03-05T21:49:41.139Z,,,,1,-1.1715181192107684,-1.2251845559044463,,,true,hh,1210.0999999996275,response,1.1727618800748076,1.2,-1.2,1.0636787813411093,1.2,-1.2,high,high,,ISIC_0011957.JPG,,ISIC_9690371.JPG,,25,true,0.15000000000000002,hh,keypress(i),0,false,440435.5,440435.0999999996,439208.528,439219,439225,440442.7,1,40,24,
sequence,flow.Sequence,6_23,2024-03-05T21:49:41.139Z,,,,,,,,,,,1210.0999999996275,completion,,,,,,,high,high,,,,,,,true,,,,,false,440436,440435.0999999996,439208.528,439219,439225,440442.7,1,40,,
trial,html.Screen,6_24_0,2024-03-05T21:49:42.627Z,,,,1,1.1655508270784471,1.1162776063248168,,,true,ll,1480.5000000001746,response,-1.1392234684115472,1.2,-1.2,-1.3198277407683998,1.2,-1.2,low,low,,ISIC_5509946.JPG,,ISIC_0071875.JPG,,27,true,0.12,ll,keypress(f),0,false,441923.5999999996,441923.2000000002,440426.1,440436.2000000002,440442.7,441943.8,1,40,25,
sequence,flow.Sequence,6_24,2024-03-05T21:49:42.627Z,,,,,,,,,,,1480.5000000001746,completion,,,,,,,low,low,,,,,,,true,,,,,false,441924.2000000002,441923.2000000002,440426.1,440436.0999999996,440442.7,441943.8,1,40,,
trial,html.Screen,6_25_0,2024-03-05T21:49:43.971Z,,,,1,-0.9670240379618178,1.1806404773220665,,,true,hl,1323.299999999639,response,0.8479396253253069,1.2,-1.2,-1.011054319516718,1.2,-1.2,high,low,,ISIC_0002288.JPG,,ISIC_0063521.JPG,,29,true,0.3600000000000002,hl,keypress(j),0,false,443267.4000000004,443267.0999999996,441943.68,441924.4000000004,441943.8,443278.6,1,40,26,
sequence,flow.Sequence,6_25,2024-03-05T21:49:43.971Z,,,,,,,,,,,1323.299999999639,completion,,,,,,,high,low,,,,,,,true,,,,,false,443267.9000000004,443267.0999999996,441943.68,441924.2999999998,441943.8,443278.6,1,40,,
trial,html.Screen,6_26_0,2024-03-05T21:49:45.219Z,,,,1,1.0878102877901663,1.3154097543539391,,,true,ll,1236.6000000002095,response,-0.9019902492274832,1.2,-1.2,-1.1873288031905294,1.2,-1.2,low,low,,ISIC_1413242.JPG,,ISIC_0070992.JPG,,211,true,0.3300000000000002,ll,keypress(f),0,false,444515.5999999996,444515.2000000002,443261.8,443268.2000000002,443278.6,444529.49,1,40,27,
sequence,flow.Sequence,6_26,2024-03-05T21:49:45.219Z,,,,,,,,,,,1236.6000000002095,completion,,,,,,,low,low,,,,,,,true,,,,,false,444516.0999999996,444515.2000000002,443261.8,443268.0999999996,443278.6,444529.49,1,40,,
trial,html.Screen,6_27_0,2024-03-05T21:49:46.659Z,,,,1,1.11329866545753,-1.2155631217348757,,,true,lh,1425.809999999823,response,-1.1592423187534993,1.2,-1.2,1.067128884093211,1.2,-1.2,low,high,,ISIC_0032610.JPG,,ISIC_6854940.JPG,,26,true,0.3300000000000002,lh,keypress(e),0,false,445955.5999999996,445955.2999999998,444529.49,444516.4000000004,444529.49,445964,1,40,28,
sequence,flow.Sequence,6_27,2024-03-05T21:49:46.659Z,,,,,,,,,,,1425.809999999823,completion,,,,,,,low,high,,,,,,,true,,,,,false,445956.2000000002,445955.2999999998,444529.49,444516.2000000002,444529.49,445964,1,40,,
trial,html.Screen,6_28_0,2024-03-05T21:49:48.771Z,,,,1,0.8779374983479176,-0.9745548032823428,,,true,lh,2103.2000000001863,response,-0.8620516892494489,1.2,-1.2,1.1108509340502866,1.2,-1.2,low,high,,ISIC_2991354.JPG,,ISIC_5557806.JPG,,33,true,0.3600000000000002,lh,keypress(e),0,false,448067.5,448067.2000000002,445963.716,445956.4000000004,445964,448082.6,1,40,29,
sequence,flow.Sequence,6_28,2024-03-05T21:49:48.771Z,,,,,,,,,,,2103.2000000001863,completion,,,,,,,low,high,,,,,,,true,,,,,false,448068.0999999996,448067.2000000002,445963.716,445956.2999999998,445964,448082.6,1,40,,
trial,html.Screen,6_29_0,2024-03-05T21:49:50.256Z,,,,1,1.1655508270784471,1.1162776063248168,,,true,ll,1469.9999999996508,response,-1.0379960130550778,1.2,-1.2,-1.261225635141129,1.2,-1.2,low,low,,ISIC_5509946.JPG,,ISIC_0072612.JPG,,249,true,0.3600000000000002,ll,keypress(f),0,false,449552.7000000002,449552.5999999996,448065.6,448068.2999999998,448082.6,449566.8,1,40,30,
sequence,flow.Sequence,6_29,2024-03-05T21:49:50.256Z,,,,,,,,,,,1469.9999999996508,completion,,,,,,,low,low,,,,,,,true,,,,,false,449552.9000000004,449552.5999999996,448065.6,448068.2999999998,448082.6,449566.8,1,40,,
trial,html.Screen,6_30_0,2024-03-05T21:49:51.347Z,,,,1,1.3559315773956395,-0.924768326187701,,,true,lh,1076.299999999639,response,-0.9046170303418553,1.2,-1.2,1.0063426986460375,1.2,-1.2,low,high,,ISIC_5101111.JPG,,ISIC_0055759.JPG,,26,true,0.3300000000000002,lh,keypress(e),0,false,450643.5,450643.0999999996,449550.5,449552.9000000004,449566.8,450651.1,1,40,31,
sequence,flow.Sequence,6_30,2024-03-05T21:49:51.347Z,,,,,,,,,,,1076.299999999639,completion,,,,,,,low,high,,,,,,,true,,,,,false,450644,450643.0999999996,449550.5,449552.9000000004,449566.8,450651.1,1,40,,
trial,html.Screen,6_31_0,2024-03-05T21:49:52.930Z,,,,1,0.8644465729542988,-0.8679598285079457,,,true,lh,1575.6000000002095,response,-1.0700930503975157,1.2,-1.2,0.923753102263735,1.2,-1.2,low,high,,ISIC_6718969.JPG,,ISIC_0000022.JPG,,33,true,0.3600000000000002,lh,keypress(e),0,false,452227,452226.7000000002,450650.93,450644.2999999998,450651.1,452235.8,1,40,32,
sequence,flow.Sequence,6_31,2024-03-05T21:49:52.931Z,,,,,,,,,,,1575.6000000002095,completion,,,,,,,low,high,,,,,,,true,,,,,false,452227.4000000004,452226.7000000002,450650.93,450644.2000000002,450651.1,452235.8,1,40,,
trial,html.Screen,6_32_0,2024-03-05T21:49:56.612Z,,,,1,-0.9448560599810628,0.9099421612683488,,,true,hl,3672.400000000198,response,1.2838089642212804,1.2,-1.2,-0.8550527900640753,1.2,-1.2,high,low,,ISIC_9684318.JPG,,ISIC_0034187.JPG,,29,true,0.3600000000000002,hl,keypress(j),0,false,455908.7999999998,455908.2000000002,452235.3,452227.5999999996,452235.8,455922.2,1,40,33,
sequence,flow.Sequence,6_32,2024-03-05T21:49:56.613Z,,,,,,,,,,,3672.400000000198,completion,,,,,,,high,low,,,,,,,true,,,,,false,455909.7000000002,455908.2000000002,452235.3,452227.5,452235.8,455922.2,1,40,,
trial,html.Screen,6_33_0,2024-03-05T21:49:59.107Z,,,,1,1.3471772753257971,1.055978100098093,,,true,ll,2480.700000000361,response,-1.033120591224746,1.2,-1.2,-0.9169816067930722,1.2,-1.2,low,low,,ISIC_2077116.JPG,,ISIC_0033027.JPG,,211,true,0.3300000000000002,ll,keypress(f),0,false,458403.2000000002,458402.9000000004,455920.026,455910,455922.2,458424.1,1,40,34,
sequence,flow.Sequence,6_33,2024-03-05T21:49:59.107Z,,,,,,,,,,,2480.700000000361,completion,,,,,,,low,low,,,,,,,true,,,,,false,458403.7000000002,458402.9000000004,455920.026,455909.9000000004,455922.2,458424.1,1,40,,
trial,html.Screen,6_34_0,2024-03-05T21:50:02.899Z,,,,1,1.1890109863264902,-0.8867825318561365,,,true,lh,3771.199999999837,response,-0.9566823908868002,1.2,-1.2,0.9602125665128364,1.2,-1.2,low,high,,ISIC_0072576.JPG,,ISIC_0056784.JPG,,26,true,0.3300000000000002,lh,keypress(e),0,false,462195.5999999996,462195.2999999998,458423.24,458403.9000000004,458424.1,462211,1,40,35,
sequence,flow.Sequence,6_34,2024-03-05T21:50:02.900Z,,,,,,,,,,,3771.199999999837,completion,,,,,,,low,high,,,,,,,true,,,,,false,462196.2000000002,462195.2999999998,458423.24,458403.9000000004,458424.1,462211,1,40,,
trial,html.Screen,6_35_0,2024-03-05T21:50:04.688Z,,,,1,-1.3132505134129506,-1.0949928516457437,,,true,hh,1774,response,1.0437497612294713,1.2,-1.2,0.93059645456522,1.2,-1.2,high,high,,ISIC_0066935.JPG,,ISIC_0032357.JPG,,157,true,0.3600000000000002,hh,keypress(i),0,false,463985.0999999996,463985,462194.2,462196.4000000004,462211,463995.4,1,40,36,
sequence,flow.Sequence,6_35,2024-03-05T21:50:04.688Z,,,,,,,,,,,1774,completion,,,,,,,high,high,,,,,,,true,,,,,false,463985.0999999996,463985,462194.2,462196.2999999998,462211,463995.4,1,40,,
trial,html.Screen,6_36_0,2024-03-05T21:50:06.211Z,,,,1,-1.2315945866020412,-1.13226141421557,,,true,hh,1511.5999999999767,response,1.1642596483638106,1.2,-1.2,1.091507924157762,1.2,-1.2,high,high,,ISIC_0033595.JPG,,ISIC_0765584.JPG,,25,true,0.15000000000000002,hh,keypress(i),0,false,465507.2999999998,465507,463978.9,463985.2000000002,463995.4,465513.4,1,40,37,
sequence,flow.Sequence,6_36,2024-03-05T21:50:06.211Z,,,,,,,,,,,1511.5999999999767,completion,,,,,,,high,high,,,,,,,true,,,,,false,465507.9000000004,465507,463978.9,463985.2000000002,463995.4,465513.4,1,40,,
trial,html.Screen,6_37_0,2024-03-05T21:50:07.651Z,,,,1,-1.238264833797662,-1.176099940770289,,,true,hh,1433.5999999999767,response,1.053007132776416,1.2,-1.2,1.341217082060068,1.2,-1.2,high,high,,ISIC_0032861.JPG,,ISIC_0024208.JPG,,25,true,0.15000000000000002,hh,keypress(i),0,false,466947.2999999998,466947,465512.846,465508.0999999996,465513.4,466964.8,1,40,38,
sequence,flow.Sequence,6_37,2024-03-05T21:50:07.651Z,,,,,,,,,,,1433.5999999999767,completion,,,,,,,high,high,,,,,,,true,,,,,false,466947.9000000004,466947,465512.846,465508.0999999996,465513.4,466964.8,1,40,,
trial,html.Screen,6_38_0,2024-03-05T21:50:09.571Z,,,,1,1.2714351764931109,1.0785174776187512,,,true,ll,1902.400000000198,response,-1.2872758518949912,1.2,-1.2,-1.313723254903214,1.2,-1.2,low,low,,ISIC_2454898.JPG,,ISIC_0064376.JPG,,27,true,0.12,ll,keypress(f),0,false,468867.5999999996,468867.2000000002,466948.1,466948.0999999996,466964.8,468883,1,40,39,
sequence,flow.Sequence,6_38,2024-03-05T21:50:09.572Z,,,,,,,,,,,1902.400000000198,completion,,,,,,,low,low,,,,,,,true,,,,,false,468868.2000000002,468867.2000000002,466948.1,466948.0999999996,466964.8,468883,1,40,,
trial,html.Screen,6_39_0,2024-03-05T21:50:10.931Z,,,,1,-1.3132505134129506,-1.0949928516457437,,,true,hh,1344,response,1.3045229691102764,1.2,-1.2,1.1781544075681951,1.2,-1.2,high,high,,ISIC_0066935.JPG,,ISIC_6148533.JPG,,25,true,0.15000000000000002,hh,keypress(i),0,false,470227.4000000004,470227,468866.3,468868.5,468883,470233.9,1,40,40,
sequence,flow.Sequence,6_39,2024-03-05T21:50:10.931Z,,,,,,,,,,,1344,completion,,,,,,,high,high,,,,,,,true,,,,,false,470227.9000000004,470227,468866.3,468868.4000000004,468883,470233.9,1,40,,
practice_loop,flow.Loop,6,2024-03-05T21:50:10.932Z,,,,,,,,,,,105646.90000000002,completion,,,,,,,,,,,,,,,true,,,,,false,470228.2000000002,470227,364576.306,364557.5,364580.1,470233.9,1,40,,
stair_instructions,html.Screen,7,2024-03-05T21:50:34.099Z,,,,,,,,,,,23160.300000000163,response,,,,,,,,,,,,,,,,,continue,keypress(Space),,,493395.4000000004,493394.2000000002,470217.5,470228.4000000004,470233.9,493403,,,,
trial,html.Screen,8_0_0,2024-03-05T21:50:40.616Z,,,,2,0.0086413421586899,0.0360184993500958,,0.04,true,ll,6510.0999999996275,response,-1.1715181192107684,1.2,-1.2,-1.2251845559044463,1.2,-1.2,low,low,,ISIC_0010767.JPG,,ISIC_0011957.JPG,28,27,false,0.12,ll,keypress(f),0,true,499913.2000000002,499913.0999999996,493399.64,493395.9000000004,493403,499925.1,1,40,1,
sequence,flow.Sequence,8_0,2024-03-05T21:50:40.616Z,,,,,,,,,,,6510.0999999996275,completion,,,,,,,low,low,,,,,,,false,,,,,true,499913.2999999998,499913.0999999996,493399.64,493395.7999999998,493403,499925.1,1,40,,
trial,html.Screen,8_1_0,2024-03-05T21:50:44.116Z,,,,2,0.0321039635696159,0.020496766286318,,0.04,true,lh,3486.9999999996508,response,-1.2609895831255231,1.15,-1.15,1.0687377724194886,1.15,-1.15,low,high,,ISIC_0058063.JPG,,ISIC_1367610.JPG,28,25,false,0.28000000000000014,lh,keypress(e),0,true,503412.4000000004,503412.0999999996,499920.646,499913.4000000004,499925.1,503428,1,40,2,
sequence,flow.Sequence,8_1,2024-03-05T21:50:44.116Z,,,,,,,,,,,3486.9999999996508,completion,,,,,,,low,high,,,,,,,false,,,,,true,503413,503412.0999999996,499920.646,499913.4000000004,499925.1,503428,1,40,,
trial,html.Screen,8_2_0,2024-03-05T21:50:47.298Z,,,,2,0.0086413421586899,0.0360184993500958,,0.04,false,lh,3166.9000000003725,response,-1.052305774554686,1.15,-1.0999999999999999,1.3940181224717798,1.15,-1.15,low,high,,ISIC_0010767.JPG,,ISIC_4175400.JPG,28,26,false,0.2500000000000001,ll,keypress(f),0,true,506595.2000000002,506594.9000000004,503426.2,503413.2000000002,503428,506614.5,1,40,3,
sequence,flow.Sequence,8_2,2024-03-05T21:50:47.299Z,,,,,,,,,,,3166.9000000003725,completion,,,,,,,low,high,,,,,,,false,,,,,true,506595.7000000002,506594.9000000004,503426.2,503413.2000000002,503428,506614.5,1,40,,
trial,html.Screen,8_3_0,2024-03-05T21:50:54.083Z,,,,2,0.0051046740562181,-0.0178832721027728,,0.04,true,hl,6764.5999999996275,response,1.2838089642212804,1.15,-1.0999999999999999,-0.8550527900640753,1.15,-1.15,high,low,,ISIC_9545819.JPG,,ISIC_0034187.JPG,28,27,false,0.31000000000000016,hl,keypress(j),0,true,513379.5999999996,513379.0999999996,506595.48,506595.9000000004,506614.5,513386.2,1,40,4,
sequence,flow.Sequence,8_3,2024-03-05T21:50:54.083Z,,,,,,,,,,,6764.5999999996275,completion,,,,,,,high,low,,,,,,,false,,,,,true,513380.0999999996,513379.0999999996,506595.48,506595.7999999998,506614.5,513386.2,1,40,,
trial,html.Screen,8_4_0,2024-03-05T21:50:59.441Z,,,,2,-0.0158987717472563,-0.0292472192292015,,0.04,false,hh,5351.399999999616,response,1.0901635293704552,1.15,-1.0999999999999999,1.0348352814358883,1.15,-1.0999999999999999,high,high,,ISIC_1366765.JPG,,ISIC_7583134.JPG,28,26,false,0.14,ll,keypress(f),0,true,518737.7000000002,518737.5999999996,513380.992,513380.2999999998,513386.2,518740.6,1,40,5,
sequence,flow.Sequence,8_4,2024-03-05T21:50:59.441Z,,,,,,,,,,,5351.399999999616,completion,,,,,,,high,high,,,,,,,false,,,,,true,518738,518737.5999999996,513380.992,513380.2999999998,513386.2,518740.6,1,40,,
trial,html.Screen,8_5_0,2024-03-05T21:51:04.867Z,,,,2,0.0199897690678184,0.0312486875504497,,0.04,false,ll,5422.699999999837,response,-0.9926496793263212,1.15,-1.0999999999999999,-1.0520809837712837,1.15,-1.0999999999999999,low,low,,ISIC_5482426.JPG,,ISIC_0062686.JPG,28,32,false,0.11,hl,keypress(j),0,true,524163.5999999996,524163.2999999998,518737.126,518738.0999999996,518740.6,524178.5,1,40,6,
sequence,flow.Sequence,8_5,2024-03-05T21:51:04.867Z,,,,,,,,,,,5422.699999999837,completion,,,,,,,low,low,,,,,,,false,,,,,true,524164.0999999996,524163.2999999998,518737.126,518738.0999999996,518740.6,524178.5,1,40,,
trial,html.Screen,8_6_0,2024-03-05T21:51:17.139Z,,,,2,-0.0023664502831079,-0.0252784582169994,,0.04,true,hh,12257.299999999814,response,1.1604734171556077,1.15,-1.15,1.0789312625280616,1.15,-1.0999999999999999,high,high,,ISIC_4156010.JPG,,ISIC_3950753.JPG,28,26,false,0.14,hh,keypress(i),0,true,536436.2000000002,536435.7999999998,524161.9,524164.4000000004,524178.5,536455.7,1,40,7,
sequence,flow.Sequence,8_6,2024-03-05T21:51:17.140Z,,,,,,,,,,,12257.299999999814,completion,,,,,,,high,high,,,,,,,false,,,,,true,536436.7999999998,536435.7999999998,524161.9,524164.2999999998,524178.5,536455.7,1,40,,
trial,html.Screen,8_7_0,2024-03-05T21:51:21.888Z,,,,2,0.0321039635696159,0.020496766286318,,0.04,true,lh,4729.000000000233,response,-1.1592423187534993,1.15,-1.15,1.067128884093211,1.15,-1.0999999999999999,low,high,,ISIC_0058063.JPG,,ISIC_6854940.JPG,28,25,false,0.28000000000000014,lh,keypress(e),0,true,541184.9000000004,541184.7000000002,536445.716,536437,536455.7,541192.4,1,40,8,
sequence,flow.Sequence,8_7,2024-03-05T21:51:21.888Z,,,,,,,,,,,4729.000000000233,completion,,,,,,,low,high,,,,,,,false,,,,,true,541185,541184.7000000002,536445.716,536436.9000000004,536455.7,541192.4,1,40,,
trial,html.Screen,8_8_0,2024-03-05T21:51:31.411Z,,,,2,-0.0350697500805515,-0.0166617848231997,,0.04,true,hh,9515.099999999977,response,1.212030980680325,1.15,-1.15,1.139863018685685,1.0999999999999999,-1.0999999999999999,high,high,,ISIC_0024423.JPG,,ISIC_0008510.JPG,28,26,false,0.13,hh,keypress(i),0,true,550707.9000000004,550707.5,541175.9,541185.0999999996,541192.4,550716.9,1,40,9,
sequence,flow.Sequence,8_8,2024-03-05T21:51:31.412Z,,,,,,,,,,,9515.099999999977,completion,,,,,,,high,high,,,,,,,false,,,,,true,550708.4000000004,550707.5,541175.9,541185.0999999996,541192.4,550716.9,1,40,,
trial,html.Screen,8_9_0,2024-03-05T21:51:34.609Z,,,,2,0.0361875505619981,-0.0291457404567876,,0.04,false,hl,3188.800000000163,response,1.3559315773956395,1.125946999683005,-1.15,-0.924768326187701,1.0999999999999999,-1.0999999999999999,high,low,,ISIC_0027480.JPG,,ISIC_5101111.JPG,28,29,false,0.28000000000000014,hh,keypress(i),0,true,553905.9000000004,553905.7000000002,550709.526,550708.5999999996,550716.9,553919.6,1,40,10,
sequence,flow.Sequence,8_9,2024-03-05T21:51:34.609Z,,,,,,,,,,,3188.800000000163,completion,,,,,,,high,low,,,,,,,false,,,,,true,553906,553905.7000000002,550709.526,550708.5,550716.9,553919.6,1,40,,
trial,html.Screen,8_10_0,2024-03-05T21:51:41.283Z,,,,2,0.0063515208248796,0.0194177605767913,,0.04,true,lh,6659.60000000021,response,-0.9670240379618178,1.125946999683005,-1.15,1.1806404773220665,1.0999999999999999,-1.15,low,high,,ISIC_5281908.JPG,,ISIC_0002288.JPG,28,25,false,0.28000000000000014,lh,keypress(e),0,true,560579.5999999996,560579.2000000002,553903.2,553906.0999999996,553919.6,560591.8,1,40,11,
sequence,flow.Sequence,8_10,2024-03-05T21:51:41.283Z,,,,,,,,,,,6659.60000000021,completion,,,,,,,low,high,,,,,,,false,,,,,true,560580,560579.2000000002,553903.2,553906.0999999996,553919.6,560591.8,1,40,,
trial,html.Screen,8_11_0,2024-03-05T21:51:46.627Z,,,,2,0.0199897690678184,0.0312486875504497,,0.04,false,hl,5331.40000000014,response,1.1235224875125256,1.125946999683005,-1.0999999999999999,-0.8641223012137988,1.168286027358853,-1.15,high,low,,ISIC_5482426.JPG,,ISIC_0033901.JPG,28,27,false,0.31000000000000016,hh,keypress(i),0,true,565923.5999999996,565923.2000000002,560587.14,560580.2999999998,560591.8,565929.5,1,40,12,
sequence,flow.Sequence,8_11,2024-03-05T21:51:46.627Z,,,,,,,,,,,5331.40000000014,completion,,,,,,,high,low,,,,,,,false,,,,,true,565924,565923.2000000002,560587.14,560580.2999999998,560591.8,565929.5,1,40,,
trial,html.Screen,8_12_0,2024-03-05T21:51:53.123Z,,,,2,-0.0050679133050021,-0.0174815595031679,,0.04,false,lh,6489.700000000186,response,-1.2704198237183777,1.1897270324540825,-1.0999999999999999,1.138121072015301,1.168286027358853,-1.15,low,high,,ISIC_9848743.JPG,,ISIC_0501843.JPG,28,26,false,0.2500000000000001,ll,keypress(f),0,true,572419.5999999996,572419.2000000002,565925.86,565924.2999999998,565929.5,572435,1,40,13,
sequence,flow.Sequence,8_12,2024-03-05T21:51:53.124Z,,,,,,,,,,,6489.700000000186,completion,,,,,,,low,high,,,,,,,false,,,,,true,572420.2000000002,572419.2000000002,565925.86,565924.2000000002,565929.5,572435,1,40,,
trial,html.Screen,8_13_0,2024-03-05T21:51:57.443Z,,,,2,-0.0158987717472563,-0.0292472192292015,,0.04,false,lh,4304.0999999996275,response,-1.0961318727760048,1.1897270324540825,-1.0999999999999999,1.2134960228256146,1.168286027358853,-1.15,low,high,,ISIC_1366765.JPG,,ISIC_9768421.JPG,28,26,false,0.2500000000000001,ll,keypress(f),0,true,576739.4000000004,576739.0999999996,572430.514,572420.2999999998,572435,576755.2,1,40,14,
sequence,flow.Sequence,8_13,2024-03-05T21:51:57.443Z,,,,,,,,,,,4304.0999999996275,completion,,,,,,,low,high,,,,,,,false,,,,,true,576740,576739.0999999996,572430.514,572420.2999999998,572435,576755.2,1,40,,
trial,html.Screen,8_14_0,2024-03-05T21:52:03.779Z,,,,2,0.0127320821962457,-0.0315308940184827,,0.04,true,hh,6319.700000000419,response,1.0885984639975343,1.1897270324540825,-1.1332758482471912,1.2042618719491294,1.168286027358853,-1.15,high,high,,ISIC_8156101.JPG,,ISIC_0012740.JPG,28,30,false,0.15000000000000002,hh,keypress(i),0,true,583075.2000000002,583074.9000000004,576738.5,576740.2000000002,576755.2,583094,1,40,15,
sequence,flow.Sequence,8_14,2024-03-05T21:52:03.779Z,,,,,,,,,,,6319.700000000419,completion,,,,,,,high,high,,,,,,,false,,,,,true,583075.7999999998,583074.9000000004,576738.5,576740.0999999996,576755.2,583094,1,40,,
trial,html.Screen,8_15_0,2024-03-05T21:52:09.299Z,,,,2,-0.0057914759495055,0.018500200317654,,0.04,false,hl,5501.4000000003725,response,1.4748095371445096,1.1897270324540825,-1.1332758482471912,-0.9579010801034902,1.168286027358853,-1.15,high,low,,ISIC_0058723.JPG,,ISIC_0033216.JPG,28,27,false,0.3300000000000002,ll,keypress(f),0,true,588595.7000000002,588595.4000000004,583072.554,583076.0999999996,583094,588614.9,1,40,16,
sequence,flow.Sequence,8_15,2024-03-05T21:52:09.300Z,,,,,,,,,,,5501.4000000003725,completion,,,,,,,high,low,,,,,,,false,,,,,true,588596.2999999998,588595.4000000004,583072.554,583076.0999999996,583094,588614.9,1,40,,
trial,html.Screen,8_16_0,2024-03-05T21:52:16.163Z,,,,2,-0.0377791839943904,0.0227626648172468,,0.04,true,hl,6844.300000000163,response,1.2838089642212804,1.1897270324540825,-1.1332758482471912,-0.8550527900640753,1.168286027358853,-1.15,high,low,,ISIC_7167479.JPG,,ISIC_0034187.JPG,28,27,false,0.3300000000000002,hl,keypress(j),0,true,595459.5999999996,595459.2000000002,588611.042,588596.4000000004,588614.9,595470.5,1,40,17,
sequence,flow.Sequence,8_16,2024-03-05T21:52:16.164Z,,,,,,,,,,,6844.300000000163,completion,,,,,,,high,low,,,,,,,false,,,,,true,595460.0999999996,595459.2000000002,588611.042,588596.4000000004,588614.9,595470.5,1,40,,
trial,html.Screen,8_17_0,2024-03-05T21:52:21.379Z,,,,2,0.0127320821962457,-0.0315308940184827,,0.04,true,ll,5204.700000000186,response,-1.084683602025889,1.1897270324540825,-1.1332758482471912,-1.0111744161375118,1.168286027358853,-1.0999999999999999,low,low,,ISIC_8156101.JPG,,ISIC_0069946.JPG,28,28,false,0.11,ll,keypress(f),0,true,600675.5999999996,600675.2000000002,595465.766,595460.4000000004,595470.5,600691.8,1,40,18,
sequence,flow.Sequence,8_17,2024-03-05T21:52:21.379Z,,,,,,,,,,,5204.700000000186,completion,,,,,,,low,low,,,,,,,false,,,,,true,600676.0999999996,600675.2000000002,595465.766,595460.2999999998,595470.5,600691.8,1,40,,
trial,html.Screen,8_18_0,2024-03-05T21:52:25.635Z,,,,2,0.0365981355399771,0.0162670920008846,,0.04,true,hh,4239.299999999581,response,1.1569583426015195,1.1897270324540825,-1.1332758482471912,1.02258614327008,1.168286027358853,-1.0999999999999999,high,high,,ISIC_0982855.JPG,,ISIC_5705973.JPG,28,30,false,0.15000000000000002,hh,keypress(i),0,true,604931.4000000004,604931.0999999996,600674.8,600676.2999999998,600691.8,604945,1,40,19,
sequence,flow.Sequence,8_18,2024-03-05T21:52:25.635Z,,,,,,,,,,,4239.299999999581,completion,,,,,,,high,high,,,,,,,false,,,,,true,604932,604931.0999999996,600674.8,600676.2000000002,600691.8,604945,1,40,,
trial,html.Screen,8_19_0,2024-03-05T21:52:28.835Z,,,,2,0.0189295602385628,0.0128812415435153,,0.04,true,hh,3186.2999999998137,response,1.0831477774866454,1.1397270324540825,-1.1332758482471912,1.0347343776726454,1.1182860273588529,-1.0999999999999999,high,high,,ISIC_0010372.JPG,,ISIC_9475559.JPG,28,26,false,0.13,hh,keypress(i),0,true,608131.5999999996,608131.2999999998,604928.4,604932.2000000002,604945,608147.7,1,40,20,
sequence,flow.Sequence,8_19,2024-03-05T21:52:28.836Z,,,,,,,,,,,3186.2999999998137,completion,,,,,,,high,high,,,,,,,false,,,,,true,608132.0999999996,608131.2999999998,604928.4,604932.0999999996,604945,608147.7,1,40,,
trial,html.Screen,8_20_0,2024-03-05T21:52:32.033Z,,,,2,-0.0071892445601978,0.0246015408628738,,0.04,true,ll,3182.000000000233,response,-1.0762260610050776,1.1397270324540825,-1.1332758482471912,-1.1184338818466155,1.1182860273588529,-1.0999999999999999,low,low,,ISIC_0014133.JPG,,ISIC_0058666.JPG,28,28,false,0.11,ll,keypress(f),0,true,611329.7999999998,611329.7000000002,608131.1,608132.2999999998,608147.7,611333.5,1,40,21,
sequence,flow.Sequence,8_20,2024-03-05T21:52:32.033Z,,,,,,,,,,,3182.000000000233,completion,,,,,,,low,low,,,,,,,false,,,,,true,611330,611329.7000000002,608131.1,608132.2999999998,608147.7,611333.5,1,40,,
trial,html.Screen,8_21_0,2024-03-05T21:52:35.251Z,,,,2,0.0051046740562181,-0.0178832721027728,,0.04,false,hl,3213.4000000003725,response,1.0143509683988825,1.1397270324540825,-1.0832758482471911,-1.0281980567462463,1.1182860273588529,-1.0499999999999998,high,low,,ISIC_9545819.JPG,,ISIC_0062031.JPG,28,26,false,0.27000000000000013,ll,keypress(f),0,true,614547.2000000002,614546.9000000004,611331.746,611330,611333.5,614553,1,40,22,
sequence,flow.Sequence,8_21,2024-03-05T21:52:35.251Z,,,,,,,,,,,3213.4000000003725,completion,,,,,,,high,low,,,,,,,false,,,,,true,614547.7999999998,614546.9000000004,611331.746,611330,611333.5,614553,1,40,,
trial,html.Screen,8_22_0,2024-03-05T21:52:40.515Z,,,,2,0.010035581303589,-0.0100711721396864,,0.04,false,hl,5257.9000000003725,response,1.3515962101204746,1.1897270324540825,-1.0832758482471911,-0.8414583575292955,1.1182860273588529,-1.0499999999999998,high,low,,ISIC_0030592.JPG,,ISIC_0274382.JPG,28,28,false,0.29000000000000015,ll,keypress(f),0,true,619811.2000000002,619810.9000000004,614551.378,614548,614553,619824,1,40,23,
sequence,flow.Sequence,8_22,2024-03-05T21:52:40.515Z,,,,,,,,,,,5257.9000000003725,completion,,,,,,,high,low,,,,,,,false,,,,,true,619811.7000000002,619810.9000000004,614551.378,614548,614553,619824,1,40,,
trial,html.Screen,8_23_0,2024-03-05T21:52:42.947Z,,,,2,0.0327772618698018,-0.0056908372048728,,0.04,true,ll,2419.5999999996275,response,-1.023702319483283,1.1897270324540825,-1.0832758482471911,-0.8767219558395388,1.1182860273588529,-0.8848282071377709,low,low,,ISIC_7897925.JPG,,ISIC_0064986.JPG,28,42,false,0.1,ll,keypress(f),0,true,622243.9000000004,622243.5999999996,619807.2,619811.9000000004,619824,622259.3,1,40,24,
sequence,flow.Sequence,8_23,2024-03-05T21:52:42.948Z,,,,,,,,,,,2419.5999999996275,completion,,,,,,,low,low,,,,,,,false,,,,,true,622244.5,622243.5999999996,619807.2,619811.7999999998,619824,622259.3,1,40,,
trial,html.Screen,8_24_0,2024-03-05T21:52:47.777Z,,,,2,-0.0077673378094614,-0.0021810768579373,,0.04,true,hh,4813.799999999581,response,1.3045229691102764,1.1897270324540825,-1.0832758482471911,1.1781544075681951,1.1182860273588529,-0.8848282071377709,high,high,,ISIC_0067621.JPG,,ISIC_6148533.JPG,28,26,false,0.13,hh,keypress(i),0,true,627073.2000000002,627073.0999999996,622242.8,622244.7000000002,622259.3,627079.8,1,40,25,
sequence,flow.Sequence,8_24,2024-03-05T21:52:47.777Z,,,,,,,,,,,4813.799999999581,completion,,,,,,,high,high,,,,,,,false,,,,,true,627073.2000000002,627073.0999999996,622242.8,622244.5999999996,622259.3,627079.8,1,40,,
trial,html.Screen,8_25_0,2024-03-05T21:52:57.459Z,,,,2,0.0321039635696159,0.020496766286318,,0.04,false,ll,9675.199999999953,response,-1.033120591224746,1.1897270324540825,-1.0832758482471911,-0.9169816067930722,1.1913386883392356,-0.8848282071377709,low,low,,ISIC_0058063.JPG,,ISIC_0033027.JPG,28,42,false,0.1,hh,keypress(i),0,true,636755.5,636755,627063.3,627073.2999999998,627079.8,636771.2,1,40,26,
sequence,flow.Sequence,8_25,2024-03-05T21:52:57.460Z,,,,,,,,,,,9675.199999999953,completion,,,,,,,low,low,,,,,,,false,,,,,true,636756.2000000002,636755,627063.3,627073.2999999998,627079.8,636771.2,1,40,,
trial,html.Screen,8_26_0,2024-03-05T21:53:05.569Z,,,,2,-0.0057914759495055,0.018500200317654,,0.04,true,lh,8094.09999999986,response,-1.0264463986917702,1.1897270324540825,-1.1332758482471912,1.171271535505083,1.1913386883392356,-0.9348282071377709,low,high,,ISIC_0058723.JPG,,ISIC_7889838.JPG,28,26,false,0.28000000000000014,lh,keypress(e),0,true,644865.4000000004,644865.2999999998,636763.686,636756.4000000004,636771.2,644877.9,1,40,27,
sequence,flow.Sequence,8_26,2024-03-05T21:53:05.569Z,,,,,,,,,,,8094.09999999986,completion,,,,,,,low,high,,,,,,,false,,,,,true,644865.5999999996,644865.2999999998,636763.686,636756.2999999998,636771.2,644877.9,1,40,,
trial,html.Screen,8_27_0,2024-03-05T21:53:09.792Z,,,,2,0.0367218428225813,-0.0026956749740767,,0.04,true,ll,4210.699999999604,response,-1.0917349644156236,1.1897270324540825,-1.1332758482471912,-0.9202593988538142,1.1913386883392356,-0.9348282071377709,low,low,,ISIC_7212271.JPG,,ISIC_0034059.JPG,28,32,false,0.1,ll,keypress(f),0,true,649088.7000000002,649088.5999999996,644861.3,644865.7000000002,644877.9,649097.9,1,40,28,
sequence,flow.Sequence,8_27,2024-03-05T21:53:09.792Z,,,,,,,,,,,4210.699999999604,completion,,,,,,,low,low,,,,,,,false,,,,,true,649088.7999999998,649088.5999999996,644861.3,644865.7000000002,644877.9,649097.9,1,40,,
trial,html.Screen,8_28_0,2024-03-05T21:53:18.898Z,,,,2,0.0321039635696159,0.020496766286318,,0.04,false,ll,9096.699999999604,response,-1.033120591224746,1.1897270324540825,-0.9559971816347188,-0.9169816067930722,1.1913386883392356,-0.9348282071377709,low,low,,ISIC_0058063.JPG,,ISIC_0033027.JPG,28,49,false,0.1,hh,keypress(i),0,true,658195,658194.5999999996,649081.4,649088.7999999998,649097.9,658205.6,1,40,29,
sequence,flow.Sequence,8_28,2024-03-05T21:53:18.899Z,,,,,,,,,,,9096.699999999604,completion,,,,,,,low,low,,,,,,,false,,,,,true,658195.5,658194.5999999996,649081.4,649088.7999999998,649097.9,658205.6,1,40,,
trial,html.Screen,8_29_0,2024-03-05T21:53:24.451Z,,,,2,0.0086413421586899,0.0360184993500958,,0.04,true,hl,5541.900000000023,response,1.0481746483551846,1.1897270324540825,-1.0059971816347189,-0.7465283499508132,1.1913386883392356,-0.984828207137771,high,low,,ISIC_0010767.JPG,,ISIC_0031248.JPG,28,27,false,0.2600000000000001,hl,keypress(j),0,true,663747.7999999998,663747.5,658198.876,658195.7999999998,658205.6,663760.4,1,40,30,
sequence,flow.Sequence,8_29,2024-03-05T21:53:24.452Z,,,,,,,,,,,5541.900000000023,completion,,,,,,,high,low,,,,,,,false,,,,,true,663748.2999999998,663747.5,658198.876,658195.7000000002,658205.6,663760.4,1,40,,
trial,html.Screen,8_30_0,2024-03-05T21:53:28.595Z,,,,2,0.0199897690678184,0.0312486875504497,,0.04,false,ll,4130.500000000349,response,-0.9210502980092926,1.1397270324540825,-1.0059971816347189,-0.9643734217956152,1.1913386883392356,-0.984828207137771,low,low,,ISIC_5482426.JPG,,ISIC_0033876.JPG,28,45,false,0.1,lh,keypress(e),0,true,667891.2999999998,667890.9000000004,663743.3,663748.5999999996,663760.4,667897,1,40,31,
sequence,flow.Sequence,8_30,2024-03-05T21:53:28.595Z,,,,,,,,,,,4130.500000000349,completion,,,,,,,low,low,,,,,,,false,,,,,true,667891.7999999998,667890.9000000004,663743.3,663748.4000000004,663760.4,667897,1,40,,
trial,html.Screen,8_31_0,2024-03-05T21:53:35.555Z,,,,2,-0.012020985739544,0.0126097407389903,,0.04,false,lh,6954,response,-0.8709576717420565,1.1397270324540825,-1.0059971816347189,1.2795156779072283,1.1913386883392356,-1.034828207137771,low,high,,ISIC_0069379.JPG,,ISIC_1925632.JPG,28,26,false,0.2300000000000001,ll,keypress(f),0,true,674851.4000000004,674851,667894.308,667892,667897,674869.3,1,40,32,
sequence,flow.Sequence,8_31,2024-03-05T21:53:35.556Z,,,,,,,,,,,6954,completion,,,,,,,low,high,,,,,,,false,,,,,true,674852.0999999996,674851,667894.308,667891.9000000004,667897,674869.3,1,40,,
trial,html.Screen,8_32_0,2024-03-05T21:53:40.595Z,,,,2,-0.0158987717472563,-0.0292472192292015,,0.04,true,hh,5021.600000000326,response,1.0066944863194518,1.1397270324540825,-0.8460039848756745,1.2755557894401093,1.1913386883392356,-1.034828207137771,high,high,,ISIC_1366765.JPG,,ISIC_3885041.JPG,28,25,false,0.14,hh,keypress(i),0,true,679891.2999999998,679890.9000000004,674852.8,674852.2000000002,674869.3,679906.9,1,40,33,
sequence,flow.Sequence,8_32,2024-03-05T21:53:40.595Z,,,,,,,,,,,5021.600000000326,completion,,,,,,,high,high,,,,,,,false,,,,,true,679891.7999999998,679890.9000000004,674852.8,674852.2000000002,674869.3,679906.9,1,40,,
trial,html.Screen,8_33_0,2024-03-05T21:53:49.123Z,,,,2,0.0086413421586899,0.0360184993500958,,0.04,true,hh,8512.300000000163,response,1.1217390688497193,1.1397270324540825,-0.8460039848756745,1.2276600934505035,1.1913386883392356,-1.034828207137771,high,high,,ISIC_0010767.JPG,,ISIC_0026344.JPG,28,25,false,0.14,hh,keypress(i),0,true,688419.5,688419.2000000002,679903.438,679892.0999999996,679906.9,688430.5,1,40,34,
sequence,flow.Sequence,8_33,2024-03-05T21:53:49.124Z,,,,,,,,,,,8512.300000000163,completion,,,,,,,high,high,,,,,,,false,,,,,true,688420.0999999996,688419.2000000002,679903.438,679892,679906.9,688430.5,1,40,,
trial,html.Screen,8_34_0,2024-03-05T21:53:52.915Z,,,,2,-0.0377791839943904,0.0227626648172468,,0.04,false,hl,3780.7000000001863,response,1.00615481805876,1.1516079414453064,-0.8460039848756745,-0.8428903771195875,1.1516079414453064,-1.034828207137771,high,low,,ISIC_7167479.JPG,,ISIC_0069970.JPG,28,26,false,0.2600000000000001,ll,keypress(f),0,true,692211.5999999996,692211.2000000002,688424.266,688420.2999999998,688430.5,692217,1,40,35,
sequence,flow.Sequence,8_34,2024-03-05T21:53:52.916Z,,,,,,,,,,,3780.7000000001863,completion,,,,,,,high,low,,,,,,,false,,,,,true,692212,692211.2000000002,688424.266,688420.2999999998,688430.5,692217,1,40,,
trial,html.Screen,8_35_0,2024-03-05T21:53:56.467Z,,,,2,0.0327772618698018,-0.0056908372048728,,0.04,false,lh,3545.9000000003725,response,-0.9046170303418553,1.1516079414453064,-0.8460039848756745,1.0063426986460375,1.1516079414453064,-1.034828207137771,low,high,,ISIC_7897925.JPG,,ISIC_0055759.JPG,28,25,false,0.18000000000000005,ll,keypress(f),0,true,695763.2999999998,695762.9000000004,692214.722,692212.2000000002,692217,695770,1,40,36,
sequence,flow.Sequence,8_35,2024-03-05T21:53:56.467Z,,,,,,,,,,,3545.9000000003725,completion,,,,,,,low,high,,,,,,,false,,,,,true,695763.7999999998,695762.9000000004,692214.722,692212.2000000002,692217,695770,1,40,,
trial,html.Screen,8_36_0,2024-03-05T21:53:59.827Z,,,,2,-0.0071892445601978,0.0246015408628738,,0.04,true,hh,3353.2999999998137,response,1.0375203228848855,1.1516079414453064,-0.8460039848756745,1.0256934713188917,1.1516079414453064,-1.034828207137771,high,high,,ISIC_0014133.JPG,,ISIC_4264600.JPG,28,25,false,0.13,hh,keypress(i),0,true,699123.5999999996,699123.2999999998,695767.898,695764,695770,699139.5,1,40,37,
sequence,flow.Sequence,8_36,2024-03-05T21:53:59.828Z,,,,,,,,,,,3353.2999999998137,completion,,,,,,,high,high,,,,,,,false,,,,,true,699124.2000000002,699123.2999999998,695767.898,695763.9000000004,695770,699139.5,1,40,,
trial,html.Screen,8_37_0,2024-03-05T21:54:04.979Z,,,,2,0.0367218428225813,-0.0026956749740767,,0.04,false,lh,5135.4000000003725,response,-0.6707413499192771,1.1516079414453064,-0.8460039848756745,1.176352590105879,1.1516079414453064,-1.034828207137771,low,high,,ISIC_7212271.JPG,,ISIC_0567814.JPG,28,25,false,0.18000000000000005,ll,keypress(f),0,true,704275.2999999998,704274.9000000004,699122.9,699124.4000000004,699139.5,704293.8,1,40,38,
sequence,flow.Sequence,8_37,2024-03-05T21:54:04.979Z,,,,,,,,,,,5135.4000000003725,completion,,,,,,,low,high,,,,,,,false,,,,,true,704275.7999999998,704274.9000000004,699122.9,699124.4000000004,699139.5,704293.8,1,40,,
trial,html.Screen,8_38_0,2024-03-05T21:54:11.603Z,,,,2,-0.0350697500805515,-0.0166617848231997,,0.04,true,hl,6605.699999999953,response,1.225025174430573,1.1516079414453064,-0.7960039848756745,-0.8422679054456499,1.1516079414453064,-1.034828207137771,high,low,,ISIC_0024423.JPG,,ISIC_7503950.JPG,28,26,false,0.2600000000000001,hl,keypress(j),0,true,710899.7999999998,710899.5,704273.468,704276.0999999996,704293.8,710915.7,1,40,39,
sequence,flow.Sequence,8_38,2024-03-05T21:54:11.604Z,,,,,,,,,,,6605.699999999953,completion,,,,,,,high,low,,,,,,,false,,,,,true,710900.4000000004,710899.5,704273.468,704276,704293.8,710915.7,1,40,,
trial,html.Screen,8_39_0,2024-03-05T21:54:14.498Z,,,,2,-0.0050679133050021,-0.0174815595031679,,0.04,true,ll,2878.899999999674,response,-0.7107938321366991,1.1016079414453064,-0.7960039848756745,-0.9669366879696616,1.1516079414453064,-0.984828207137771,low,low,,ISIC_9848743.JPG,,ISIC_0060716.JPG,28,44,false,0.1,ll,keypress(f),0,true,713795.0999999996,713794.5999999996,710899.2,710900.5999999996,710915.7,713801.5,1,40,40,
sequence,flow.Sequence,8_39,2024-03-05T21:54:14.499Z,,,,,,,,,,,2878.899999999674,completion,,,,,,,low,low,,,,,,,false,,,,,true,713795.5,713794.5999999996,710899.2,710900.5999999996,710915.7,713801.5,1,40,,
stair_loop,flow.Loop,8,2024-03-05T21:54:14.499Z,,,,,,,,,,,220391.59999999963,completion,,,,,,,,,,,,,,,false,,,,,true,713795.7000000002,713794.5999999996,493399.64,493395.7000000002,493403,713801.5,1,40,,
exp_instructions,html.Screen,9,2024-03-05T21:54:28.307Z,,,,,,,,,,,13800.599999999627,response,,,,,,,,,,,,,,,,,continue,keypress(Space),,,727603.2000000002,727602.0999999996,713800.158,713795.9000000004,713801.5,727617.614,,,,
trial,html.Screen,10_0_0,2024-03-05T21:54:33.049Z,,,,1,0.0051046740562181,-0.0178832721027728,,0.04,false,lh,4728.086000000243,response,-0.9566823908868002,1.1607913051514498,-0.9729113695760901,0.9602125665128364,1.1611562990259612,-0.9946039760671053,low,high,,ISIC_9545819.JPG,8,ISIC_0056784.JPG,28,26,false,0.21000000000000008,ll,keypress(f),0,false,732345.9000000004,732345.7000000002,727617.614,727603.5,727617.614,732350.758,5,600,1,
break,html.Screen,10_0_1,2024-03-05T21:54:33.050Z,,,,,,,,,,,NaN,,,,,,,,low,high,,,,,,,false,,,,,false,732346.4000000004,732346.2000000002,,732345.9000000004,,732350.758,5,600,,
break_continue,html.Screen,10_0_2,2024-03-05T21:54:33.050Z,,,,,,,,,,,NaN,,,,,,,,low,high,,,,,,,false,,,,,false,732346.5999999996,732346.5,,732346.4000000004,,732350.758,5,600,,
sequence,flow.Sequence,10_0,2024-03-05T21:54:33.050Z,,,,,,,,,,,4728.886000000057,completion,,,,,,,low,high,,,,,,,false,,,,,false,732346.7999999998,732346.5,727617.614,727603.5,727617.614,732350.758,5,600,,
trial,html.Screen,10_1_0,2024-03-05T21:54:36.515Z,,,,1,0.0189295602385628,0.0128812415435153,,0.04,false,hl,3460.3419999995967,response,1.3411487193830047,1.1607913051514498,-0.9729113695760901,-1.198640448317381,1.1611562990259612,-0.9946039760671053,high,low,,ISIC_0010372.JPG,8,ISIC_3093026.JPG,28,28,false,0.2600000000000001,hh,keypress(i),0,false,735811.5999999996,735811.0999999996,732350.758,732346.7999999998,732350.758,735819.6,5,600,2,
break,html.Screen,10_1_1,2024-03-05T21:54:36.517Z,,,,,,,,,,,NaN,,,,,,,,high,low,,,,,,,false,,,,,false,735813.2999999998,735812.5999999996,,735811.9000000004,,735819.6,5,600,,
break_continue,html.Screen,10_1_2,2024-03-05T21:54:36.518Z,,,,,,,,,,,NaN,,,,,,,,high,low,,,,,,,false,,,,,false,735814.4000000004,735814.0999999996,,735813.7000000002,,735819.6,5,600,,
sequence,flow.Sequence,10_1,2024-03-05T21:54:36.518Z,,,,,,,,,,,3463.3419999995967,completion,,,,,,,high,low,,,,,,,false,,,,,false,735814.7000000002,735814.0999999996,732350.758,732346.7999999998,732350.758,735819.6,5,600,,
trial,html.Screen,10_2_0,2024-03-05T21:54:40.883Z,,,,1,-0.0050679133050021,-0.0174815595031679,,0.04,true,hh,4359.400000000023,response,1.2254777618346506,1.1607913051514498,-0.9729113695760901,1.0356416330964822,1.1611562990259612,-0.9946039760671053,high,high,,ISIC_9848743.JPG,9,ISIC_1054090.JPG,28,27,false,0.14,hh,keypress(i),0,false,740179.4000000004,740179,735817.768,735815,735819.6,740189.9,5,600,3,
break,html.Screen,10_2_1,2024-03-05T21:54:40.884Z,,,,,,,,,,,NaN,,,,,,,,high,high,,,,,,,false,,,,,false,740180.7999999998,740180.4000000004,,740179.7999999998,,740189.9,5,600,,
break_continue,html.Screen,10_2_2,2024-03-05T21:54:40.885Z,,,,,,,,,,,NaN,,,,,,,,high,high,,,,,,,false,,,,,false,740181.7999999998,740181.5999999996,,740181,,740189.9,5,600,,
sequence,flow.Sequence,10_2,2024-03-05T21:54:40.886Z,,,,,,,,,,,4361.999999999651,completion,,,,,,,high,high,,,,,,,false,,,,,false,740182.2000000002,740181.5999999996,735817.768,735814.9000000004,735819.6,740189.9,5,600,,
trial,html.Screen,10_3_0,2024-03-05T21:54:44.001Z,,,,1,-0.0350697500805515,-0.0166617848231997,,0.04,true,ll,3108.0000000003492,response,-1.0193735734252425,1.1607913051514498,-0.9729113695760901,-0.9365358249762208,1.1611562990259612,-0.9946039760671053,low,low,,ISIC_0024423.JPG,9,ISIC_0071951.JPG,28,50,false,0.1,ll,keypress(f),0,false,743297.9000000004,743297.9000000004,740187.132,740182.5,740189.9,743309.3,5,600,4,
break,html.Screen,10_3_1,2024-03-05T21:54:44.002Z,,,,,,,,,,,NaN,,,,,,,,low,low,,,,,,,false,,,,,false,743298.2000000002,743298.0999999996,,743298,,743309.3,5,600,,
break_continue,html.Screen,10_3_2,2024-03-05T21:54:44.002Z,,,,,,,,,,,NaN,,,,,,,,low,low,,,,,,,false,,,,,false,743298.2999999998,743298.2999999998,,743298.2000000002,,743309.3,5,600,,
sequence,flow.Sequence,10_3,2024-03-05T21:54:44.002Z,,,,,,,,,,,3108.3999999997905,completion,,,,,,,low,low,,,,,,,false,,,,,false,743298.2999999998,743298.2999999998,740187.132,740182.4000000004,740189.9,743309.3,5,600,,
trial,html.Screen,10_4_0,2024-03-05T21:54:50.419Z,,,,1,-0.012020985739544,0.0126097407389903,,0.04,false,hh,6405.40000000014,response,1.1569583426015195,1.1607913051514498,-0.9729113695760901,1.02258614327008,1.1611562990259612,-0.9946039760671053,high,high,,ISIC_0069379.JPG,9,ISIC_5705973.JPG,28,27,false,0.14,ll,keypress(f),0,false,749715.0999999996,749714.7000000002,743292.7,743298.2999999998,743309.3,749731.3,5,600,5,
break,html.Screen,10_4_1,2024-03-05T21:54:50.420Z,,,,,,,,,,,NaN,,,,,,,,high,high,,,,,,,false,,,,,false,749716.5999999996,749716.0999999996,,749715.5999999996,,749731.3,5,600,,
break_continue,html.Screen,10_4_2,2024-03-05T21:54:50.421Z,,,,,,,,,,,NaN,,,,,,,,high,high,,,,,,,false,,,,,false,749717.5,749717.2999999998,,749716.9000000004,,749731.3,5,600,,
sequence,flow.Sequence,10_4,2024-03-05T21:54:50.421Z,,,,,,,,,,,6407.999999999767,completion,,,,,,,high,high,,,,,,,false,,,,,false,749717.7999999998,749717.2999999998,743292.7,743298.2999999998,743309.3,749731.3,5,600,,
trial,html.Screen,10_5_0,2024-03-05T21:54:53.171Z,,,,1,0.0051046740562181,-0.0178832721027728,,0.04,true,hh,2735.999999999767,response,1.1802887330422154,1.1607913051514498,-0.9729113695760901,1.0224375154810723,1.1611562990259612,-0.9946039760671053,high,high,,ISIC_9545819.JPG,9,ISIC_9225640.JPG,28,27,false,0.14,hh,keypress(i),0,false,752467.5999999996,752467.2999999998,749714.6,749718.0999999996,749731.3,752483.5,5,600,6,
break,html.Screen,10_5_1,2024-03-05T21:54:53.173Z,,,,,,,,,,,NaN,,,,,,,,high,high,,,,,,,false,,,,,false,752469.0999999996,752468.5999999996,,752468,,752483.5,5,600,,
break_continue,html.Screen,10_5_2,2024-03-05T21:54:53.174Z,,,,,,,,,,,NaN,,,,,,,,high,high,,,,,,,false,,,,,false,752470.0999999996,752469.7999999998,,752469.2999999998,,752483.5,5,600,,
sequence,flow.Sequence,10_5,2024-03-05T21:54:53.174Z,,,,,,,,,,,2738.499999999767,completion,,,,,,,high,high,,,,,,,false,,,,,false,752470.4000000004,752469.7999999998,749714.6,749718,749731.3,752483.5,5,600,,
trial,html.Screen,10_6_0,2024-03-05T21:54:59.970Z,,,,1,0.0367218428225813,-0.0026956749740767,,0.04,true,ll,6783,response,-0.9506699737853276,1.1607913051514498,-0.9729113695760901,-0.988934053363149,1.1611562990259612,-0.9946039760671053,low,low,,ISIC_7212271.JPG,10,ISIC_0014217.JPG,28,50,false,0.1,ll,keypress(f),0,false,759266.9000000004,759266.5,752466.8,752470.7000000002,752483.5,759272.3,5,600,7,
break,html.Screen,10_6_1,2024-03-05T21:54:59.972Z,,,,,,,,,,,NaN,,,,,,,,low,low,,,,,,,false,,,,,false,759268.4000000004,759267.9000000004,,759267.2999999998,,759272.3,5,600,,
break_continue,html.Screen,10_6_2,2024-03-05T21:54:59.973Z,,,,,,,,,,,NaN,,,,,,,,low,low,,,,,,,false,,,,,false,759269.2000000002,759269,,759268.7000000002,,759272.3,5,600,,
sequence,flow.Sequence,10_6,2024-03-05T21:54:59.973Z,,,,,,,,,,,6785.5,completion,,,,,,,low,low,,,,,,,false,,,,,false,759269.5,759269,752466.8,752470.5999999996,752483.5,759272.3,5,600,,
trial,html.Screen,10_7_0,2024-03-05T21:55:02.947Z,,,,1,0.0051046740562181,-0.0178832721027728,,0.04,true,ll,2970.6999999999534,response,-0.9858885614273278,1.1607913051514498,-0.9729113695760901,-1.050716657084935,1.1611562990259612,-0.9946039760671053,low,low,,ISIC_9545819.JPG,9,ISIC_0055498.JPG,28,50,false,0.1,ll,keypress(f),0,false,762243.2000000002,762243,759267.394,759269.7000000002,759272.3,762258.4,5,600,8,
break,html.Screen,10_7_1,2024-03-05T21:55:02.948Z,,,,,,,,,,,NaN,,,,,,,,low,low,,,,,,,false,,,,,false,762244.7999999998,762244.2999999998,,762243.7000000002,,762258.4,5,600,,
break_continue,html.Screen,10_7_2,2024-03-05T21:55:02.949Z,,,,,,,,,,,NaN,,,,,,,,low,low,,,,,,,false,,,,,false,762245.7000000002,762245.4000000004,,762245.0999999996,,762258.4,5,600,,
sequence,flow.Sequence,10_7,2024-03-05T21:55:02.949Z,,,,,,,,,,,2973.100000000326,completion,,,,,,,low,low,,,,,,,false,,,,,false,762246,762245.4000000004,759267.394,759269.7000000002,759272.3,762258.4,5,600,,
trial,html.Screen,10_8_0,2024-03-05T21:55:06.163Z,,,,1,0.0367218428225813,-0.0026956749740767,,0.04,true,ll,3200.8999999997905,response,-0.9210502980092926,1.1607913051514498,-0.9729113695760901,-0.9643734217956152,1.1611562990259612,-0.9946039760671053,low,low,,ISIC_7212271.JPG,8,ISIC_0033876.JPG,28,50,false,0.1,ll,keypress(f),0,false,765459.7000000002,765459.2999999998,762241.5,762246.2000000002,762258.4,765494.1,5,600,9,
break,html.Screen,10_8_1,2024-03-05T21:55:06.165Z,,,,,,,,,,,NaN,,,,,,,,low,low,,,,,,,false,,,,,false,765461.2000000002,765460.7000000002,,765460,,765494.1,5,600,,
break_continue,html.Screen,10_8_2,2024-03-05T21:55:06.166Z,,,,,,,,,,,NaN,,,,,,,,low,low,,,,,,,false,,,,,false,765462.2000000002,765461.9000000004,,765461.5,,765494.1,5,600,,
sequence,flow.Sequence,10_8,2024-03-05T21:55:06.166Z,,,,,,,,,,,3203.5000000003492,completion,,,,,,,low,low,,,,,,,false,,,,,false,765462.5,765461.9000000004,762241.5,762246.2000000002,762258.4,765494.1,5,600,,
trial,html.Screen,10_9_0,2024-03-05T21:55:14.001Z,,,,1,-0.0377791839943904,0.0227626648172468,,0.04,true,lh,7803.499999999651,response,-0.7761549898346118,1.1607913051514498,-0.9729113695760901,1.0995228188562456,1.1611562990259612,-0.9946039760671053,low,high,,ISIC_7167479.JPG,10,ISIC_1835041.JPG,28,26,false,0.21000000000000008,lh,keypress(e),0,false,773297.9000000004,773297.5999999996,765477.7,765462.7000000002,765494.1,773300.6,5,600,10,
break,html.Screen,10_9_1,2024-03-05T21:55:14.002Z,,,,,,,,,,,NaN,,,,,,,,low,high,,,,,,,false,,,,,false,773299,773298.7000000002,,773298.0999999996,,773300.6,5,600,,
break_continue,html.Screen,10_9_2,2024-03-05T21:55:14.003Z,,,,,,,,,,,NaN,,,,,,,,low,high,,,,,,,false,,,,,false,773299.5999999996,773299.4000000004,,773299.0999999996,,773300.6,5,600,,
sequence,flow.Sequence,10_9,2024-03-05T21:55:14.003Z,,,,,,,,,,,7805.300000000396,completion,,,,,,,low,high,,,,,,,false,,,,,false,773299.7999999998,773299.4000000004,765477.7,765462.7000000002,765494.1,773300.6,5,600,,
trial,html.Screen,10_10_0,2024-03-05T21:55:21.587Z,,,,1,-0.0023664502831079,-0.0252784582169994,,0.04,true,hh,7582.800000000396,response,1.1363600109870835,1.1607913051514498,-0.9729113695760901,1.295816345369928,1.1611562990259612,-0.9946039760671053,high,high,,ISIC_4156010.JPG,9,ISIC_0026141.JPG,28,27,false,0.14,hh,keypress(i),0,false,780883.7999999998,780883.4000000004,773299.958,773299.9000000004,773300.6,780890.2,5,600,11,
break,html.Screen,10_10_1,2024-03-05T21:55:21.589Z,,,,,,,,,,,NaN,,,,,,,,high,high,,,,,,,false,,,,,false,780885.2000000002,780884.9000000004,,780884.2999999998,,780890.2,5,600,,
break_continue,html.Screen,10_10_2,2024-03-05T21:55:21.590Z,,,,,,,,,,,NaN,,,,,,,,high,high,,,,,,,false,,,,,false,780886.2000000002,780885.9000000004,,780885.5,,780890.2,5,600,,
sequence,flow.Sequence,10_10,2024-03-05T21:55:21.590Z,,,,,,,,,,,7585.300000000396,completion,,,,,,,high,high,,,,,,,false,,,,,false,780886.4000000004,780885.9000000004,773299.958,773299.7999999998,773300.6,780890.2,5,600,,
trial,html.Screen,10_11_0,2024-03-05T21:55:28.147Z,,,,1,-0.0060918352854008,0.029032683404407,,0.04,true,hh,6552.59999999986,response,1.212030980680325,1.1607913051514498,-0.9729113695760901,1.139863018685685,1.1611562990259612,-0.9946039760671053,high,high,,ISIC_8436194.JPG,8,ISIC_0008510.JPG,28,27,false,0.14,hh,keypress(i),0,false,787443.2000000002,787442.7999999998,780885.75,780886.7000000002,780890.2,787458.9,5,600,12,
break,html.Screen,10_11_1,2024-03-05T21:55:28.148Z,,,,,,,,,,,NaN,,,,,,,,high,high,,,,,,,false,,,,,false,787444.5,787444.2000000002,,787443.5999999996,,787458.9,5,600,,
break_continue,html.Screen,10_11_2,2024-03-05T21:55:28.149Z,,,,,,,,,,,NaN,,,,,,,,high,high,,,,,,,false,,,,,false,787445.2999999998,787445.0999999996,,787444.7999999998,,787458.9,5,600,,
sequence,flow.Sequence,10_11,2024-03-05T21:55:28.149Z,,,,,,,,,,,6554.899999999674,completion,,,,,,,high,high,,,,,,,false,,,,,false,787445.7000000002,787445.0999999996,780885.75,780886.5999999996,780890.2,787458.9,5,600,,
trial,html.Screen,10_12_0,2024-03-05T21:55:36.996Z,,,,1,-0.0350697500805515,-0.0166617848231997,,0.04,false,lh,8832.800000000163,response,-0.8407642478899736,1.1607913051514498,-0.9729113695760901,0.9542322753334054,1.1611562990259612,-0.9946039760671053,low,high,,ISIC_0024423.JPG,10,ISIC_9090822.JPG,28,26,false,0.21000000000000008,ll,keypress(f),0,false,796292.2000000002,796291.7000000002,787458.9,787445.7999999998,787458.9,796302.8,5,600,13,
break,html.Screen,10_12_1,2024-03-05T21:55:36.997Z,,,,,,,,,,,NaN,,,,,,,,low,high,,,,,,,false,,,,,false,796293.7999999998,796293.4000000004,,796292.7000000002,,796302.8,5,600,,
break_continue,html.Screen,10_12_2,2024-03-05T21:55:36.998Z,,,,,,,,,,,NaN,,,,,,,,low,high,,,,,,,false,,,,,false,796294.7999999998,796294.4000000004,,796294.0999999996,,796302.8,5,600,,
sequence,flow.Sequence,10_12,2024-03-05T21:55:36.999Z,,,,,,,,,,,8835.50000000035,completion,,,,,,,low,high,,,,,,,false,,,,,false,796295.0999999996,796294.4000000004,787458.9,787445.7999999998,787458.9,796302.8,5,600,,
trial,html.Screen,10_13_0,2024-03-05T21:55:40.947Z,,,,1,0.0367218428225813,-0.0026956749740767,,0.04,true,hh,3939.999999999767,response,1.0581281450494728,1.1607913051514498,-0.9729113695760901,1.133169116569424,1.1611562990259612,-0.9946039760671053,high,high,,ISIC_7212271.JPG,10,ISIC_5490352.JPG,28,27,false,0.14,hh,keypress(i),0,false,800243.2000000002,800242.7999999998,796298.416,796295.4000000004,796302.8,800256.1,5,600,14,
break,html.Screen,10_13_1,2024-03-05T21:55:40.948Z,,,,,,,,,,,NaN,,,,,,,,high,high,,,,,,,false,,,,,false,800244.7000000002,800244.2999999998,,800243.7000000002,,800256.1,5,600,,
break_continue,html.Screen,10_13_2,2024-03-05T21:55:40.949Z,,,,,,,,,,,NaN,,,,,,,,high,high,,,,,,,false,,,,,false,800245.5999999996,800245.2999999998,,800244.9000000004,,800256.1,5,600,,
sequence,flow.Sequence,10_13,2024-03-05T21:55:40.949Z,,,,,,,,,,,3942.499999999767,completion,,,,,,,high,high,,,,,,,false,,,,,false,800245.7999999998,800245.2999999998,796298.416,796295.2999999998,796302.8,800256.1,5,600,,
trial,html.Screen,10_14_0,2024-03-05T21:55:47.827Z,,,,1,-0.0060918352854008,0.029032683404407,,0.04,false,hl,6866.900000000023,response,0.9394943755829636,1.1607913051514498,-0.9729113695760901,-0.7928025019302636,1.1611562990259612,-0.9946039760671053,high,low,,ISIC_8436194.JPG,8,ISIC_0071550.JPG,28,28,false,0.2600000000000001,lh,keypress(e),0,false,807123.5,807123,800253.754,800246,800256.1,807128.4,5,600,15,
break,html.Screen,10_14_1,2024-03-05T21:55:47.828Z,,,,,,,,,,,NaN,,,,,,,,high,low,,,,,,,false,,,,,false,807124.9000000004,807124.5,,807123.9000000004,,807128.4,5,600,,
break_continue,html.Screen,10_14_2,2024-03-05T21:55:47.829Z,,,,,,,,,,,NaN,,,,,,,,high,low,,,,,,,false,,,,,false,807125.7999999998,807125.5999999996,,807125.0999999996,,807128.4,5,600,,
sequence,flow.Sequence,10_14,2024-03-05T21:55:47.830Z,,,,,,,,,,,6869.499999999651,completion,,,,,,,high,low,,,,,,,false,,,,,false,807126.0999999996,807125.5999999996,800253.754,800245.9000000004,800256.1,807128.4,5,600,,
trial,html.Screen,10_15_0,2024-03-05T21:55:53.523Z,,,,1,0.0361875505619981,-0.0291457404567876,,0.04,false,hl,5690.39999999979,response,0.9394943755829636,1.1607913051514498,-0.9729113695760901,-0.7928025019302636,1.1611562990259612,-0.9946039760671053,high,low,,ISIC_0027480.JPG,9,ISIC_0071550.JPG,28,28,false,0.2600000000000001,hh,keypress(i),0,false,812819.2000000002,812818.7999999998,807127.966,807126.4000000004,807128.4,812833.1,5,600,16,
break,html.Screen,10_15_1,2024-03-05T21:55:53.524Z,,,,,,,,,,,NaN,,,,,,,,high,low,,,,,,,false,,,,,false,812820.5,812820.0999999996,,812819.5,,812833.1,5,600,,
break_continue,html.Screen,10_15_2,2024-03-05T21:55:53.525Z,,,,,,,,,,,NaN,,,,,,,,high,low,,,,,,,false,,,,,false,812821.2000000002,812821,,812820.7000000002,,812833.1,5,600,,
sequence,flow.Sequence,10_15,2024-03-05T21:55:53.525Z,,,,,,,,,,,5692.599999999977,completion,,,,,,,high,low,,,,,,,false,,,,,false,812821.5,812821,807127.966,807126.2999999998,807128.4,812833.1,5,600,,
trial,html.Screen,10_16_0,2024-03-05T21:55:58.867Z,,,,1,0.0051046740562181,-0.0178832721027728,,0.04,true,hh,5330.10000000021,response,1.0959058628476686,1.1607913051514498,-0.9729113695760901,1.2921331918483707,1.1611562990259612,-0.9946039760671053,high,high,,ISIC_9545819.JPG,8,ISIC_5920470.JPG,28,27,false,0.14,hh,keypress(i),0,false,818163.5999999996,818163.2000000002,812831.196,812821.7000000002,812833.1,818171,5,600,17,
break,html.Screen,10_16_1,2024-03-05T21:55:58.869Z,,,,,,,,,,,NaN,,,,,,,,high,high,,,,,,,false,,,,,false,818165,818164.5999999996,,818164,,818171,5,600,,
break_continue,html.Screen,10_16_2,2024-03-05T21:55:58.869Z,,,,,,,,,,,NaN,,,,,,,,high,high,,,,,,,false,,,,,false,818165.9000000004,818165.7000000002,,818165.2999999998,,818171,5,600,,
sequence,flow.Sequence,10_16,2024-03-05T21:55:58.870Z,,,,,,,,,,,5332.60000000021,completion,,,,,,,high,high,,,,,,,false,,,,,false,818166.2000000002,818165.7000000002,812831.196,812821.7000000002,812833.1,818171,5,600,,
trial,html.Screen,10_17_0,2024-03-05T21:56:02.019Z,,,,1,0.0199897690678184,0.0312486875504497,,0.04,true,hh,3143.7999999998137,response,1.212030980680325,1.1607913051514498,-0.9729113695760901,1.139863018685685,1.1611562990259612,-0.9946039760671053,high,high,,ISIC_5482426.JPG,9,ISIC_0008510.JPG,28,27,false,0.14,hh,keypress(i),0,false,821315.2000000002,821314.7999999998,818170.358,818166.4000000004,818171,821323.4,5,600,18,
break,html.Screen,10_17_1,2024-03-05T21:56:02.020Z,,,,,,,,,,,NaN,,,,,,,,high,high,,,,,,,false,,,,,false,821316.5999999996,821316.2000000002,,821315.5999999996,,821323.4,5,600,,
break_continue,html.Screen,10_17_2,2024-03-05T21:56:02.021Z,,,,,,,,,,,NaN,,,,,,,,high,high,,,,,,,false,,,,,false,821317.5999999996,821317.2999999998,,821316.9000000004,,821323.4,5,600,,
sequence,flow.Sequence,10_17,2024-03-05T21:56:02.021Z,,,,,,,,,,,3146.2999999998137,completion,,,,,,,high,high,,,,,,,false,,,,,false,821318,821317.2999999998,818170.358,818166.2999999998,818171,821323.4,5,600,,
trial,html.Screen,10_18_0,2024-03-05T21:56:05.186Z,,,,1,0.0051046740562181,-0.0178832721027728,,0.04,false,hl,3159.0999999999767,response,0.9464722688210522,1.1607913051514498,-0.9729113695760901,-0.7779875773283346,1.1611562990259612,-0.9946039760671053,high,low,,ISIC_9545819.JPG,9,ISIC_5926550.JPG,28,28,false,0.2600000000000001,hh,keypress(i),0,false,824482.9000000004,824482.5,821321.814,821318.0999999996,821323.4,824492.7,5,600,19,
break,html.Screen,10_18_1,2024-03-05T21:56:05.188Z,,,,,,,,,,,NaN,,,,,,,,high,low,,,,,,,false,,,,,false,824484.5,824484.0999999996,,824483.4000000004,,824492.7,5,600,,
break_continue,html.Screen,10_18_2,2024-03-05T21:56:05.189Z,,,,,,,,,,,NaN,,,,,,,,high,low,,,,,,,false,,,,,false,824485.4000000004,824485.0999999996,,824484.7999999998,,824492.7,5,600,,
sequence,flow.Sequence,10_18,2024-03-05T21:56:05.189Z,,,,,,,,,,,3161.699999999604,completion,,,,,,,high,low,,,,,,,false,,,,,false,824485.7000000002,824485.0999999996,821321.814,821318.0999999996,821323.4,824492.7,5,600,,
trial,html.Screen,10_19_0,2024-03-05T21:56:12.835Z,,,,1,-0.0060934073440827,-0.0279108145883031,,0.04,false,ll,7638.59999999986,response,-1.0561331896671369,1.1607913051514498,-0.9729113695760901,-1.026183861508091,1.1611562990259612,-0.9946039760671053,low,low,,ISIC_0032604.JPG,9,ISIC_0026595.JPG,28,50,false,0.1,hh,keypress(i),0,false,832131.7000000002,832131.2999999998,824476.3,824485.9000000004,824492.7,832149.2,5,600,20,
break,html.Screen,10_19_1,2024-03-05T21:56:12.837Z,,,,,,,,,,,NaN,,,,,,,,low,low,,,,,,,false,,,,,false,832133.2000000002,832132.7000000002,,832132.2000000002,,832149.2,5,600,,
break_continue,html.Screen,10_19_2,2024-03-05T21:56:12.838Z,,,,,,,,,,,NaN,,,,,,,,low,low,,,,,,,false,,,,,false,832134.0999999996,832133.7999999998,,832133.5,,832149.2,5,600,,
sequence,flow.Sequence,10_19,2024-03-05T21:56:12.838Z,,,,,,,,,,,7641.09999999986,completion,,,,,,,low,low,,,,,,,false,,,,,false,832134.2999999998,832133.7999999998,824476.3,824485.7999999998,824492.7,832149.2,5,600,,
trial,html.Screen,10_20_0,2024-03-05T21:56:17.043Z,,,,1,-0.0118555311043871,-0.0087774532070196,,0.04,true,hh,4189.700000000419,response,1.0885984639975343,1.1607913051514498,-0.9729113695760901,1.2042618719491294,1.1611562990259612,-0.9946039760671053,high,high,,ISIC_6488658.JPG,9,ISIC_0012740.JPG,28,27,false,0.14,hh,keypress(i),0,false,836339.2999999998,836338.9000000004,832132.7,832134.5999999996,832149.2,836352.6,5,600,21,
break,html.Screen,10_20_1,2024-03-05T21:56:17.044Z,,,,,,,,,,,NaN,,,,,,,,high,high,,,,,,,false,,,,,false,836340.9000000004,836340.4000000004,,836339.5999999996,,836352.6,5,600,,
break_continue,html.Screen,10_20_2,2024-03-05T21:56:17.045Z,,,,,,,,,,,NaN,,,,,,,,high,high,,,,,,,false,,,,,false,836341.7000000002,836341.5,,836341.2000000002,,836352.6,5,600,,
sequence,flow.Sequence,10_20,2024-03-05T21:56:17.046Z,,,,,,,,,,,4192.300000000047,completion,,,,,,,high,high,,,,,,,false,,,,,false,836342.0999999996,836341.5,832132.7,832134.5,832149.2,836352.6,5,600,,
trial,html.Screen,10_21_0,2024-03-05T21:56:23.811Z,,,,1,-0.0399381815506136,-0.0177751789152893,,0.04,false,hl,6754.499999999651,response,1.1235224875125256,1.1607913051514498,-0.9729113695760901,-0.8641223012137988,1.1611562990259612,-0.9946039760671053,high,low,,ISIC_3981425.JPG,8,ISIC_0033901.JPG,28,28,false,0.2600000000000001,hh,keypress(i),0,false,843107.5999999996,843107.0999999996,836335.7,836342.2999999998,836352.6,843124.9,5,600,22,
break,html.Screen,10_21_1,2024-03-05T21:56:23.813Z,,,,,,,,,,,NaN,,,,,,,,high,low,,,,,,,false,,,,,false,843109,843108.5999999996,,843107.9000000004,,843124.9,5,600,,
break_continue,html.Screen,10_21_2,2024-03-05T21:56:23.813Z,,,,,,,,,,,NaN,,,,,,,,high,low,,,,,,,false,,,,,false,843109.9000000004,843109.7000000002,,843109.2999999998,,843124.9,5,600,,
sequence,flow.Sequence,10_21,2024-03-05T21:56:23.814Z,,,,,,,,,,,6757.10000000021,completion,,,,,,,high,low,,,,,,,false,,,,,false,843110.2999999998,843109.7000000002,836335.7,836342.2000000002,836352.6,843124.9,5,600,,
trial,html.Screen,10_22_0,2024-03-05T21:56:30.643Z,,,,1,-0.012810673904807,0.00400964452501,,0.04,false,hh,6814.099999999977,response,1.1802887330422154,1.1607913051514498,-0.9729113695760901,1.0224375154810723,1.1611562990259612,-0.9946039760671053,high,high,,ISIC_0064656.JPG,9,ISIC_9225640.JPG,28,27,false,0.14,lh,keypress(e),0,false,849939.4000000004,849939,843108.3,843110.5,843124.9,849947,5,600,23,
break,html.Screen,10_22_1,2024-03-05T21:56:30.644Z,,,,,,,,,,,NaN,,,,,,,,high,high,,,,,,,false,,,,,false,849940.7999999998,849940.4000000004,,849939.7999999998,,849947,5,600,,
break_continue,html.Screen,10_22_2,2024-03-05T21:56:30.645Z,,,,,,,,,,,NaN,,,,,,,,high,high,,,,,,,false,,,,,false,849941.7000000002,849941.4000000004,,849941.0999999996,,849947,5,600,,
sequence,flow.Sequence,10_22,2024-03-05T21:56:30.646Z,,,,,,,,,,,6816.500000000349,completion,,,,,,,high,high,,,,,,,false,,,,,false,849942,849941.4000000004,843108.3,843110.4000000004,843124.9,849947,5,600,,
trial,html.Screen,10_23_0,2024-03-05T21:56:34.563Z,,,,1,0.0051046740562181,-0.0178832721027728,,0.04,false,hl,3911.7999999998137,response,1.3411487193830047,1.1607913051514498,-0.9729113695760901,-1.198640448317381,1.1611562990259612,-0.9946039760671053,high,low,,ISIC_9545819.JPG,9,ISIC_3093026.JPG,28,28,false,0.2600000000000001,hh,keypress(i),0,false,853859.2000000002,853858.7999999998,849944.322,849942.2000000002,849947,853866.9,5,600,24,
break,html.Screen,10_23_1,2024-03-05T21:56:34.564Z,,,,,,,,,,,NaN,,,,,,,,high,low,,,,,,,false,,,,,false,853860.5,853860.0999999996,,853859.5999999996,,853866.9,5,600,,
break_continue,html.Screen,10_23_2,2024-03-05T21:56:34.565Z,,,,,,,,,,,NaN,,,,,,,,high,low,,,,,,,false,,,,,false,853861.2999999998,853861.0999999996,,853860.7000000002,,853866.9,5,600,,
sequence,flow.Sequence,10_23,2024-03-05T21:56:34.565Z,,,,,,,,,,,3914.0999999996275,completion,,,,,,,high,low,,,,,,,false,,,,,false,853861.5999999996,853861.0999999996,849944.322,849942.2000000002,849947,853866.9,5,600,,
trial,html.Screen,10_24_0,2024-03-05T21:56:45.986Z,,,,1,0.0063515208248796,0.0194177605767913,,0.04,false,hl,11415.599999999977,response,1.0481746483551846,1.1607913051514498,-0.9729113695760901,-0.7465283499508132,1.1611562990259612,-0.9946039760671053,high,low,,ISIC_5281908.JPG,8,ISIC_0031248.JPG,28,28,false,0.2600000000000001,hh,keypress(i),0,false,865283,865282.5,853866.536,853861.7999999998,853866.9,865293,5,600,25,
break,html.Screen,10_24_1,2024-03-05T21:56:45.988Z,,,,,,,,,,,NaN,,,,,,,,high,low,,,,,,,false,,,,,false,865284.2000000002,865283.9000000004,,865283.4000000004,,865293,5,600,,
break_continue,html.Screen,10_24_2,2024-03-05T21:56:45.989Z,,,,,,,,,,,NaN,,,,,,,,high,low,,,,,,,false,,,,,false,865285.0999999996,865284.7999999998,,865284.5,,865293,5,600,,
sequence,flow.Sequence,10_24,2024-03-05T21:56:45.989Z,,,,,,,,,,,11417.89999999979,completion,,,,,,,high,low,,,,,,,false,,,,,false,865285.2999999998,865284.7999999998,853866.536,853861.7999999998,853866.9,865293,5,600,,
trial,html.Screen,10_25_0,2024-03-05T21:56:50.643Z,,,,1,0.0086413421586899,0.0360184993500958,,0.04,false,hl,4646,response,1.0143509683988825,1.1607913051514498,-0.9729113695760901,-1.0281980567462463,1.1611562990259612,-0.9946039760671053,high,low,,ISIC_0010767.JPG,10,ISIC_0062031.JPG,28,28,false,0.2600000000000001,ll,keypress(f),0,false,869939.2999999998,869939,865292.042,865285.5,865293,869947,5,600,26,
break,html.Screen,10_25_1,2024-03-05T21:56:50.644Z,,,,,,,,,,,NaN,,,,,,,,high,low,,,,,,,false,,,,,false,869940.7000000002,869940.2999999998,,869939.7000000002,,869947,5,600,,
break_continue,html.Screen,10_25_2,2024-03-05T21:56:50.645Z,,,,,,,,,,,NaN,,,,,,,,high,low,,,,,,,false,,,,,false,869941.5999999996,869941.4000000004,,869941,,869947,5,600,,
sequence,flow.Sequence,10_25,2024-03-05T21:56:50.645Z,,,,,,,,,,,4648.4000000003725,completion,,,,,,,high,low,,,,,,,false,,,,,false,869941.9000000004,869941.4000000004,865292.042,865285.4000000004,865293,869947,5,600,,
trial,html.Screen,10_26_0,2024-03-05T21:56:56.946Z,,,,1,0.0051046740562181,-0.0178832721027728,,0.04,false,lh,6295.299999999814,response,-0.8035152873995188,1.1607913051514498,-0.9729113695760901,1.2407642249743125,1.1611562990259612,-0.9946039760671053,low,high,,ISIC_9545819.JPG,9,ISIC_0010671.JPG,28,26,false,0.21000000000000008,hl,keypress(j),0,false,876242.5999999996,876242.2999999998,869943.744,869942.2000000002,869947,876252,5,600,27,
break,html.Screen,10_26_1,2024-03-05T21:56:56.947Z,,,,,,,,,,,NaN,,,,,,,,low,high,,,,,,,false,,,,,false,876243.2000000002,876243,,876242.7999999998,,876252,5,600,,
break_continue,html.Screen,10_26_2,2024-03-05T21:56:56.947Z,,,,,,,,,,,NaN,,,,,,,,low,high,,,,,,,false,,,,,false,876243.5,876243.5,,876243.2000000002,,876252,5,600,,
sequence,flow.Sequence,10_26,2024-03-05T21:56:56.947Z,,,,,,,,,,,6296.5,completion,,,,,,,low,high,,,,,,,false,,,,,false,876243.5999999996,876243.5,869943.744,869942.0999999996,869947,876252,5,600,,
trial,html.Screen,10_27_0,2024-03-05T21:57:01.170Z,,,,1,0.0327772618698018,-0.0056908372048728,,0.04,false,hl,4214.5,response,1.064425982109969,1.1607913051514498,-0.9729113695760901,-0.958564243697126,1.1611562990259612,-0.9946039760671053,high,low,,ISIC_7897925.JPG,9,ISIC_3203344.JPG,28,28,false,0.2600000000000001,hh,keypress(i),0,false,880466.7999999998,880466.5,876235.6,876243.7000000002,876252,880472.2,5,600,28,
break,html.Screen,10_27_1,2024-03-05T21:57:01.172Z,,,,,,,,,,,NaN,,,,,,,,high,low,,,,,,,false,,,,,false,880468,880467.7000000002,,880467.2000000002,,880472.2,5,600,,
break_continue,html.Screen,10_27_2,2024-03-05T21:57:01.172Z,,,,,,,,,,,NaN,,,,,,,,high,low,,,,,,,false,,,,,false,880468.9000000004,880468.7000000002,,880468.4000000004,,880472.2,5,600,,
sequence,flow.Sequence,10_27,2024-03-05T21:57:01.173Z,,,,,,,,,,,4216.700000000186,completion,,,,,,,high,low,,,,,,,false,,,,,false,880469.2000000002,880468.7000000002,876235.6,876243.7000000002,876252,880472.2,5,600,,
trial,html.Screen,10_28_0,2024-03-05T21:57:05.154Z,,,,1,-0.00126575685933,-0.0325046559638838,,0.04,true,ll,3978.3000000000466,response,-0.8797187572470211,1.1607913051514498,-0.9729113695760901,-0.9573640085332544,1.1611562990259612,-0.9946039760671053,low,low,,ISIC_5682259.JPG,10,ISIC_0010235.JPG,28,50,false,0.1,ll,keypress(f),0,false,884450.9000000004,884450.5,880472.078,880469.4000000004,880472.2,884458.9,5,600,29,
break,html.Screen,10_28_1,2024-03-05T21:57:05.156Z,,,,,,,,,,,NaN,,,,,,,,low,low,,,,,,,false,,,,,false,884452.4000000004,884451.9000000004,,884451.2999999998,,884458.9,5,600,,
break_continue,html.Screen,10_28_2,2024-03-05T21:57:05.157Z,,,,,,,,,,,NaN,,,,,,,,low,low,,,,,,,false,,,,,false,884453.2000000002,884453,,884452.5999999996,,884458.9,5,600,,
sequence,flow.Sequence,10_28,2024-03-05T21:57:05.157Z,,,,,,,,,,,3980.8000000000466,completion,,,,,,,low,low,,,,,,,false,,,,,false,884453.5999999996,884453,880472.078,880469.4000000004,880472.2,884458.9,5,600,,
trial,html.Screen,10_29_0,2024-03-05T21:57:13.763Z,,,,1,-0.0118555311043871,-0.0087774532070196,,0.04,true,lh,8600.50000000035,response,-0.7705174182595537,1.1607913051514498,-0.9729113695760901,1.085710894474977,1.1611562990259612,-0.9946039760671053,low,high,,ISIC_6488658.JPG,9,ISIC_0013644.JPG,28,26,false,0.21000000000000008,lh,keypress(e),0,false,893059.7999999998,893059.4000000004,884456.414,884453.9000000004,884458.9,893066,5,600,30,
break,html.Screen,10_29_1,2024-03-05T21:57:13.765Z,,,,,,,,,,,NaN,,,,,,,,low,high,,,,,,,false,,,,,false,893061.2999999998,893060.7999999998,,893060.2000000002,,893066,5,600,,
break_continue,html.Screen,10_29_2,2024-03-05T21:57:13.766Z,,,,,,,,,,,NaN,,,,,,,,low,high,,,,,,,false,,,,,false,893062.0999999996,893061.7999999998,,893061.5999999996,,893066,5,600,,
sequence,flow.Sequence,10_29,2024-03-05T21:57:13.766Z,,,,,,,,,,,8602.89999999979,completion,,,,,,,low,high,,,,,,,false,,,,,false,893062.4000000004,893061.7999999998,884456.414,884453.7999999998,884458.9,893066,5,600,,
trial,html.Screen,10_30_0,2024-03-05T21:57:17.859Z,,,,1,-0.0350697500805515,-0.0166617848231997,,0.04,false,lh,4088.7999999998137,response,-1.155796217969438,1.1607913051514498,-0.9729113695760901,1.1646564121743912,1.1611562990259612,-0.9946039760671053,low,high,,ISIC_0024423.JPG,10,ISIC_2685523.JPG,28,26,false,0.21000000000000008,ll,keypress(f),0,false,897155.2000000002,897154.7999999998,893063.962,893062.7000000002,893066,897169.4,5,600,31,
break,html.Screen,10_30_1,2024-03-05T21:57:17.860Z,,,,,,,,,,,NaN,,,,,,,,low,high,,,,,,,false,,,,,false,897156.7000000002,897156.2000000002,,897155.5999999996,,897169.4,5,600,,
break_continue,html.Screen,10_30_2,2024-03-05T21:57:17.861Z,,,,,,,,,,,NaN,,,,,,,,low,high,,,,,,,false,,,,,false,897157.5,897157.2999999998,,897156.9000000004,,897169.4,5,600,,
sequence,flow.Sequence,10_30,2024-03-05T21:57:17.861Z,,,,,,,,,,,4091.2999999998137,completion,,,,,,,low,high,,,,,,,false,,,,,false,897157.9000000004,897157.2999999998,893063.962,893062.5999999996,893066,897169.4,5,600,,
trial,html.Screen,10_31_0,2024-03-05T21:57:21.024Z,,,,1,-0.0050679133050021,-0.0174815595031679,,0.04,false,hl,3150.699999999604,response,1.3559315773956395,1.1607913051514498,-0.9729113695760901,-0.924768326187701,1.1611562990259612,-0.9946039760671053,high,low,,ISIC_9848743.JPG,9,ISIC_5101111.JPG,28,28,false,0.2600000000000001,hh,keypress(i),0,false,900320.2999999998,900320.0999999996,897167.258,897158.2000000002,897169.4,900321.9,5,600,32,
break,html.Screen,10_31_1,2024-03-05T21:57:21.024Z,,,,,,,,,,,NaN,,,,,,,,high,low,,,,,,,false,,,,,false,900320.7000000002,900320.5999999996,,900320.4000000004,,900321.9,5,600,,
break_continue,html.Screen,10_31_2,2024-03-05T21:57:21.024Z,,,,,,,,,,,NaN,,,,,,,,high,low,,,,,,,false,,,,,false,900320.9000000004,900320.9000000004,,900320.7999999998,,900321.9,5,600,,
sequence,flow.Sequence,10_31,2024-03-05T21:57:21.025Z,,,,,,,,,,,3151.5000000003492,completion,,,,,,,high,low,,,,,,,false,,,,,false,900321.0999999996,900320.9000000004,897167.258,897158.2000000002,897169.4,900321.9,5,600,,
trial,html.Screen,10_32_0,2024-03-05T21:57:23.507Z,,,,1,0.0063515208248796,0.0194177605767913,,0.04,true,hh,2481.199999999604,response,1.1363600109870835,1.1607913051514498,-0.9729113695760901,1.295816345369928,1.1611562990259612,-0.9946039760671053,high,high,,ISIC_5281908.JPG,8,ISIC_0026141.JPG,28,27,false,0.14,hh,keypress(i),0,false,902803.4000000004,902803.0999999996,900320.214,900321.0999999996,900321.9,902807.4,5,600,33,
break,html.Screen,10_32_1,2024-03-05T21:57:23.508Z,,,,,,,,,,,NaN,,,,,,,,high,high,,,,,,,false,,,,,false,902804.9000000004,902804.5,,902803.9000000004,,902807.4,5,600,,
break_continue,html.Screen,10_32_2,2024-03-05T21:57:23.509Z,,,,,,,,,,,NaN,,,,,,,,high,high,,,,,,,false,,,,,false,902805.7999999998,902805.5999999996,,902805.0999999996,,902807.4,5,600,,
sequence,flow.Sequence,10_32,2024-03-05T21:57:23.510Z,,,,,,,,,,,2483.699999999604,completion,,,,,,,high,high,,,,,,,false,,,,,false,902806.0999999996,902805.5999999996,900320.214,900321.0999999996,900321.9,902807.4,5,600,,
trial,html.Screen,10_33_0,2024-03-05T21:57:32.179Z,,,,1,-0.012020985739544,0.0126097407389903,,0.04,false,hl,8667.89999999979,response,1.1890109863264902,1.1607913051514498,-0.9729113695760901,-0.8867825318561365,1.1611562990259612,-0.9946039760671053,high,low,,ISIC_0069379.JPG,8,ISIC_0072576.JPG,28,28,false,0.2600000000000001,hh,keypress(i),0,false,911475.7000000002,911475.2999999998,902806.174,902806.4000000004,902807.4,911481.2,5,600,34,
break,html.Screen,10_33_1,2024-03-05T21:57:32.181Z,,,,,,,,,,,NaN,,,,,,,,high,low,,,,,,,false,,,,,false,911477.2000000002,911476.7000000002,,911476.0999999996,,911481.2,5,600,,
break_continue,html.Screen,10_33_2,2024-03-05T21:57:32.182Z,,,,,,,,,,,NaN,,,,,,,,high,low,,,,,,,false,,,,,false,911478,911477.7999999998,,911477.4000000004,,911481.2,5,600,,
sequence,flow.Sequence,10_33,2024-03-05T21:57:32.182Z,,,,,,,,,,,8670.39999999979,completion,,,,,,,high,low,,,,,,,false,,,,,false,911478.2999999998,911477.7999999998,902806.174,902806.2999999998,902807.4,911481.2,5,600,,
trial,html.Screen,10_34_0,2024-03-05T21:57:36.992Z,,,,1,-0.0077673378094614,-0.0021810768579373,,0.04,true,hh,4807.09999999986,response,1.0831477774866454,1.1607913051514498,-0.9729113695760901,1.0347343776726454,1.1611562990259612,-0.9946039760671053,high,high,,ISIC_0067621.JPG,10,ISIC_9475559.JPG,28,27,false,0.14,hh,keypress(i),0,false,916288.2999999998,916288.2999999998,911480.486,911478.5,911481.2,916301.6,5,600,35,
break,html.Screen,10_34_1,2024-03-05T21:57:36.992Z,,,,,,,,,,,NaN,,,,,,,,high,high,,,,,,,false,,,,,false,916288.5,916288.5,,916288.4000000004,,916301.6,5,600,,
break_continue,html.Screen,10_34_2,2024-03-05T21:57:36.992Z,,,,,,,,,,,NaN,,,,,,,,high,high,,,,,,,false,,,,,false,916288.7000000002,916288.7000000002,,916288.5999999996,,916301.6,5,600,,
sequence,flow.Sequence,10_34,2024-03-05T21:57:36.992Z,,,,,,,,,,,4807.500000000233,completion,,,,,,,high,high,,,,,,,false,,,,,false,916288.7000000002,916288.7000000002,911480.486,911478.5,911481.2,916301.6,5,600,,
trial,html.Screen,10_35_0,2024-03-05T21:57:44.067Z,,,,1,-0.0118555311043871,-0.0087774532070196,,0.04,true,ll,7061.60000000021,response,-1.0011647073734584,1.1607913051514498,-0.9729113695760901,-1.090690958018423,1.1611562990259612,-0.9946039760671053,low,low,,ISIC_6488658.JPG,9,ISIC_0021901.JPG,28,50,false,0.1,ll,keypress(f),0,false,923363.5,923363.2000000002,916285.1,916288.7000000002,916301.6,923374.3,5,600,36,
break,html.Screen,10_35_1,2024-03-05T21:57:44.068Z,,,,,,,,,,,NaN,,,,,,,,low,low,,,,,,,false,,,,,false,923364.9000000004,923364.4000000004,,923363.9000000004,,923374.3,5,600,,
break_continue,html.Screen,10_35_2,2024-03-05T21:57:44.069Z,,,,,,,,,,,NaN,,,,,,,,low,low,,,,,,,false,,,,,false,923365.7000000002,923365.4000000004,,923365.0999999996,,923374.3,5,600,,
sequence,flow.Sequence,10_35,2024-03-05T21:57:44.069Z,,,,,,,,,,,7063.800000000396,completion,,,,,,,low,low,,,,,,,false,,,,,false,923365.9000000004,923365.4000000004,916285.1,916288.7000000002,916301.6,923374.3,5,600,,
trial,html.Screen,10_36_0,2024-03-05T21:57:48.080Z,,,,1,-0.0050679133050021,-0.0174815595031679,,0.04,true,hh,4002.100000000326,response,1.0730492496332733,1.1607913051514498,-0.9729113695760901,1.0252626598876022,1.1611562990259612,-0.9946039760671053,high,high,,ISIC_9848743.JPG,9,ISIC_0007029.JPG,28,27,false,0.14,hh,keypress(i),0,false,927376.5,927376.4000000004,923357.7,923366,923374.3,927394.7,5,600,37,
break,html.Screen,10_36_1,2024-03-05T21:57:48.080Z,,,,,,,,,,,NaN,,,,,,,,high,high,,,,,,,false,,,,,false,927376.7999999998,927376.7000000002,,927376.5999999996,,927394.7,5,600,,
break_continue,html.Screen,10_36_2,2024-03-05T21:57:48.081Z,,,,,,,,,,,NaN,,,,,,,,high,high,,,,,,,false,,,,,false,927377,927377,,927376.9000000004,,927394.7,5,600,,
sequence,flow.Sequence,10_36,2024-03-05T21:57:48.081Z,,,,,,,,,,,4002.6999999999534,completion,,,,,,,high,high,,,,,,,false,,,,,false,927377.0999999996,927377,923357.7,923366,923374.3,927394.7,5,600,,
trial,html.Screen,10_37_0,2024-03-05T21:57:54.370Z,,,,1,-0.0057914759495055,0.018500200317654,,0.04,true,lh,6271.500000000233,response,-0.8688859182707874,1.1607913051514498,-0.9729113695760901,0.9566733172438716,1.1611562990259612,-0.9946039760671053,low,high,,ISIC_0058723.JPG,9,ISIC_0640770.JPG,28,26,false,0.21000000000000008,lh,keypress(e),0,false,933666.5,933666.2000000002,927376.956,927377.0999999996,927394.7,933683,5,600,38,
break,html.Screen,10_37_1,2024-03-05T21:57:54.371Z,,,,,,,,,,,NaN,,,,,,,,low,high,,,,,,,false,,,,,false,933667.2000000002,933667,,933666.7000000002,,933683,5,600,,
break_continue,html.Screen,10_37_2,2024-03-05T21:57:54.371Z,,,,,,,,,,,NaN,,,,,,,,low,high,,,,,,,false,,,,,false,933667.5999999996,933667.5,,933667.2999999998,,933683,5,600,,
sequence,flow.Sequence,10_37,2024-03-05T21:57:54.371Z,,,,,,,,,,,6272.800000000047,completion,,,,,,,low,high,,,,,,,false,,,,,false,933667.7000000002,933667.5,927376.956,927377.0999999996,927394.7,933683,5,600,,
trial,html.Screen,10_38_0,2024-03-05T21:57:58.083Z,,,,1,-0.0050679133050021,-0.0174815595031679,,0.04,true,hh,3695.9000000003725,response,1.204229955025689,1.1607913051514498,-0.9729113695760901,1.0874249761617445,1.1611562990259612,-0.9946039760671053,high,high,,ISIC_9848743.JPG,9,ISIC_0056930.JPG,28,27,false,0.14,hh,keypress(i),0,false,937379.2000000002,937378.9000000004,933666.4,933667.7999999998,933683,937402.5,5,600,39,
break,html.Screen,10_38_1,2024-03-05T21:57:58.084Z,,,,,,,,,,,NaN,,,,,,,,high,high,,,,,,,false,,,,,false,937380.5,937380.2000000002,,937379.7000000002,,937402.5,5,600,,
break_continue,html.Screen,10_38_2,2024-03-05T21:57:58.085Z,,,,,,,,,,,NaN,,,,,,,,high,high,,,,,,,false,,,,,false,937381.0999999996,937380.9000000004,,937380.7000000002,,937402.5,5,600,,
sequence,flow.Sequence,10_38,2024-03-05T21:57:58.085Z,,,,,,,,,,,3697.9000000003725,completion,,,,,,,high,high,,,,,,,false,,,,,false,937381.4000000004,937380.9000000004,933666.4,933667.7999999998,933683,937402.5,5,600,,
trial,html.Screen,10_39_0,2024-03-05T21:58:04.116Z,,,,1,0.0367218428225813,-0.0026956749740767,,0.04,false,hl,6009,response,1.1162273456306029,1.1607913051514498,-0.9729113695760901,-0.7890271955816722,1.1611562990259612,-0.9946039760671053,high,low,,ISIC_7212271.JPG,9,ISIC_0011564.JPG,28,28,false,0.2600000000000001,lh,keypress(e),0,false,943411.9000000004,943411.5,937385.9,937381.5999999996,937402.5,943424.2,5,600,40,
