sender,sender_type,sender_id,timestamp,meta,,age,blockNo,c1,c2,condition,control_tolerance,correct,correctResponse,duration,ended_on,f1,f1_high,f1_low,f2,f2_high,f2_low,feature_level1,feature_level2,gender,img_left,img_reveal,img_right,n_control_images,n_target_images,practice,range_tolerance,response,response_action,selection_duration,staircase,time_commit,time_end,time_render,time_run,time_show,time_switch,total_blocks,total_trials,trialNo,url
informed_consent,html.Screen,0,2024-07-13T01:04:58.424Z,"{""labjs_version"":""20.2.4"",""labjs_build"":{""flavor"":""development"",""commit"":""f5b4a49f956347addd546a832a3327688c2c0fef""},""location"":""https://labjs.felixhenninger.com/api/labjs_preview/index.html"",""userAgent"":""Mozilla/5.0 (Macintosh; Intel Mac OS X 10.15; rv:127.0) Gecko/20100101 Firefox/127.0"",""platform"":""MacIntel"",""language"":""en-US"",""locale"":""en-US"",""timeZone"":""Asia/Taipei"",""timezoneOffset"":-480,""screen_width"":1440,""screen_height"":900,""scroll_width"":1440,""scroll_height"":759,""window_innerWidth"":1440,""window_innerHeight"":806,""devicePixelRatio"":2}",,,,,,,,,,4825.26,response,,,,,,,,,,,,,,,,,consent,click button,,,5967,5954,1112.38,1116,1128.74,5993.1,,,,{}
Demography form,html.Form,1,2024-07-13T01:05:05.266Z,,,43,,,,,,,,6812.9,form submission,,,,,,,,,male,,,,,,,,,,,,12809,12806,5975.92,5967,5993.1,12821.32,,,,
Welcome,html.Screen,2,2024-07-13T01:05:31.436Z,,,,,,,"[""asym"",""bor""]",,,,26129.68,response,,,,,,,,,,,,,,,,,continue,click button,,,38979,38951,12805.3,12809,12821.32,38987.24,,,,
demo_instructions,html.Screen,3,2024-07-13T01:06:00.154Z,,,,,,,,,,,28692.760000000002,response,,,,,,,,,,,,,,,,,continue,click button,,,67698,67680,38972.52,38980,38987.24,67701.3,,,,
trial,html.Screen,4_0_0,2024-07-13T01:06:06.015Z,,,,0,-1.255256820488545,-1.1206426433062562,,,false,hh,5856.699999999997,response,1.086647361897092,1.2,-1.2,1.1528935990320313,1.2,-1.2,high,high,,ISIC_0024652.JPG,,ISIC_3505339.JPG,,26,true,0.15000000000000002,ll,keypress(f),100,false,73559,73558,67692.4,67699,67701.3,73564.08,1,16,1,
sequence,flow.Sequence,4_0,2024-07-13T01:06:06.017Z,,,,,,,,,,,5856.699999999997,completion,,,,,,,high,high,,,,,,,true,,,,,false,73560,73558,67692.4,67699,67701.3,73564.08,1,16,,
trial,html.Screen,4_1_0,2024-07-13T01:06:12.438Z,,,,0,-1.2322060291690602,-1.2686491386389651,,,true,hh,6414.919999999998,response,1.0789197754694622,1.2,-1.2,1.1654690806750023,1.2,-1.2,high,high,,ISIC_0011697.JPG,,ISIC_1576437.JPG,,26,true,0.15000000000000002,hh,keypress(i),100,false,79982,79979,73559.88,73560,73564.08,79993.88,1,16,2,
sequence,flow.Sequence,4_1,2024-07-13T01:06:12.440Z,,,,,,,,,,,6414.919999999998,completion,,,,,,,high,high,,,,,,,true,,,,,false,79984,79979,73559.88,73560,73564.08,79993.88,1,16,,
trial,html.Screen,4_2_0,2024-07-13T01:06:20.859Z,,,,0,-1.1033977063872138,-1.2513071571733083,,,true,hh,8407.119999999995,response,1.201100953917304,1.2,-1.2,1.1751492358160105,1.2,-1.2,high,high,,ISIC_0025472.JPG,,ISIC_0647224.JPG,,26,true,0.15000000000000002,hh,keypress(i),100,false,88402,88401,79977.94,79985,79993.88,88422.06,1,16,3,
sequence,flow.Sequence,4_2,2024-07-13T01:06:20.859Z,,,,,,,,,,,8407.119999999995,completion,,,,,,,high,high,,,,,,,true,,,,,false,88403,88401,79977.94,79985,79993.88,88422.06,1,16,,
trial,html.Screen,4_3_0,2024-07-13T01:06:25.677Z,,,,0,-1.1383813631375823,-1.1319312220332556,,,true,hh,4797.940000000002,response,1.0959058628476686,1.2,-1.2,1.1684835186766898,1.2,-1.2,high,high,,ISIC_6227397.JPG,,ISIC_5920470.JPG,,26,true,0.15000000000000002,hh,keypress(i),100,false,93221,93220,88405.28,88403,88422.06,93234.44,1,16,4,
sequence,flow.Sequence,4_3,2024-07-13T01:06:25.678Z,,,,,,,,,,,4797.940000000002,completion,,,,,,,high,high,,,,,,,true,,,,,false,93221,93220,88405.28,88403,88422.06,93234.44,1,16,,
trial,html.Screen,4_4_0,2024-07-13T01:06:40.042Z,,,,0,1.1137763092539212,1.1599906701455132,,,true,ll,14350.559999999998,response,-1.29026082950341,1.2,-1.2,-1.144672688339213,1.2,-1.2,low,low,,ISIC_5413788.JPG,,ISIC_0054317.JPG,,30,true,0.1,ll,keypress(f),100,false,107585,107585,93221.94,93221,93234.44,107591.58,1,16,5,
sequence,flow.Sequence,4_4,2024-07-13T01:06:40.042Z,,,,,,,,,,,14350.559999999998,completion,,,,,,,low,low,,,,,,,true,,,,,false,107586,107585,93221.94,93221,93234.44,107591.58,1,16,,
trial,html.Screen,4_5_0,2024-07-13T01:06:44.480Z,,,,0,1.0870240111136478,1.332340670965917,,,true,ll,4431.419999999998,response,-1.1033977063872138,1.2,-1.2,-1.2513071571733083,1.2,-1.2,low,low,,ISIC_0000660.JPG,,ISIC_0025472.JPG,,53,true,0.15000000000000002,ll,keypress(f),100,false,112023,112023,107586.22,107586,107591.58,112039.58,1,16,6,
sequence,flow.Sequence,4_5,2024-07-13T01:06:44.480Z,,,,,,,,,,,4431.419999999998,completion,,,,,,,low,low,,,,,,,true,,,,,false,112024,112023,107586.22,107586,107591.58,112039.58,1,16,,
trial,html.Screen,4_6_0,2024-07-13T01:06:50.712Z,,,,0,1.3189473926989124,1.0770264364718942,,,true,ll,6215.419999999998,response,-1.135372722680314,1.2,-1.2,-1.0926414044454305,1.2,-1.2,low,low,,ISIC_6093728.JPG,,ISIC_2355513.JPG,,53,true,0.15000000000000002,ll,keypress(f),100,false,118256,118255,112024.4,112025,112039.58,118268.84,1,16,7,
sequence,flow.Sequence,4_6,2024-07-13T01:06:50.712Z,,,,,,,,,,,6215.419999999998,completion,,,,,,,low,low,,,,,,,true,,,,,false,118256,118255,112024.4,112025,112039.58,118268.84,1,16,,
trial,html.Screen,4_7_0,2024-07-13T01:06:55.079Z,,,,0,1.1598623261077452,1.203269031614007,,,true,ll,4353.1600000000035,response,-1.150547408535662,1.2,-1.2,-1.3135268651968233,1.2,-1.2,low,low,,ISIC_0002639.JPG,,ISIC_0072568.JPG,,53,true,0.15000000000000002,ll,keypress(f),100,false,122623,122622,118253.92,118257,118268.84,122649.18,1,16,8,
sequence,flow.Sequence,4_7,2024-07-13T01:06:55.079Z,,,,,,,,,,,4353.1600000000035,completion,,,,,,,low,low,,,,,,,true,,,,,false,122623,122622,118253.92,118257,118268.84,122649.18,1,16,,
trial,html.Screen,4_8_0,2024-07-13T01:07:05.696Z,,,,0,0.8534691366511764,-1.03975580494588,,,true,lh,10590.820000000007,response,-0.991146183030456,1.2,-1.2,0.9949639823722534,1.2,-1.2,low,high,,ISIC_0056788.JPG,,ISIC_6342224.JPG,,27,true,0.42000000000000026,lh,keypress(e),100,false,133240,133240,122621.66,122624,122649.18,133258.52,1,16,9,
sequence,flow.Sequence,4_8,2024-07-13T01:07:05.697Z,,,,,,,,,,,10590.820000000007,completion,,,,,,,low,high,,,,,,,true,,,,,false,133240,133240,122621.66,122624,122649.18,133258.52,1,16,,
trial,html.Screen,4_9_0,2024-07-13T01:07:13.139Z,,,,0,1.0865333402803938,-1.0542635307358266,,,true,lh,7423.4800000000105,response,-0.7871162143493278,1.2,-1.2,0.8429329800778957,1.2,-1.2,low,high,,ISIC_0034006.JPG,,ISIC_3439215.JPG,,27,true,0.42000000000000026,lh,keypress(e),100,false,140682,140682,133241.68,133242,133258.52,140703.96,1,16,10,
sequence,flow.Sequence,4_9,2024-07-13T01:07:13.139Z,,,,,,,,,,,7423.4800000000105,completion,,,,,,,low,high,,,,,,,true,,,,,false,140684,140682,133241.68,133242,133258.52,140703.96,1,16,,
trial,html.Screen,4_10_0,2024-07-13T01:07:19.609Z,,,,0,1.0143509683988825,-1.3163955902021656,,,true,lh,6449.040000000008,response,-0.809764442462202,1.2,-1.2,1.005337148078696,1.2,-1.2,low,high,,ISIC_0062031.JPG,,ISIC_2379379.JPG,,27,true,0.42000000000000026,lh,keypress(e),100,false,147153,147153,140681.14,140684,140703.96,147165.58,1,16,11,
sequence,flow.Sequence,4_10,2024-07-13T01:07:19.609Z,,,,,,,,,,,6449.040000000008,completion,,,,,,,low,high,,,,,,,true,,,,,false,147154,147153,140681.14,140684,140703.96,147165.58,1,16,,
trial,html.Screen,4_11_0,2024-07-13T01:07:33.911Z,,,,0,1.020990671779317,-1.0116513850520903,,,true,lh,14289.420000000013,response,-0.948927472020595,1.2,-1.2,1.0660437155921598,1.2,-1.2,low,high,,ISIC_0011995.JPG,,ISIC_5808758.JPG,,27,true,0.42000000000000026,lh,keypress(e),100,false,161456,161455,147151.46,147154,147165.58,161473.5,1,16,12,
sequence,flow.Sequence,4_11,2024-07-13T01:07:33.912Z,,,,,,,,,,,14289.420000000013,completion,,,,,,,low,high,,,,,,,true,,,,,false,161457,161455,147151.46,147154,147165.58,161473.5,1,16,,
trial,html.Screen,4_12_0,2024-07-13T01:07:43.174Z,,,,0,-0.9235571765207048,1.0008081653938232,,,true,hl,9244.5,response,0.869932994914832,1.2,-1.2,-0.8880533324432531,1.2,-1.2,high,low,,ISIC_8796632.JPG,,ISIC_8617084.JPG,,26,true,0.3600000000000002,hl,keypress(j),100,false,170718,170718,161454.36,161457,161473.5,170734.04,1,16,13,
sequence,flow.Sequence,4_12,2024-07-13T01:07:43.175Z,,,,,,,,,,,9244.5,completion,,,,,,,high,low,,,,,,,true,,,,,false,170719,170718,161454.36,161457,161473.5,170734.04,1,16,,
trial,html.Screen,4_13_0,2024-07-13T01:07:50.626Z,,,,0,-0.7911024675435955,0.7975977016137676,,,true,hl,7434.959999999992,response,0.8487429103619056,1.2,-1.2,-0.9778257804233036,1.2,-1.2,high,low,,ISIC_5813642.JPG,,ISIC_4554863.JPG,,33,true,0.42000000000000026,hl,keypress(j),100,false,178170,178169,170719.92,170719,170734.04,178194.74,1,16,14,
sequence,flow.Sequence,4_13,2024-07-13T01:07:50.626Z,,,,,,,,,,,7434.959999999992,completion,,,,,,,high,low,,,,,,,true,,,,,false,178171,178169,170719.92,170719,170734.04,178194.74,1,16,,
trial,html.Screen,4_14_0,2024-07-13T01:08:00.599Z,,,,0,-1.0164576835546473,0.8120626538423016,,,true,hl,9947.26000000001,response,0.991282840649944,1.2,-1.2,-0.9397921099839784,1.2,-1.2,high,low,,ISIC_6002694.JPG,,ISIC_0000463.JPG,,33,true,0.42000000000000026,hl,keypress(j),100,false,188143,188142,178171.22,178172,178194.74,188155.12,1,16,15,
sequence,flow.Sequence,4_14,2024-07-13T01:08:00.600Z,,,,,,,,,,,9947.26000000001,completion,,,,,,,high,low,,,,,,,true,,,,,false,188144,188142,178171.22,178171,178194.74,188155.12,1,16,,
trial,html.Screen,4_15_0,2024-07-13T01:08:05.681Z,,,,0,-1.0164576835546473,0.8120626538423016,,,true,hl,5069.880000000005,response,1.331700944308701,1.2,-1.2,-0.9395196143259436,1.2,-1.2,high,low,,ISIC_6002694.JPG,,ISIC_1668831.JPG,,33,true,0.42000000000000026,hl,keypress(j),100,false,193226,193225,188144.06,188144,188155.12,193235.94,1,16,16,
sequence,flow.Sequence,4_15,2024-07-13T01:08:05.682Z,,,,,,,,,,,5069.880000000005,completion,,,,,,,high,low,,,,,,,true,,,,,false,193226,193225,188144.06,188144,188155.12,193235.94,1,16,,
demonstration_loop,flow.Loop,4,2024-07-13T01:08:05.682Z,,,,,,,,,,,125523.7,completion,,,,,,,,,,,,,,,true,,,,,false,193227,193225,67692.4,67699,67701.3,193235.94,1,16,,
practice_instructions,html.Screen,5,2024-07-13T01:08:14.334Z,,,,,,,,,,,8627.059999999998,response,,,,,,,,,,,,,,,,,continue,click button,,,201879,201863,193227.46,193227,193235.94,201912.5,,,,
trial,html.Screen,6_0_0,2024-07-13T01:08:23.570Z,,,,1,0.9433720631499012,-1.0582071940347648,,,false,lh,9201.5,response,-1.0213365328004047,1.2,-1.2,1.088524359911891,1.2,-1.2,low,high,,ISIC_4890201.JPG,,ISIC_5434229.JPG,,27,true,0.42000000000000026,hl,keypress(j),0,false,211115,211114,201875.12,201880,201912.5,211116.14,1,40,1,
sequence,flow.Sequence,6_0,2024-07-13T01:08:23.571Z,,,,,,,,,,,9201.5,completion,,,,,,,low,high,,,,,,,true,,,,,false,211116,211114,201875.12,201880,201912.5,211116.14,1,40,,
trial,html.Screen,6_1_0,2024-07-13T01:08:30.704Z,,,,1,-0.7998855902596425,1.1518579145663017,,,false,hl,7132.859999999986,response,1.2695509547992938,1.2,-1.2,-0.9641099676945492,1.2,-1.2,high,low,,ISIC_0025061.JPG,,ISIC_0025841.JPG,,26,true,0.3600000000000002,hh,keypress(i),0,false,218250,218249,211115.62,211116,211116.14,218250.44,1,40,2,
sequence,flow.Sequence,6_1,2024-07-13T01:08:30.704Z,,,,,,,,,,,7132.859999999986,completion,,,,,,,high,low,,,,,,,true,,,,,false,218250,218249,211115.62,211116,211116.14,218250.44,1,40,,
trial,html.Screen,6_2_0,2024-07-13T01:08:39.096Z,,,,1,1.0789197754694622,1.1654690806750023,,,true,ll,8390.559999999998,response,-0.943978570218156,1.2,-1.2,-0.9420387258741144,1.2,-1.2,low,low,,ISIC_1576437.JPG,,ISIC_0011642.JPG,,339,true,0.42000000000000026,ll,keypress(f),0,false,226641,226641,218249.82,218250,218250.44,226663.08,1,40,3,
sequence,flow.Sequence,6_2,2024-07-13T01:08:39.097Z,,,,,,,,,,,8390.559999999998,completion,,,,,,,low,low,,,,,,,true,,,,,false,226642,226641,218249.82,218250,218250.44,226663.08,1,40,,
trial,html.Screen,6_3_0,2024-07-13T01:08:46.194Z,,,,1,0.9454713230140772,-0.9245167441969216,,,false,lh,7075.920000000013,response,-1.4092385398614515,1.2,-1.2,1.3046237992197836,1.2,-1.2,low,high,,ISIC_9101055.JPG,,ISIC_7254359.JPG,,27,true,0.42000000000000026,ll,keypress(f),0,false,233740,233739,226642.24,226642,226663.08,233740.76,1,40,4,
sequence,flow.Sequence,6_3,2024-07-13T01:08:46.195Z,,,,,,,,,,,7075.920000000013,completion,,,,,,,low,high,,,,,,,true,,,,,false,233740,233739,226642.24,226642,226663.08,233740.76,1,40,,
trial,html.Screen,6_4_0,2024-07-13T01:08:57.104Z,,,,1,0.858338058340649,-0.9540612223480284,,,true,lh,10909.23999999999,response,-0.9873794329144926,1.2,-1.2,0.7991077882008257,1.2,-1.2,low,high,,ISIC_8922893.JPG,,ISIC_0013498.JPG,,27,true,0.42000000000000026,lh,keypress(e),0,false,244650,244650,233740.24,233740,233740.76,244650.84,1,40,5,
sequence,flow.Sequence,6_4,2024-07-13T01:08:57.105Z,,,,,,,,,,,10909.23999999999,completion,,,,,,,low,high,,,,,,,true,,,,,false,244651,244650,233740.24,233740,233740.76,244650.84,1,40,,
trial,html.Screen,6_5_0,2024-07-13T01:08:59.930Z,,,,1,1.2706447584800626,1.0903308007916603,,,true,ll,2824.1600000000035,response,-0.8826164980777871,1.2,-1.2,-1.0773466327271526,1.2,-1.2,low,low,,ISIC_9425937.JPG,,ISIC_0055169.JPG,,245,true,0.3600000000000002,ll,keypress(f),0,false,247475,247475,244650.58,244651,244650.84,247499.78,1,40,6,
sequence,flow.Sequence,6_5,2024-07-13T01:08:59.930Z,,,,,,,,,,,2824.1600000000035,completion,,,,,,,low,low,,,,,,,true,,,,,false,247475,247475,244650.58,244651,244650.84,247499.78,1,40,,
trial,html.Screen,6_6_0,2024-07-13T01:09:07.892Z,,,,1,1.4747161152848791,-0.847048591307387,,,true,lh,7938.220000000001,response,-0.991146183030456,1.2,-1.2,0.9949639823722534,1.2,-1.2,low,high,,ISIC_0016092.JPG,,ISIC_6342224.JPG,,27,true,0.42000000000000026,lh,keypress(e),0,false,255438,255438,247475.3,247475,247499.78,255460.9,1,40,7,
sequence,flow.Sequence,6_6,2024-07-13T01:09:07.893Z,,,,,,,,,,,7938.220000000001,completion,,,,,,,low,high,,,,,,,true,,,,,false,255439,255438,247475.3,247475,247499.78,255460.9,1,40,,
trial,html.Screen,6_7_0,2024-07-13T01:09:13.475Z,,,,1,1.2364994561934892,-0.9174173651516624,,,true,lh,5559.100000000006,response,-0.8816288864119318,1.2,-1.2,0.801867301188093,1.2,-1.2,low,high,,ISIC_3481133.JPG,,ISIC_9196783.JPG,,27,true,0.42000000000000026,lh,keypress(e),0,false,261020,261020,255438.52,255439,255460.9,261020.7,1,40,8,
sequence,flow.Sequence,6_7,2024-07-13T01:09:13.475Z,,,,,,,,,,,5559.100000000006,completion,,,,,,,low,high,,,,,,,true,,,,,false,261020,261020,255438.52,255439,255460.9,261020.7,1,40,,
trial,html.Screen,6_8_0,2024-07-13T01:09:18.212Z,,,,1,1.1181734135756094,-0.944560381774994,,,true,lh,4736.299999999988,response,-0.7998855902596425,1.2,-1.2,1.1518579145663017,1.2,-1.2,low,high,,ISIC_9688534.JPG,,ISIC_0025061.JPG,,27,true,0.42000000000000026,lh,keypress(e),0,false,265758,265757,261020.42,261020,261020.7,265758.82,1,40,9,
sequence,flow.Sequence,6_8,2024-07-13T01:09:18.212Z,,,,,,,,,,,4736.299999999988,completion,,,,,,,low,high,,,,,,,true,,,,,false,265758,265757,261020.42,261020,261020.7,265758.82,1,40,,
trial,html.Screen,6_9_0,2024-07-13T01:09:28.223Z,,,,1,-1.272699544571422,-1.12917997553565,,,true,hh,10009.179999999993,response,0.8849616197102024,1.2,-1.2,0.8708774591990956,1.2,-1.2,high,high,,ISIC_0012057.JPG,,ISIC_2872107.JPG,,179,true,0.3600000000000002,hh,keypress(i),0,false,275769,275768,265758.28,265758,265758.82,275769.38,1,40,10,
sequence,flow.Sequence,6_9,2024-07-13T01:09:28.223Z,,,,,,,,,,,10009.179999999993,completion,,,,,,,high,high,,,,,,,true,,,,,false,275769,275768,265758.28,265758,265758.82,275769.38,1,40,,
trial,html.Screen,6_10_0,2024-07-13T01:09:31.150Z,,,,1,-1.242586748440878,-1.1207933200172129,,,true,hh,2925.6199999999953,response,1.1388430156686884,1.2,-1.2,1.2700552354887775,1.2,-1.2,high,high,,ISIC_0013073.JPG,,ISIC_9939653.JPG,,26,true,0.15000000000000002,hh,keypress(i),0,false,278696,278695,275768.86,275769,275769.38,278697.1,1,40,11,
sequence,flow.Sequence,6_10,2024-07-13T01:09:31.150Z,,,,,,,,,,,2925.6199999999953,completion,,,,,,,high,high,,,,,,,true,,,,,false,278696,278695,275768.86,275769,275769.38,278697.1,1,40,,
trial,html.Screen,6_11_0,2024-07-13T01:09:35.031Z,,,,1,1.1137763092539212,1.1599906701455132,,,true,ll,3879.9000000000233,response,-1.1253220985777015,1.2,-1.2,-1.108725659461368,1.2,-1.2,low,low,,ISIC_5413788.JPG,,ISIC_0054954.JPG,,30,true,0.1,ll,keypress(f),0,false,282577,282577,278696.6,278696,278697.1,282609.86,1,40,12,
sequence,flow.Sequence,6_11,2024-07-13T01:09:35.032Z,,,,,,,,,,,3879.9000000000233,completion,,,,,,,low,low,,,,,,,true,,,,,false,282578,282577,278696.6,278696,278697.1,282609.86,1,40,,
trial,html.Screen,6_12_0,2024-07-13T01:09:43.584Z,,,,1,-0.7871162143493278,0.8429329800778957,,,true,hl,8521.140000000014,response,1.0026266089287914,1.2,-1.2,-1.0913275913920335,1.2,-1.2,high,low,,ISIC_3439215.JPG,,ISIC_0033520.JPG,,26,true,0.3600000000000002,hl,keypress(j),0,false,291131,291131,282577.96,282578,282609.86,291131.88,1,40,13,
sequence,flow.Sequence,6_12,2024-07-13T01:09:43.585Z,,,,,,,,,,,8521.140000000014,completion,,,,,,,high,low,,,,,,,true,,,,,false,291131,291131,282577.96,282578,282609.86,291131.88,1,40,,
trial,html.Screen,6_13_0,2024-07-13T01:09:51.913Z,,,,1,-1.1346217981791904,-1.1555132168806113,,,true,hh,8326.119999999995,response,1.4283589480336132,1.2,-1.2,0.7992751033002244,1.2,-1.2,high,high,,ISIC_0032771.JPG,,ISIC_0059485.JPG,,253,true,0.42000000000000026,hh,keypress(i),0,false,299459,299458,291131.34,291131,291131.88,299460.14,1,40,14,
sequence,flow.Sequence,6_13,2024-07-13T01:09:51.914Z,,,,,,,,,,,8326.119999999995,completion,,,,,,,high,high,,,,,,,true,,,,,false,299460,299458,291131.34,291131,291131.88,299460.14,1,40,,
trial,html.Screen,6_14_0,2024-07-13T01:09:55.987Z,,,,1,-1.126264390089724,-1.271896565050952,,,true,hh,4071.859999999986,response,1.2503149164557643,1.2,-1.2,1.0796591227570405,1.2,-1.2,high,high,,ISIC_1520897.JPG,,ISIC_2466892.JPG,,26,true,0.15000000000000002,hh,keypress(i),0,false,303532,303532,299459.64,299460,299460.14,303562.58,1,40,15,
sequence,flow.Sequence,6_14,2024-07-13T01:09:55.987Z,,,,,,,,,,,4071.859999999986,completion,,,,,,,high,high,,,,,,,true,,,,,false,303533,303532,299459.64,299460,299460.14,303562.58,1,40,,
trial,html.Screen,6_15_0,2024-07-13T01:10:04.627Z,,,,1,-0.7809949855371787,0.8493861117004308,,,true,hl,8609.419999999984,response,1.0026266089287914,1.2,-1.2,-1.0913275913920335,1.2,-1.2,high,low,,ISIC_7450481.JPG,,ISIC_0033520.JPG,,26,true,0.3600000000000002,hl,keypress(j),0,false,312172,312172,303533.46,303533,303562.58,312173.68,1,40,16,
sequence,flow.Sequence,6_15,2024-07-13T01:10:04.627Z,,,,,,,,,,,8609.419999999984,completion,,,,,,,high,low,,,,,,,true,,,,,false,312172,312172,303533.46,303533,303562.58,312173.68,1,40,,
trial,html.Screen,6_16_0,2024-07-13T01:10:08.343Z,,,,1,-1.2071341803968807,-1.235960269089932,,,true,hh,3715.320000000007,response,0.9071602543711612,1.2,-1.2,1.073798502866343,1.2,-1.2,high,high,,ISIC_0058174.JPG,,ISIC_6676776.JPG,,253,true,0.42000000000000026,hh,keypress(i),0,false,315889,315889,312173.14,312173,312173.68,315889.88,1,40,17,
sequence,flow.Sequence,6_16,2024-07-13T01:10:08.344Z,,,,,,,,,,,3715.320000000007,completion,,,,,,,high,high,,,,,,,true,,,,,false,315889,315889,312173.14,312173,312173.68,315889.88,1,40,,
trial,html.Screen,6_17_0,2024-07-13T01:10:11.113Z,,,,1,1.057008495826831,1.1278122585028287,,,true,ll,2768.1199999999953,response,-1.2181031651370575,1.2,-1.2,-1.2158573487067317,1.2,-1.2,low,low,,ISIC_2819798.JPG,,ISIC_7242312.JPG,,30,true,0.1,ll,keypress(f),0,false,318658,318658,315889.48,315889,315889.88,318685.46,1,40,18,
sequence,flow.Sequence,6_17,2024-07-13T01:10:11.113Z,,,,,,,,,,,2768.1199999999953,completion,,,,,,,low,low,,,,,,,true,,,,,false,318659,318658,315889.48,315889,315889.88,318685.46,1,40,,
trial,html.Screen,6_18_0,2024-07-13T01:10:17.419Z,,,,1,1.1181734135756094,-0.944560381774994,,,false,lh,6279.539999999979,response,-0.8035152873995188,1.2,-1.2,0.82868450251632,1.2,-1.2,low,high,,ISIC_9688534.JPG,,ISIC_0010671.JPG,,27,true,0.42000000000000026,hl,keypress(j),0,false,324965,324965,318659.4,318659,318685.46,324966.26,1,40,19,
sequence,flow.Sequence,6_18,2024-07-13T01:10:17.419Z,,,,,,,,,,,6279.539999999979,completion,,,,,,,low,high,,,,,,,true,,,,,false,324965,324965,318659.4,318659,318685.46,324966.26,1,40,,
trial,html.Screen,6_19_0,2024-07-13T01:10:22.056Z,,,,1,1.241406480986552,1.081912821786771,,,true,ll,4635.739999999991,response,-0.9303508808523768,1.2,-1.2,-0.8525034055687026,1.2,-1.2,low,low,,ISIC_4223155.JPG,,ISIC_0029909.JPG,,245,true,0.3600000000000002,ll,keypress(f),0,false,329602,329602,324965.76,324966,324966.26,329603.28,1,40,20,
sequence,flow.Sequence,6_19,2024-07-13T01:10:22.056Z,,,,,,,,,,,4635.739999999991,completion,,,,,,,low,low,,,,,,,true,,,,,false,329603,329602,324965.76,324966,324966.26,329603.28,1,40,,
trial,html.Screen,6_20_0,2024-07-13T01:10:24.058Z,,,,1,-1.185875658992962,-1.2635548590325487,,,true,hh,1999.719999999972,response,1.3189473926989124,1.2,-1.2,1.0770264364718942,1.2,-1.2,high,high,,ISIC_0011703.JPG,,ISIC_6093728.JPG,,26,true,0.15000000000000002,hh,keypress(i),0,false,331604,331603,329602.72,329603,329603.28,331605.24,1,40,21,
sequence,flow.Sequence,6_20,2024-07-13T01:10:24.058Z,,,,,,,,,,,1999.719999999972,completion,,,,,,,high,high,,,,,,,true,,,,,false,331604,331603,329602.72,329603,329603.28,331605.24,1,40,,
trial,html.Screen,6_21_0,2024-07-13T01:10:27.910Z,,,,1,-1.2322060291690602,-1.2686491386389651,,,true,hh,3850.7600000000093,response,1.057008495826831,1.2,-1.2,1.1278122585028287,1.2,-1.2,high,high,,ISIC_0011697.JPG,,ISIC_2819798.JPG,,26,true,0.15000000000000002,hh,keypress(i),0,false,335456,335456,331604.66,331604,331605.24,335458,1,40,22,
sequence,flow.Sequence,6_21,2024-07-13T01:10:27.911Z,,,,,,,,,,,3850.7600000000093,completion,,,,,,,high,high,,,,,,,true,,,,,false,335457,335456,331604.66,331604,331605.24,335458,1,40,,
trial,html.Screen,6_22_0,2024-07-13T01:10:34.675Z,,,,1,1.1137763092539212,1.1599906701455132,,,true,ll,6762,response,-1.101346104814838,1.2,-1.2,-1.1225813067473052,1.2,-1.2,low,low,,ISIC_5413788.JPG,,ISIC_8175453.JPG,,30,true,0.1,ll,keypress(f),0,false,342221,342220,335457.42,335457,335458,342222.18,1,40,23,
sequence,flow.Sequence,6_22,2024-07-13T01:10:34.675Z,,,,,,,,,,,6762,completion,,,,,,,low,low,,,,,,,true,,,,,false,342221,342220,335457.42,335457,335458,342222.18,1,40,,
trial,html.Screen,6_23_0,2024-07-13T01:10:38.668Z,,,,1,1.1653123206802332,1.2976858999596654,,,true,ll,3991.820000000007,response,-1.2249552940807693,1.2,-1.2,-1.1723015116910682,1.2,-1.2,low,low,,ISIC_0071508.JPG,,ISIC_0055251.JPG,,53,true,0.15000000000000002,ll,keypress(f),0,false,346214,346214,342221.62,342221,342222.18,346215.14,1,40,24,
sequence,flow.Sequence,6_23,2024-07-13T01:10:38.668Z,,,,,,,,,,,3991.820000000007,completion,,,,,,,low,low,,,,,,,true,,,,,false,346214,346214,342221.62,342221,342222.18,346215.14,1,40,,
trial,html.Screen,6_24_0,2024-07-13T01:10:45.320Z,,,,1,1.1642596483638106,1.109799097093339,,,true,ll,6650.859999999986,response,-1.1783311757907324,1.2,-1.2,-1.0915173513546716,1.2,-1.2,low,low,,ISIC_0765584.JPG,,ISIC_8241457.JPG,,53,true,0.15000000000000002,ll,keypress(f),0,false,352867,352866,346214.62,346215,346215.14,352896.58,1,40,25,
sequence,flow.Sequence,6_24,2024-07-13T01:10:45.320Z,,,,,,,,,,,6650.859999999986,completion,,,,,,,low,low,,,,,,,true,,,,,false,352867,352866,346214.62,346215,346215.14,352896.58,1,40,,
trial,html.Screen,6_25_0,2024-07-13T01:11:01.340Z,,,,1,-0.948927472020595,1.0660437155921598,,,,,16022.039999999979,timeout,0.858338058340649,1.2,-1.2,-0.9540612223480284,1.2,-1.2,high,low,,ISIC_5808758.JPG,,ISIC_8922893.JPG,,26,true,0.3600000000000002,,,0,false,368887,368887,352867.34,352867,352896.58,368918.62,1,40,26,
sequence,flow.Sequence,6_25,2024-07-13T01:11:01.340Z,,,,,,,,,,,15990.419999999984,completion,,,,,,,high,low,,,,,,,true,,,,,false,368888,368887,352867.34,352867,352896.58,368918.62,1,40,,
trial,html.Screen,6_26_0,2024-07-13T01:11:04.498Z,,,,1,-1.2169050727663315,-1.1067845563421794,,,true,hh,3126.3800000000047,response,1.2406755059898278,1.2,-1.2,0.870899898309629,1.2,-1.2,high,high,,ISIC_7016261.JPG,,ISIC_7947847.JPG,,253,true,0.42000000000000026,hh,keypress(i),0,false,372046,372045,368902.74,368888,368918.62,372046.66,1,40,27,
sequence,flow.Sequence,6_26,2024-07-13T01:11:04.499Z,,,,,,,,,,,3126.3800000000047,completion,,,,,,,high,high,,,,,,,true,,,,,false,372046,372045,368902.74,368888,368918.62,372046.66,1,40,,
trial,html.Screen,6_27_0,2024-07-13T01:11:07.837Z,,,,1,-0.991146183030456,0.9949639823722534,,,false,hl,3337.3400000000256,response,1.2075172235545184,1.2,-1.2,-0.9116724966267612,1.2,-1.2,high,low,,ISIC_6342224.JPG,,ISIC_0024235.JPG,,26,true,0.3600000000000002,hh,keypress(i),0,false,375384,375384,372046.16,372046,372046.66,375385.36,1,40,28,
sequence,flow.Sequence,6_27,2024-07-13T01:11:07.838Z,,,,,,,,,,,3337.3400000000256,completion,,,,,,,high,low,,,,,,,true,,,,,false,375384,375384,372046.16,372046,372046.66,375385.36,1,40,,
trial,html.Screen,6_28_0,2024-07-13T01:11:10.446Z,,,,1,0.8534691366511764,-1.03975580494588,,,false,lh,2606.640000000014,response,-0.948927472020595,1.2,-1.2,1.0660437155921598,1.2,-1.2,low,high,,ISIC_0056788.JPG,,ISIC_5808758.JPG,,27,true,0.42000000000000026,hh,keypress(i),0,false,377992,377992,375384.82,375384,375385.36,377993.28,1,40,29,
sequence,flow.Sequence,6_28,2024-07-13T01:11:10.446Z,,,,,,,,,,,2606.640000000014,completion,,,,,,,low,high,,,,,,,true,,,,,false,377992,377992,375384.82,375384,375385.36,377993.28,1,40,,
trial,html.Screen,6_29_0,2024-07-13T01:11:17.007Z,,,,1,-0.8655167308525522,0.9298580423306444,,,true,hl,6560.719999999972,response,1.0143509683988825,1.2,-1.2,-1.3163955902021656,1.2,-1.2,high,low,,ISIC_4603706.JPG,,ISIC_0062031.JPG,,26,true,0.3600000000000002,hl,keypress(j),0,false,384554,384554,377992.74,377992,377993.28,384555.82,1,40,30,
sequence,flow.Sequence,6_29,2024-07-13T01:11:17.008Z,,,,,,,,,,,6560.719999999972,completion,,,,,,,high,low,,,,,,,true,,,,,false,384555,384554,377992.74,377992,377993.28,384555.82,1,40,,
trial,html.Screen,6_30_0,2024-07-13T01:11:21.002Z,,,,1,1.057008495826831,1.1278122585028287,,,true,ll,3993.179999999993,response,-0.8701282307001015,1.2,-1.2,-1.379652405947298,1.2,-1.2,low,low,,ISIC_2819798.JPG,,ISIC_0000174.JPG,,339,true,0.42000000000000026,ll,keypress(f),0,false,388550,388549,384555.32,384555,384555.82,388572.9,1,40,31,
sequence,flow.Sequence,6_30,2024-07-13T01:11:21.003Z,,,,,,,,,,,3993.179999999993,completion,,,,,,,low,low,,,,,,,true,,,,,false,388550,388549,384555.32,384555,384555.82,388572.9,1,40,,
trial,html.Screen,6_31_0,2024-07-13T01:11:25.764Z,,,,1,-0.7871162143493278,0.8429329800778957,,,false,hl,4737.099999999977,response,1.2364994561934892,1.2,-1.2,-0.9174173651516624,1.2,-1.2,high,low,,ISIC_3439215.JPG,,ISIC_3481133.JPG,,26,true,0.3600000000000002,ll,keypress(f),0,false,393311,393310,388550.52,388551,388572.9,393312.12,1,40,32,
sequence,flow.Sequence,6_31,2024-07-13T01:11:25.765Z,,,,,,,,,,,4737.099999999977,completion,,,,,,,high,low,,,,,,,true,,,,,false,393311,393310,388550.52,388550,388572.9,393312.12,1,40,,
trial,html.Screen,6_32_0,2024-07-13T01:11:32.298Z,,,,1,1.0143509683988825,-1.3163955902021656,,,true,lh,6531.880000000005,response,-0.8200962008791046,1.2,-1.2,0.7936051642828523,1.2,-1.2,low,high,,ISIC_0062031.JPG,,ISIC_0027031.JPG,,27,true,0.42000000000000026,lh,keypress(e),0,false,399844,399844,393311.58,393311,393312.12,399845.42,1,40,33,
sequence,flow.Sequence,6_32,2024-07-13T01:11:32.298Z,,,,,,,,,,,6531.880000000005,completion,,,,,,,low,high,,,,,,,true,,,,,false,399844,399844,393311.58,393311,393312.12,399845.42,1,40,,
trial,html.Screen,6_33_0,2024-07-13T01:11:35.293Z,,,,1,-0.7911024675435955,0.7975977016137676,,,false,hl,2994.5800000000163,response,0.8487429103619056,1.2,-1.2,-0.9778257804233036,1.2,-1.2,high,low,,ISIC_5813642.JPG,,ISIC_4554863.JPG,,26,true,0.3600000000000002,lh,keypress(e),0,false,402840,402840,399844.88,399844,399845.42,402863.42,1,40,34,
sequence,flow.Sequence,6_33,2024-07-13T01:11:35.293Z,,,,,,,,,,,2994.5800000000163,completion,,,,,,,high,low,,,,,,,true,,,,,false,402841,402840,399844.88,399844,399845.42,402863.42,1,40,,
trial,html.Screen,6_34_0,2024-07-13T01:11:42.741Z,,,,1,-0.7833710010171356,0.9315588090336896,,,true,hl,7424.580000000016,response,0.869932994914832,1.2,-1.2,-0.8880533324432531,1.2,-1.2,high,low,,ISIC_3826102.JPG,,ISIC_8617084.JPG,,33,true,0.42000000000000026,hl,keypress(j),0,false,410289,410288,402840.74,402841,402863.42,410289.48,1,40,35,
sequence,flow.Sequence,6_34,2024-07-13T01:11:42.741Z,,,,,,,,,,,7424.580000000016,completion,,,,,,,high,low,,,,,,,true,,,,,false,410289,410288,402840.74,402841,402863.42,410289.48,1,40,,
trial,html.Screen,6_35_0,2024-07-13T01:11:50.348Z,,,,1,-1.2181031651370575,-1.2158573487067317,,,true,hh,7605.520000000019,response,1.241406480986552,1.2,-1.2,1.081912821786771,1.2,-1.2,high,high,,ISIC_7242312.JPG,,ISIC_4223155.JPG,,253,true,0.42000000000000026,hh,keypress(i),0,false,417895,417895,410288.96,410289,410289.48,417920.12,1,40,36,
sequence,flow.Sequence,6_35,2024-07-13T01:11:50.349Z,,,,,,,,,,,7605.520000000019,completion,,,,,,,high,high,,,,,,,true,,,,,false,417896,417895,410288.96,410289,410289.48,417920.12,1,40,,
trial,html.Screen,6_36_0,2024-07-13T01:11:53.968Z,,,,1,0.8534691366511764,-1.03975580494588,,,false,lh,3594.8800000000047,response,-0.8200962008791046,1.2,-1.2,0.7936051642828523,1.2,-1.2,low,high,,ISIC_0056788.JPG,,ISIC_0027031.JPG,,27,true,0.42000000000000026,hh,keypress(i),0,false,421515,421515,417895.88,417896,417920.12,421515.92,1,40,37,
sequence,flow.Sequence,6_36,2024-07-13T01:11:53.968Z,,,,,,,,,,,3594.8800000000047,completion,,,,,,,low,high,,,,,,,true,,,,,false,421516,421515,417895.88,417896,417920.12,421515.92,1,40,,
trial,html.Screen,6_37_0,2024-07-13T01:11:57.076Z,,,,1,-1.101214461533281,-1.1849883512428183,,,true,hh,3108.0800000000163,response,0.8529242055711017,1.2,-1.2,0.9691635021928308,1.2,-1.2,high,high,,ISIC_0064943.JPG,,ISIC_8169564.JPG,,179,true,0.3600000000000002,hh,keypress(i),0,false,424624,424624,421515.52,421516,421515.92,424648.98,1,40,38,
sequence,flow.Sequence,6_37,2024-07-13T01:11:57.077Z,,,,,,,,,,,3108.0800000000163,completion,,,,,,,high,high,,,,,,,true,,,,,false,424625,424624,421515.52,421516,421515.92,424648.98,1,40,,
trial,html.Screen,6_38_0,2024-07-13T01:12:05.822Z,,,,1,-1.4092385398614515,1.3046237992197836,,,true,hl,8719.020000000019,response,0.858338058340649,1.2,-1.2,-0.9540612223480284,1.2,-1.2,high,low,,ISIC_7254359.JPG,,ISIC_8922893.JPG,,26,true,0.3600000000000002,hl,keypress(j),0,false,433368,433368,424624.58,424625,424648.98,433369.92,1,40,39,
sequence,flow.Sequence,6_38,2024-07-13T01:12:05.822Z,,,,,,,,,,,8719.020000000019,completion,,,,,,,high,low,,,,,,,true,,,,,false,433369,433368,424624.58,424625,424648.98,433369.92,1,40,,
trial,html.Screen,6_39_0,2024-07-13T01:12:09.085Z,,,,1,1.131522954199764,1.1047184491749509,,,true,ll,3261.0800000000163,response,-1.4074701149205395,1.2,-1.2,-0.9777963152799722,1.2,-1.2,low,low,,ISIC_1868816.JPG,,ISIC_0070588.JPG,,339,true,0.42000000000000026,ll,keypress(f),0,false,436632,436631,433369.4,433369,433369.92,436633.14,1,40,40,
sequence,flow.Sequence,6_39,2024-07-13T01:12:09.085Z,,,,,,,,,,,3261.0800000000163,completion,,,,,,,low,low,,,,,,,true,,,,,false,436632,436631,433369.4,433369,433369.92,436633.14,1,40,,
practice_loop,flow.Loop,6,2024-07-13T01:12:09.085Z,,,,,,,,,,,234718.5,completion,,,,,,,,,,,,,,,true,,,,,false,436632,436631,201875.12,201879,201912.5,436633.14,1,40,,
stair_instructions,html.Screen,7,2024-07-13T01:12:27.813Z,,,,,,,,,,,18716.859999999986,response,,,,,,,,,,,,,,,,,continue,keypress(Space),,,455361,455350,436632.64,436633,436633.14,455361.56,,,,
trial,html.Screen,8_0_0,2024-07-13T01:12:35.866Z,,,,2,-0.007397293189458,-0.0174716772037504,,0.05,false,hl,8051.440000000002,response,0.858338058340649,1.2,-1.2,-0.9540612223480284,1.2,-1.2,high,low,,ISIC_0056226.JPG,,ISIC_8922893.JPG,33,26,false,0.3600000000000002,lh,keypress(e),0,true,463414,463413,455361.04,455361,455361.56,463415.24,1,40,1,
sequence,flow.Sequence,8_0,2024-07-13T01:12:35.867Z,,,,,,,,,,,8051.440000000002,completion,,,,,,,high,low,,,,,,,false,,,,,true,463414,463413,455361.04,455361,455361.56,463415.24,1,40,,
trial,html.Screen,8_1_0,2024-07-13T01:12:42.764Z,,,,2,0.0245376145053177,-0.0436993426328401,,0.05,false,lh,6896.760000000009,response,-0.9388660854518424,1.2,-1.15,0.79533948698576,1.15,-1.2,low,high,,ISIC_0056444.JPG,,ISIC_9291926.JPG,33,27,false,0.3700000000000002,hh,keypress(i),0,true,470312,470312,463414.6,463414,463415.24,470313.16,1,40,2,
sequence,flow.Sequence,8_1,2024-07-13T01:12:42.765Z,,,,,,,,,,,6896.760000000009,completion,,,,,,,low,high,,,,,,,false,,,,,true,470312,470312,463414.6,463414,463415.24,470313.16,1,40,,
trial,html.Screen,8_2_0,2024-07-13T01:12:47.427Z,,,,2,-0.0217698886732706,0.0410870915161425,,0.05,false,lh,4661.840000000026,response,-0.948927472020595,1.15,-1.15,1.0660437155921598,1.15,-1.15,low,high,,ISIC_0072173.JPG,,ISIC_5808758.JPG,33,27,false,0.3700000000000002,hh,keypress(i),0,true,474975,474975,470312.6,470313,470313.16,474976.4,1,40,3,
sequence,flow.Sequence,8_2,2024-07-13T01:12:47.427Z,,,,,,,,,,,4661.840000000026,completion,,,,,,,low,high,,,,,,,false,,,,,true,474976,474975,470312.6,470313,470313.16,474976.4,1,40,,
trial,html.Screen,8_3_0,2024-07-13T01:12:54.207Z,,,,2,-0.0069555338059566,0.0310100918136373,,0.05,false,ll,6778.599999999977,response,-1.1877026569952844,1.15,-1.15,-1.1604367569896263,0.8806916012889598,-1.15,low,low,,ISIC_0011177.JPG,,ISIC_0064589.JPG,33,27,false,0.1,lh,keypress(e),0,true,481755,481755,474975.7,474976,474976.4,481755.86,1,40,4,
sequence,flow.Sequence,8_3,2024-07-13T01:12:54.207Z,,,,,,,,,,,6778.599999999977,completion,,,,,,,low,low,,,,,,,false,,,,,true,481755,481755,474975.7,474976,474976.4,481755.86,1,40,,
trial,html.Screen,8_4_0,2024-07-13T01:13:01.331Z,,,,2,0.0134764727102299,0.0033499036460912,,0.05,false,lh,7123.140000000014,response,-1.1825604042275355,1.15,-1.15,0.6342857446646142,0.8806916012889598,-1.15,low,high,,ISIC_0009998.JPG,,ISIC_3067522.JPG,33,30,false,0.27000000000000013,hh,keypress(i),0,true,488879,488879,481755.3,481755,481755.86,488879.98,1,40,5,
sequence,flow.Sequence,8_4,2024-07-13T01:13:01.331Z,,,,,,,,,,,7123.140000000014,completion,,,,,,,low,high,,,,,,,false,,,,,true,488880,488879,481755.3,481755,481755.86,488879.98,1,40,,
trial,html.Screen,8_5_0,2024-07-13T01:13:06.806Z,,,,2,0.000047919190197942736,0.0462652940855003,,0.05,false,hl,5473.020000000019,response,1.2331439637486756,1.15,-1.15,-0.9691143900156988,0.8806916012889598,-1.15,high,low,,ISIC_0011507.JPG,,ISIC_7877488.JPG,33,25,false,0.31000000000000016,hh,keypress(i),0,true,494353,494353,488879.56,488880,488879.98,494354.92,1,40,6,
sequence,flow.Sequence,8_5,2024-07-13T01:13:06.806Z,,,,,,,,,,,5473.020000000019,completion,,,,,,,high,low,,,,,,,false,,,,,true,494354,494353,488879.56,488880,488879.98,494354.92,1,40,,
trial,html.Screen,8_6_0,2024-07-13T01:13:10.421Z,,,,2,0.0362376068089956,0.047825070846155,,0.05,true,hh,3613.0800000000163,response,1.1603296322624046,1.15,-1.15,0.9011336474282458,0.8806916012889598,-1.15,high,high,,ISIC_6985114.JPG,,ISIC_0010592.JPG,33,28,false,0.1,hh,keypress(i),0,true,497969,497968,494354.44,494354,494354.92,497970.1,1,40,7,
sequence,flow.Sequence,8_6,2024-07-13T01:13:10.421Z,,,,,,,,,,,3613.0800000000163,completion,,,,,,,high,high,,,,,,,false,,,,,true,497969,497968,494354.44,494354,494354.92,497970.1,1,40,,
trial,html.Screen,8_7_0,2024-07-13T01:13:14.343Z,,,,2,-0.0389988030702649,-0.0143212271490256,,0.05,true,ll,3920.9000000000233,response,-1.1383813631375823,1.0171388055884607,-1.15,-1.1319312220332556,1.0171388055884607,-1.15,low,low,,ISIC_0064669.JPG,,ISIC_6227397.JPG,33,27,false,0.1,ll,keypress(f),0,true,501892,501891,497969.58,497969,497970.1,501892.74,1,40,8,
sequence,flow.Sequence,8_7,2024-07-13T01:13:14.344Z,,,,,,,,,,,3920.9000000000233,completion,,,,,,,low,low,,,,,,,false,,,,,true,501892,501891,497969.58,497969,497970.1,501892.74,1,40,,
trial,html.Screen,8_8_0,2024-07-13T01:13:21.758Z,,,,2,-0.0456515796420274,0.0273567130070961,,0.05,false,ll,7413.260000000009,response,-1.0525532302758762,1.0171388055884607,-1.15,-1.1628982512509805,1.0171388055884607,-1.15,low,low,,ISIC_0068610.JPG,,ISIC_0033428.JPG,33,27,false,0.1,lh,keypress(e),0,true,509306,509306,501892.2,501893,501892.74,509307.38,1,40,9,
sequence,flow.Sequence,8_8,2024-07-13T01:13:21.759Z,,,,,,,,,,,7413.260000000009,completion,,,,,,,low,low,,,,,,,false,,,,,true,509306,509306,501892.2,501893,501892.74,509307.38,1,40,,
trial,html.Screen,8_9_0,2024-07-13T01:13:26.329Z,,,,2,-0.039728379742806,0.0228701131373768,,0.05,true,hh,4570.619999999995,response,0.9859190680307316,1.0171388055884607,-1.0422422261545659,1.0904756837966545,1.0171388055884607,-1.15,high,high,,ISIC_0054073.JPG,,ISIC_0063151.JPG,33,32,false,0.1,hh,keypress(i),0,true,513878,513878,509306.78,509306,509307.38,513879.28,1,40,10,
sequence,flow.Sequence,8_9,2024-07-13T01:13:26.331Z,,,,,,,,,,,4570.619999999995,completion,,,,,,,high,high,,,,,,,false,,,,,true,513879,513878,509306.78,509306,509307.38,513879.28,1,40,,
trial,html.Screen,8_10_0,2024-07-13T01:13:34.268Z,,,,2,-0.0050679133050021,0.0009714874637896,,0.05,true,lh,7936.719999999972,response,-1.276222161935671,1.0171388055884607,-1.0422422261545659,0.9657780821973284,1.0171388055884607,-1.15,low,high,,ISIC_9848743.JPG,,ISIC_6710411.JPG,33,29,false,0.27000000000000013,lh,keypress(e),0,true,521816,521816,513878.7,513879,513879.28,521817.66,1,40,11,
sequence,flow.Sequence,8_10,2024-07-13T01:13:34.268Z,,,,,,,,,,,7936.719999999972,completion,,,,,,,low,high,,,,,,,false,,,,,true,521817,521816,513878.7,513879,513879.28,521817.66,1,40,,
trial,html.Screen,8_11_0,2024-07-13T01:13:43.119Z,,,,2,-0.007397293189458,-0.0174716772037504,,0.05,false,hl,8862.340000000026,response,0.9696118525781644,1.0171388055884607,-1.0422422261545659,-0.9244148283103414,0.9671388055884607,-1.15,high,low,,ISIC_0056226.JPG,,ISIC_7927525.JPG,33,25,false,0.2600000000000001,lh,keypress(e),0,true,530680,530680,521817.14,521817,521817.66,530681.36,1,40,12,
sequence,flow.Sequence,8_11,2024-07-13T01:13:43.120Z,,,,,,,,,,,8862.340000000026,completion,,,,,,,high,low,,,,,,,false,,,,,true,530681,530680,521817.14,521817,521817.66,530681.36,1,40,,
trial,html.Screen,8_12_0,2024-07-13T01:13:49.753Z,,,,2,-0.039728379742806,0.0228701131373768,,0.05,false,ll,6642.640000000014,response,-1.0910404089869363,1.0671388055884607,-1.0422422261545659,-1.119702461098404,0.9671388055884607,-1.15,low,low,,ISIC_0054073.JPG,,ISIC_0067097.JPG,33,28,false,0.1,hl,keypress(j),0,true,537324,537324,530680.78,530681,530681.36,537325.6,1,40,13,
sequence,flow.Sequence,8_12,2024-07-13T01:13:49.753Z,,,,,,,,,,,6642.640000000014,completion,,,,,,,low,low,,,,,,,false,,,,,true,537325,537324,530680.78,530681,530681.36,537325.6,1,40,,
trial,html.Screen,8_13_0,2024-07-13T01:13:56.319Z,,,,2,0.0113873532168551,0.0054999201556291,,0.05,false,hl,6571.400000000023,response,0.9579209317488,1.0671388055884607,-1.092242226154566,-1.0147487101263497,0.9671388055884607,-1.15,high,low,,ISIC_8812621.JPG,,ISIC_8124482.JPG,33,26,false,0.29000000000000015,ll,keypress(f),0,true,543897,543897,537325.06,537325,537325.6,543897.56,1,40,14,
sequence,flow.Sequence,8_13,2024-07-13T01:13:56.319Z,,,,,,,,,,,6571.400000000023,completion,,,,,,,high,low,,,,,,,false,,,,,true,543897,543897,537325.06,537325,537325.6,543897.56,1,40,,
trial,html.Screen,8_14_0,2024-07-13T01:14:03.786Z,,,,2,0.0277178575053843,-0.0395587463147856,,0.05,false,lh,7470.439999999944,response,-0.9235571765207048,1.1171388055884608,-1.092242226154566,1.0008081653938232,0.9671388055884607,-1.0172255856123769,low,high,,ISIC_0010807.JPG,,ISIC_8796632.JPG,33,25,false,0.28000000000000014,hl,keypress(j),0,true,551370,551368,543897.26,543897,543897.56,551370.06,1,40,15,
sequence,flow.Sequence,8_14,2024-07-13T01:14:03.786Z,,,,,,,,,,,7470.439999999944,completion,,,,,,,low,high,,,,,,,false,,,,,true,551370,551368,543897.26,543897,543897.56,551370.06,1,40,,
trial,html.Screen,8_15_0,2024-07-13T01:14:11.249Z,,,,2,0.0245376145053177,-0.0436993426328401,,0.05,false,hh,7464.939999999944,response,1.0769490291795207,1.1171388055884608,-1.142242226154566,1.0174515954885954,1.0171388055884607,-1.0172255856123769,high,high,,ISIC_0056444.JPG,,ISIC_0028135.JPG,33,27,false,0.1,hl,keypress(j),0,true,558835,558835,551369.56,551370,551370.06,558835.82,1,40,16,
sequence,flow.Sequence,8_15,2024-07-13T01:14:11.249Z,,,,,,,,,,,7464.939999999944,completion,,,,,,,high,high,,,,,,,false,,,,,true,558835,558835,551369.56,551370,551370.06,558835.82,1,40,,
trial,html.Screen,8_16_0,2024-07-13T01:14:14.775Z,,,,2,0,0.0264544974620926,,0.05,true,hh,3525.180000000051,response,1.131522954199764,1.1171388055884608,-1.142242226154566,1.1047184491749509,1.0671388055884607,-1.0172255856123769,high,high,,ISIC_0056991.JPG,,ISIC_1868816.JPG,33,26,false,0.1,hh,keypress(i),0,true,562362,562361,558835.34,558835,558835.82,562362.58,1,40,17,
sequence,flow.Sequence,8_16,2024-07-13T01:14:14.775Z,,,,,,,,,,,3525.180000000051,completion,,,,,,,high,high,,,,,,,false,,,,,true,562362,562361,558835.34,558835,558835.82,562362.58,1,40,,
trial,html.Screen,8_17_0,2024-07-13T01:14:20.300Z,,,,2,-0.0363437082783146,-0.0333332186217051,,0.05,false,hh,5525.420000000042,response,1.1210325063849345,1.0681207016873573,-1.142242226154566,1.1498648320956202,1.0671388055884607,-1.0172255856123769,high,high,,ISIC_3314555.JPG,,ISIC_0032162.JPG,33,30,false,0.1,hl,keypress(j),0,true,567888,567888,562362.08,562362,562362.58,567889.22,1,40,18,
sequence,flow.Sequence,8_17,2024-07-13T01:14:20.300Z,,,,,,,,,,,5525.420000000042,completion,,,,,,,high,high,,,,,,,false,,,,,true,567888,567888,562362.08,562362,562362.58,567889.22,1,40,,
trial,html.Screen,8_18_0,2024-07-13T01:14:23.260Z,,,,2,-0.007397293189458,-0.0174716772037504,,0.05,true,ll,2958.780000000028,response,-1.2015106101917423,1.0681207016873573,-1.142242226154566,-1.071085024260525,1.1171388055884608,-1.0172255856123769,low,low,,ISIC_0056226.JPG,,ISIC_0072496.JPG,33,29,false,0.1,ll,keypress(f),0,true,570849,570848,567888.72,567888,567889.22,570849.56,1,40,19,
sequence,flow.Sequence,8_18,2024-07-13T01:14:23.260Z,,,,,,,,,,,2958.780000000028,completion,,,,,,,low,low,,,,,,,false,,,,,true,570849,570848,567888.72,567888,567889.22,570849.56,1,40,,
trial,html.Screen,8_19_0,2024-07-13T01:14:30.821Z,,,,2,0.0112310719058792,-0.0469047359904117,,0.05,false,lh,7560.439999999944,response,-0.8092423703106274,1.0681207016873573,-1.142242226154566,1.1870093485714288,1.1171388055884608,-1.0172255856123769,low,high,,ISIC_0068184.JPG,,ISIC_8592235.JPG,33,26,false,0.3600000000000002,hh,keypress(i),0,true,578410,578410,570849.08,570849,570849.56,578411.56,1,40,20,
sequence,flow.Sequence,8_19,2024-07-13T01:14:30.821Z,,,,,,,,,,,7560.439999999944,completion,,,,,,,low,high,,,,,,,false,,,,,true,578411,578410,570849.08,570849,570849.56,578411.56,1,40,,
trial,html.Screen,8_20_0,2024-07-13T01:14:35.556Z,,,,2,-0.0057914759495055,-0.0074667911845194,,0.05,true,hh,4734.439999999944,response,1.0717785279820962,1.0681207016873573,-1.192242226154566,1.1267239445830604,1.1171388055884608,-1.0172255856123769,high,high,,ISIC_0058723.JPG,,ISIC_9948815.JPG,33,25,false,0.1,hh,keypress(i),0,true,583146,583146,578411.04,578411,578411.56,583147.24,1,40,21,
sequence,flow.Sequence,8_20,2024-07-13T01:14:35.556Z,,,,,,,,,,,4734.439999999944,completion,,,,,,,high,high,,,,,,,false,,,,,true,583147,583146,578411.04,578411,578411.56,583147.24,1,40,,
trial,html.Screen,8_21_0,2024-07-13T01:14:41.151Z,,,,2,-0.0050679133050021,0.0009714874637896,,0.05,false,lh,5593.760000000009,response,-1.2429840165564423,1.1068666465772445,-1.192242226154566,0.7308963943423881,1.1068666465772445,-1.0172255856123769,low,high,,ISIC_9848743.JPG,,ISIC_1264576.JPG,33,26,false,0.40000000000000024,hh,keypress(i),0,true,588742,588741,583146.62,583147,583147.24,588742.68,1,40,22,
sequence,flow.Sequence,8_21,2024-07-13T01:14:41.152Z,,,,,,,,,,,5593.760000000009,completion,,,,,,,low,high,,,,,,,false,,,,,true,588742,588741,583146.62,583147,583147.24,588742.68,1,40,,
trial,html.Screen,8_22_0,2024-07-13T01:14:44.190Z,,,,2,-0.0329095507339554,0.0382899749693245,,0.05,true,ll,3037.319999999949,response,-1.0931477426281198,1.1068666465772445,-1.192242226154566,-1.0028306951898116,1.1068666465772445,-1.0172255856123769,low,low,,ISIC_8812781.JPG,,ISIC_0026531.JPG,33,30,false,0.1,ll,keypress(f),0,true,591780,591780,588742.12,588742,588742.68,591781.38,1,40,23,
sequence,flow.Sequence,8_22,2024-07-13T01:14:44.190Z,,,,,,,,,,,3037.319999999949,completion,,,,,,,low,low,,,,,,,false,,,,,true,591780,591780,588742.12,588742,588742.68,591781.38,1,40,,
trial,html.Screen,8_23_0,2024-07-13T01:14:47.650Z,,,,2,-0.0450282431170921,0,,0.05,false,hl,3458.6199999999953,response,0.9454713230140772,1.1068666465772445,-1.192242226154566,-0.9245167441969216,1.1068666465772445,-0.9979892189089656,high,low,,ISIC_1805163.JPG,,ISIC_9101055.JPG,33,26,false,0.2500000000000001,ll,keypress(f),0,true,595240,595240,591780.88,591781,591781.38,595241.56,1,40,24,
sequence,flow.Sequence,8_23,2024-07-13T01:14:47.651Z,,,,,,,,,,,3458.6199999999953,completion,,,,,,,high,low,,,,,,,false,,,,,true,595241,595240,591780.88,591781,591781.38,595241.56,1,40,,
trial,html.Screen,8_24_0,2024-07-13T01:14:53.061Z,,,,2,-0.0217698886732706,0.0410870915161425,,0.05,false,ll,5410.439999999944,response,-1.1783311757907324,1.1568666465772446,-1.192242226154566,-1.0915173513546716,1.1068666465772445,-0.9979892189089656,low,low,,ISIC_0072173.JPG,,ISIC_8241457.JPG,33,27,false,0.1,lh,keypress(e),0,true,600652,600652,595241.06,595241,595241.56,600652.96,1,40,25,
sequence,flow.Sequence,8_24,2024-07-13T01:14:53.061Z,,,,,,,,,,,5410.439999999944,completion,,,,,,,low,low,,,,,,,false,,,,,true,600652,600652,595241.06,595241,595241.56,600652.96,1,40,,
trial,html.Screen,8_25_0,2024-07-13T01:14:56.636Z,,,,2,-0.0456515796420274,0.0273567130070961,,0.05,true,hh,3574.0400000000373,response,1.0769490291795207,1.1568666465772446,-1.001423959993827,1.0174515954885954,1.1068666465772445,-1.0479892189089657,high,high,,ISIC_0068610.JPG,,ISIC_0028135.JPG,33,25,false,0.1,hh,keypress(i),0,true,604227,604227,600652.42,600652,600652.96,604228.02,1,40,26,
sequence,flow.Sequence,8_25,2024-07-13T01:14:56.636Z,,,,,,,,,,,3574.0400000000373,completion,,,,,,,high,high,,,,,,,false,,,,,true,604228,604227,600652.42,600652,600652.96,604228.02,1,40,,
trial,html.Screen,8_26_0,2024-07-13T01:15:08.422Z,,,,2,-0.0116094682222121,0.0258434522530318,,0.05,false,lh,11784.979999999981,response,-1.0213365328004047,1.1568666465772446,-1.001423959993827,1.088524359911891,0.997200312334058,-1.0479892189089657,low,high,,ISIC_9239632.JPG,,ISIC_5434229.JPG,33,25,false,0.2300000000000001,hl,keypress(j),0,true,616013,616013,604227.46,604228,604228.02,616014.56,1,40,27,
sequence,flow.Sequence,8_26,2024-07-13T01:15:08.423Z,,,,,,,,,,,11784.979999999981,completion,,,,,,,low,high,,,,,,,false,,,,,true,616013,616013,604227.46,604228,604228.02,616014.56,1,40,,
trial,html.Screen,8_27_0,2024-07-13T01:15:18.922Z,,,,2,-0.0027483411352856,-0.0100996915276271,,0.05,true,lh,10499.439999999944,response,-1.276222161935671,1.1568666465772446,-1.051423959993827,0.9657780821973284,1.047200312334058,-1.0479892189089657,low,high,,ISIC_7364041.JPG,,ISIC_6710411.JPG,33,25,false,0.27000000000000013,lh,keypress(e),0,true,626514,626514,616014.04,616014,616014.56,626515.34,1,40,28,
sequence,flow.Sequence,8_27,2024-07-13T01:15:18.923Z,,,,,,,,,,,10499.439999999944,completion,,,,,,,low,high,,,,,,,false,,,,,true,626514,626514,616014.04,616013,616014.56,626515.34,1,40,,
trial,html.Screen,8_28_0,2024-07-13T01:15:22.232Z,,,,2,0,0.0264544974620926,,0.05,true,hh,3308.6600000000326,response,1.200284020742371,1.1568666465772446,-1.051423959993827,1.0002918079433898,1.047200312334058,-1.0479892189089657,high,high,,ISIC_0056991.JPG,,ISIC_0678758.JPG,33,26,false,0.11,hh,keypress(i),0,true,629824,629824,626514.72,626515,626515.34,629825.38,1,40,29,
sequence,flow.Sequence,8_28,2024-07-13T01:15:22.233Z,,,,,,,,,,,3308.6600000000326,completion,,,,,,,high,high,,,,,,,false,,,,,true,629824,629824,626514.72,626515,626515.34,629825.38,1,40,,
trial,html.Screen,8_29_0,2024-07-13T01:15:25.012Z,,,,2,-0.0217698886732706,0.0410870915161425,,0.05,false,hl,2778.6199999999953,response,1.011737552725394,0.933034945070359,-1.051423959993827,-0.8500530224490773,0.933034945070359,-1.0479892189089657,high,low,,ISIC_0072173.JPG,,ISIC_2998367.JPG,33,26,false,0.21000000000000008,hh,keypress(i),0,true,632605,632604,629824.88,629825,629825.38,632605.48,1,40,30,
sequence,flow.Sequence,8_29,2024-07-13T01:15:25.013Z,,,,,,,,,,,2778.6199999999953,completion,,,,,,,high,low,,,,,,,false,,,,,true,632605,632604,629824.88,629825,629825.38,632605.48,1,40,,
trial,html.Screen,8_30_0,2024-07-13T01:15:31.401Z,,,,2,0,0.0264544974620926,,0.05,false,lh,6386.520000000019,response,-1.0122398223568725,0.933034945070359,-1.051423959993827,0.7505228537454216,0.933034945070359,-1.0979892189089657,low,high,,ISIC_0056991.JPG,,ISIC_0033802.JPG,33,29,false,0.2500000000000001,ll,keypress(f),0,true,638992,638992,632604.84,632605,632605.48,638993.02,1,40,31,
sequence,flow.Sequence,8_30,2024-07-13T01:15:31.401Z,,,,,,,,,,,6386.520000000019,completion,,,,,,,low,high,,,,,,,false,,,,,true,638992,638992,632604.84,632605,632605.48,638993.02,1,40,,
trial,html.Screen,8_31_0,2024-07-13T01:15:38.110Z,,,,2,0.013431314305098,-0.0140597582944232,,0.05,true,hl,6707.979999999981,response,0.7306047092126615,0.933034945070359,-1.001423959993827,-0.9725548307155644,0.983034945070359,-1.0979892189089657,high,low,,ISIC_0069617.JPG,,ISIC_0065469.JPG,33,26,false,0.22000000000000008,hl,keypress(j),0,true,645701,645701,638992.52,638992,638993.02,645702.26,1,40,32,
sequence,flow.Sequence,8_31,2024-07-13T01:15:38.110Z,,,,,,,,,,,6707.979999999981,completion,,,,,,,high,low,,,,,,,false,,,,,true,645702,645701,638992.52,638992,638993.02,645702.26,1,40,,
trial,html.Screen,8_32_0,2024-07-13T01:15:42.301Z,,,,2,0.0051189696037511,-0.0396625911332438,,0.05,true,hh,4188.739999999991,response,0.7877297643782052,0.883034945070359,-1.001423959993827,1.0484741330672678,0.983034945070359,-1.0979892189089657,high,high,,ISIC_9742891.JPG,,ISIC_6326803.JPG,33,37,false,0.1,hh,keypress(i),0,true,649892,649891,645701.74,645702,645702.26,649893.28,1,40,33,
sequence,flow.Sequence,8_32,2024-07-13T01:15:42.301Z,,,,,,,,,,,4188.739999999991,completion,,,,,,,high,high,,,,,,,false,,,,,true,649892,649891,645701.74,645702,645702.26,649893.28,1,40,,
trial,html.Screen,8_33_0,2024-07-13T01:15:47.353Z,,,,2,0.0277178575053843,-0.0395587463147856,,0.05,false,hl,5050.719999999972,response,0.7016683761932542,0.883034945070359,-1.001423959993827,-1.043794098855853,0.983034945070359,-1.0979892189089657,high,low,,ISIC_0010807.JPG,,ISIC_0033117.JPG,33,25,false,0.19000000000000006,hh,keypress(i),0,true,654945,654944,649892.76,649892,649893.28,654945.42,1,40,34,
sequence,flow.Sequence,8_33,2024-07-13T01:15:47.353Z,,,,,,,,,,,5050.719999999972,completion,,,,,,,high,low,,,,,,,false,,,,,true,654945,654944,649892.76,649892,649893.28,654945.42,1,40,,
trial,html.Screen,8_34_0,2024-07-13T01:15:50.720Z,,,,2,0,0.0264544974620926,,0.05,true,ll,3365.579999999958,response,-0.9562051868665176,0.825071254630261,-1.001423959993827,-1.110797661774712,0.983034945070359,-1.1479892189089658,low,low,,ISIC_0056991.JPG,,ISIC_0061199.JPG,33,30,false,0.1,ll,keypress(f),0,true,658312,658311,654944.92,654945,654945.42,658313.08,1,40,35,
sequence,flow.Sequence,8_34,2024-07-13T01:15:50.720Z,,,,,,,,,,,3365.579999999958,completion,,,,,,,low,low,,,,,,,false,,,,,true,658312,658311,654944.92,654945,654945.42,658313.08,1,40,,
trial,html.Screen,8_35_0,2024-07-13T01:15:55.683Z,,,,2,-0.0324770283903853,-0.0249968632204382,,0.05,true,ll,4960.920000000042,response,-1.0700930503975157,0.825071254630261,-1.001423959993827,-1.2020012168275056,0.983034945070359,-1.1479892189089658,low,low,,ISIC_7266462.JPG,,ISIC_0000022.JPG,33,30,false,0.1,ll,keypress(f),0,true,663275,663274,658312.54,658312,658313.08,663276.08,1,40,36,
sequence,flow.Sequence,8_35,2024-07-13T01:15:55.683Z,,,,,,,,,,,4960.920000000042,completion,,,,,,,low,low,,,,,,,false,,,,,true,663275,663274,658312.54,658312,658313.08,663276.08,1,40,,
trial,html.Screen,8_36_0,2024-07-13T01:15:58.405Z,,,,2,0.0051189696037511,-0.0396625911332438,,0.05,true,ll,2720.920000000042,response,-1.188743606919222,0.825071254630261,-1.1063994393011087,-1.0980226451001782,0.983034945070359,-1.1063994393011087,low,low,,ISIC_9742891.JPG,,ISIC_0060481.JPG,33,29,false,0.1,ll,keypress(f),0,true,665997,665997,663275.58,663275,663276.08,665998.28,1,40,37,
sequence,flow.Sequence,8_36,2024-07-13T01:15:58.406Z,,,,,,,,,,,2720.920000000042,completion,,,,,,,low,low,,,,,,,false,,,,,true,665998,665997,663275.58,663275,663276.08,665998.28,1,40,,
trial,html.Screen,8_37_0,2024-07-13T01:16:04.410Z,,,,2,-0.0057914759495055,-0.0074667911845194,,0.05,true,hl,6002.719999999972,response,0.9696118525781644,0.825071254630261,-1.1063994393011087,-0.9244148283103414,0.983034945070359,-1.1063994393011087,high,low,,ISIC_0058723.JPG,,ISIC_7927525.JPG,33,28,false,0.19000000000000006,hl,keypress(j),0,true,672002,672001,665997.74,665998,665998.28,672003.24,1,40,38,
sequence,flow.Sequence,8_37,2024-07-13T01:16:04.410Z,,,,,,,,,,,6002.719999999972,completion,,,,,,,high,low,,,,,,,false,,,,,true,672002,672001,665997.74,665998,665998.28,672003.24,1,40,,
trial,html.Screen,8_38_0,2024-07-13T01:16:08.089Z,,,,2,-0.0363437082783146,-0.0333332186217051,,0.05,false,hl,3678.7600000000093,response,0.8534691366511764,0.825071254630261,-1.1063994393011087,-1.03975580494588,0.983034945070359,-1.0563994393011087,high,low,,ISIC_3314555.JPG,,ISIC_0056788.JPG,33,25,false,0.17000000000000004,ll,keypress(f),0,true,675682,675682,672002.76,672002,672003.24,675682.46,1,40,39,
sequence,flow.Sequence,8_38,2024-07-13T01:16:08.089Z,,,,,,,,,,,3678.7600000000093,completion,,,,,,,high,low,,,,,,,false,,,,,true,675682,675682,672002.76,672002,672003.24,675682.46,1,40,,
trial,html.Screen,8_39_0,2024-07-13T01:16:10.026Z,,,,2,-0.0069555338059566,0.0310100918136373,,0.05,true,hh,1935.5400000000373,response,0.9607077625123552,0.875071254630261,-1.1063994393011087,1.0682608339754711,0.983034945070359,-1.0563994393011087,high,high,,ISIC_0011177.JPG,,ISIC_0064763.JPG,33,37,false,0.1,hh,keypress(i),0,true,677618,677618,675681.94,675682,675682.46,677619.38,1,40,40,
sequence,flow.Sequence,8_39,2024-07-13T01:16:10.027Z,,,,,,,,,,,1935.5400000000373,completion,,,,,,,high,high,,,,,,,false,,,,,true,677618,677618,675681.94,675682,675682.46,677619.38,1,40,,
stair_loop,flow.Loop,8,2024-07-13T01:16:10.027Z,,,,,,,,,,,222256.44,completion,,,,,,,,,,,,,,,false,,,,,true,677619,677618,455361.04,455361,455361.56,677619.38,1,40,,
exp_instructions,html.Screen,9,2024-07-13T01:16:16.480Z,,,,,,,,,,,6447.619999999995,response,,,,,,,,,,,,,,,,,continue,keypress(Space),,,684073,684067,677618.88,677619,677619.38,684073.6,,,,
trial,html.Screen,10_0_0,2024-07-13T01:16:21.326Z,,,,1,0.0362376068089956,0.047825070846155,,0.05,true,hh,4843.400000000023,response,0.9991910338212396,0.9869328063719334,-1.0801236223954676,0.9242629064104082,1.0228228685625402,-1.0650567179929058,high,high,,ISIC_6985114.JPG,16,ISIC_7795549.JPG,33,33,false,0.1,hh,keypress(i),0,false,688918,688917,684073.08,684073,684073.6,688919.04,5,600,1,
break,html.Screen,10_0_1,2024-07-13T01:16:21.327Z,,,,,,,,,,,NaN,,,,,,,,high,high,,,,,,,false,,,,,false,688920,688919,,688918,,688919.04,5,600,,
break_continue,html.Screen,10_0_2,2024-07-13T01:16:21.328Z,,,,,,,,,,,NaN,,,,,,,,high,high,,,,,,,false,,,,,false,688921,688920,,688920,,688919.04,5,600,,
sequence,flow.Sequence,10_0,2024-07-13T01:16:21.328Z,,,,,,,,,,,4846.400000000023,completion,,,,,,,high,high,,,,,,,false,,,,,false,688921,688920,684073.08,684073,684073.6,688919.04,5,600,,
trial,html.Screen,10_1_0,2024-07-13T01:16:27.217Z,,,,1,0.000047919190197942736,0.0462652940855003,,0.05,false,lh,5889.959999999963,response,-0.7871162143493278,0.9869328063719334,-1.0801236223954676,0.8429329800778957,1.0228228685625402,-1.0650567179929058,low,high,,ISIC_0011507.JPG,9,ISIC_3439215.JPG,33,29,false,0.30000000000000016,hh,keypress(i),0,false,694810,694809,688918.52,688921,688919.04,694810.28,5,600,2,
break,html.Screen,10_1_1,2024-07-13T01:16:27.218Z,,,,,,,,,,,NaN,,,,,,,,low,high,,,,,,,false,,,,,false,694811,694811,,694810,,694810.28,5,600,,
break_continue,html.Screen,10_1_2,2024-07-13T01:16:27.219Z,,,,,,,,,,,NaN,,,,,,,,low,high,,,,,,,false,,,,,false,694812,694812,,694811,,694810.28,5,600,,
sequence,flow.Sequence,10_1,2024-07-13T01:16:27.219Z,,,,,,,,,,,5892.959999999963,completion,,,,,,,low,high,,,,,,,false,,,,,false,694812,694812,688918.52,688921,688919.04,694810.28,5,600,,
trial,html.Screen,10_2_0,2024-07-13T01:16:29.583Z,,,,1,0.0245376145053177,-0.0436993426328401,,0.05,true,hh,2364.719999999972,response,1.0378929077920005,0.9869328063719334,-1.0801236223954676,1.012953297890337,1.0228228685625402,-1.0650567179929058,high,high,,ISIC_0056444.JPG,12,ISIC_0231745.JPG,33,33,false,0.1,hh,keypress(i),0,false,697176,697175,694809.7,694812,694810.28,697176.24,5,600,3,
break,html.Screen,10_2_1,2024-07-13T01:16:29.584Z,,,,,,,,,,,NaN,,,,,,,,high,high,,,,,,,false,,,,,false,697177,697177,,697176,,697176.24,5,600,,
break_continue,html.Screen,10_2_2,2024-07-13T01:16:29.585Z,,,,,,,,,,,NaN,,,,,,,,high,high,,,,,,,false,,,,,false,697178,697178,,697178,,697176.24,5,600,,
sequence,flow.Sequence,10_2,2024-07-13T01:16:29.585Z,,,,,,,,,,,2367.719999999972,completion,,,,,,,high,high,,,,,,,false,,,,,false,697179,697178,694809.7,694812,694810.28,697176.24,5,600,,
trial,html.Screen,10_3_0,2024-07-13T01:16:33.146Z,,,,1,0.0134764727102299,0.0033499036460912,,0.05,false,lh,3561.7600000000093,response,-0.7809949855371787,0.9869328063719334,-1.0801236223954676,0.8493861117004308,1.0228228685625402,-1.0650567179929058,low,high,,ISIC_0009998.JPG,14,ISIC_7450481.JPG,33,29,false,0.30000000000000016,ll,keypress(f),0,false,700738,700738,697175.76,697179,697176.24,700739.06,5,600,4,
break,html.Screen,10_3_1,2024-07-13T01:16:33.147Z,,,,,,,,,,,NaN,,,,,,,,low,high,,,,,,,false,,,,,false,700740,700739,,700738,,700739.06,5,600,,
break_continue,html.Screen,10_3_2,2024-07-13T01:16:33.148Z,,,,,,,,,,,NaN,,,,,,,,low,high,,,,,,,false,,,,,false,700741,700740,,700740,,700739.06,5,600,,
sequence,flow.Sequence,10_3,2024-07-13T01:16:33.148Z,,,,,,,,,,,3563.7600000000093,completion,,,,,,,low,high,,,,,,,false,,,,,false,700741,700740,697175.76,697179,697176.24,700739.06,5,600,,
trial,html.Screen,10_4_0,2024-07-13T01:16:38.798Z,,,,1,-0.0456515796420274,0.0273567130070961,,0.05,false,ll,5650.939999999944,response,-1.1383813631375823,0.9869328063719334,-1.0801236223954676,-1.1319312220332556,1.0228228685625402,-1.0650567179929058,low,low,,ISIC_0068610.JPG,14,ISIC_6227397.JPG,33,31,false,0.1,lh,keypress(e),0,false,706390,706390,700738.56,700741,700739.06,706391.46,5,600,5,
break,html.Screen,10_4_1,2024-07-13T01:16:38.799Z,,,,,,,,,,,NaN,,,,,,,,low,low,,,,,,,false,,,,,false,706392,706391,,706391,,706391.46,5,600,,
break_continue,html.Screen,10_4_2,2024-07-13T01:16:38.800Z,,,,,,,,,,,NaN,,,,,,,,low,low,,,,,,,false,,,,,false,706393,706393,,706392,,706391.46,5,600,,
sequence,flow.Sequence,10_4,2024-07-13T01:16:38.800Z,,,,,,,,,,,5653.939999999944,completion,,,,,,,low,low,,,,,,,false,,,,,false,706393,706393,700738.56,700741,700739.06,706391.46,5,600,,
trial,html.Screen,10_5_0,2024-07-13T01:16:46.466Z,,,,1,0.000047919190197942736,0.0462652940855003,,0.05,false,hl,7668.540000000037,response,1.0865333402803938,0.9869328063719334,-1.0801236223954676,-1.0542635307358266,1.0228228685625402,-1.0650567179929058,high,low,,ISIC_0011507.JPG,14,ISIC_0034006.JPG,33,26,false,0.2300000000000001,lh,keypress(e),0,false,714060,714060,706390.94,706393,706391.46,714060.74,5,600,6,
break,html.Screen,10_5_1,2024-07-13T01:16:46.468Z,,,,,,,,,,,NaN,,,,,,,,high,low,,,,,,,false,,,,,false,714061,714061,,714060,,714060.74,5,600,,
break_continue,html.Screen,10_5_2,2024-07-13T01:16:46.470Z,,,,,,,,,,,NaN,,,,,,,,high,low,,,,,,,false,,,,,false,714062,714062,,714062,,714060.74,5,600,,
sequence,flow.Sequence,10_5,2024-07-13T01:16:46.470Z,,,,,,,,,,,7670.540000000037,completion,,,,,,,high,low,,,,,,,false,,,,,false,714062,714062,706390.94,706393,706391.46,714060.74,5,600,,
trial,html.Screen,10_6_0,2024-07-13T01:16:50.282Z,,,,1,-0.0050679133050021,0.0009714874637896,,0.05,true,ll,3813.2600000000093,response,-1.0774704182387804,0.9869328063719334,-1.0801236223954676,-1.0186619444121927,1.0228228685625402,-1.0650567179929058,low,low,,ISIC_9848743.JPG,11,ISIC_0066564.JPG,33,31,false,0.1,ll,keypress(f),0,false,717874,717874,714060.1,714063,714060.74,717874.9,5,600,7,
break,html.Screen,10_6_1,2024-07-13T01:16:50.282Z,,,,,,,,,,,NaN,,,,,,,,low,low,,,,,,,false,,,,,false,717875,717875,,717874,,717874.9,5,600,,
break_continue,html.Screen,10_6_2,2024-07-13T01:16:50.283Z,,,,,,,,,,,NaN,,,,,,,,low,low,,,,,,,false,,,,,false,717876,717876,,717876,,717874.9,5,600,,
sequence,flow.Sequence,10_6,2024-07-13T01:16:50.283Z,,,,,,,,,,,3815.2600000000093,completion,,,,,,,low,low,,,,,,,false,,,,,false,717877,717876,714060.1,714062,714060.74,717874.9,5,600,,
trial,html.Screen,10_7_0,2024-07-13T01:16:53.022Z,,,,1,0.0134764727102299,0.0033499036460912,,0.05,false,lh,2740.0999999999767,response,-0.8200962008791046,0.9869328063719334,-1.0801236223954676,0.7936051642828523,1.0228228685625402,-1.0650567179929058,low,high,,ISIC_0009998.JPG,9,ISIC_0027031.JPG,33,29,false,0.30000000000000016,hh,keypress(i),0,false,720616,720615,717874.4,717877,717874.9,720616.54,5,600,8,
break,html.Screen,10_7_1,2024-07-13T01:16:53.024Z,,,,,,,,,,,NaN,,,,,,,,low,high,,,,,,,false,,,,,false,720617,720617,,720616,,720616.54,5,600,,
break_continue,html.Screen,10_7_2,2024-07-13T01:16:53.025Z,,,,,,,,,,,NaN,,,,,,,,low,high,,,,,,,false,,,,,false,720618,720618,,720617,,720616.54,5,600,,
sequence,flow.Sequence,10_7,2024-07-13T01:16:53.025Z,,,,,,,,,,,2743.0999999999767,completion,,,,,,,low,high,,,,,,,false,,,,,false,720619,720618,717874.4,717877,717874.9,720616.54,5,600,,
trial,html.Screen,10_8_0,2024-07-13T01:16:56.288Z,,,,1,0.0277178575053843,-0.0395587463147856,,0.05,false,lh,3264.4599999999627,response,-0.9388660854518424,0.9869328063719334,-1.0801236223954676,0.79533948698576,1.0228228685625402,-1.0650567179929058,low,high,,ISIC_0010807.JPG,3,ISIC_9291926.JPG,33,29,false,0.30000000000000016,ll,keypress(f),0,false,723881,723881,720616.04,720619,720616.54,723882.16,5,600,9,
break,html.Screen,10_8_1,2024-07-13T01:16:56.290Z,,,,,,,,,,,NaN,,,,,,,,low,high,,,,,,,false,,,,,false,723883,723882,,723881,,723882.16,5,600,,
break_continue,html.Screen,10_8_2,2024-07-13T01:16:56.291Z,,,,,,,,,,,NaN,,,,,,,,low,high,,,,,,,false,,,,,false,723884,723884,,723883,,723882.16,5,600,,
sequence,flow.Sequence,10_8,2024-07-13T01:16:56.291Z,,,,,,,,,,,3267.4599999999627,completion,,,,,,,low,high,,,,,,,false,,,,,false,723885,723884,720616.04,720619,720616.54,723882.16,5,600,,
trial,html.Screen,10_9_0,2024-07-13T01:16:58.291Z,,,,1,0.000047919190197942736,0.0462652940855003,,0.05,true,hh,2001.8399999999674,response,1.0017318800845572,0.9869328063719334,-1.0801236223954676,0.9394193355947452,1.0228228685625402,-1.0650567179929058,high,high,,ISIC_0011507.JPG,15,ISIC_0024586.JPG,33,33,false,0.1,hh,keypress(i),0,false,725884,725884,723881.62,723885,723882.16,725885.4,5,600,10,
break,html.Screen,10_9_1,2024-07-13T01:16:58.293Z,,,,,,,,,,,NaN,,,,,,,,high,high,,,,,,,false,,,,,false,725886,725886,,725884,,725885.4,5,600,,
break_continue,html.Screen,10_9_2,2024-07-13T01:16:58.294Z,,,,,,,,,,,NaN,,,,,,,,high,high,,,,,,,false,,,,,false,725887,725886,,725886,,725885.4,5,600,,
sequence,flow.Sequence,10_9,2024-07-13T01:16:58.294Z,,,,,,,,,,,2003.8399999999674,completion,,,,,,,high,high,,,,,,,false,,,,,false,725887,725886,723881.62,723885,723882.16,725885.4,5,600,,
trial,html.Screen,10_10_0,2024-07-13T01:17:00.165Z,,,,1,-0.0363437082783146,-0.0333332186217051,,0.05,true,hh,1872.5999999999767,response,0.9071602543711612,0.9869328063719334,-1.0801236223954676,1.073798502866343,1.0228228685625402,-1.0650567179929058,high,high,,ISIC_3314555.JPG,11,ISIC_6676776.JPG,33,33,false,0.1,hh,keypress(i),0,false,727758,727758,725884.88,725887,725885.4,727780.4,5,600,11,
break,html.Screen,10_10_1,2024-07-13T01:17:00.167Z,,,,,,,,,,,NaN,,,,,,,,high,high,,,,,,,false,,,,,false,727760,727759,,727758,,727780.4,5,600,,
break_continue,html.Screen,10_10_2,2024-07-13T01:17:00.168Z,,,,,,,,,,,NaN,,,,,,,,high,high,,,,,,,false,,,,,false,727761,727760,,727760,,727780.4,5,600,,
sequence,flow.Sequence,10_10,2024-07-13T01:17:00.168Z,,,,,,,,,,,1874.5999999999767,completion,,,,,,,high,high,,,,,,,false,,,,,false,727761,727760,725884.88,725887,725885.4,727780.4,5,600,,
trial,html.Screen,10_11_0,2024-07-13T01:17:03.386Z,,,,1,0.0348234368746005,-0.0236866303880924,,0.05,false,lh,3199.5999999999767,response,-0.887838744955182,0.9869328063719334,-1.0801236223954676,0.7545096650863988,1.0228228685625402,-1.0650567179929058,low,high,,ISIC_0011099.JPG,13,ISIC_1488727.JPG,33,29,false,0.30000000000000016,hh,keypress(i),0,false,730980,730980,727763.8,727761,727780.4,730980.56,5,600,12,
break,html.Screen,10_11_1,2024-07-13T01:17:03.388Z,,,,,,,,,,,NaN,,,,,,,,low,high,,,,,,,false,,,,,false,730982,730981,,730980,,730980.56,5,600,,
break_continue,html.Screen,10_11_2,2024-07-13T01:17:03.389Z,,,,,,,,,,,NaN,,,,,,,,low,high,,,,,,,false,,,,,false,730982,730982,,730982,,730980.56,5,600,,
sequence,flow.Sequence,10_11,2024-07-13T01:17:03.389Z,,,,,,,,,,,3201.5999999999767,completion,,,,,,,low,high,,,,,,,false,,,,,false,730982,730982,727763.8,727761,727780.4,730980.56,5,600,,
trial,html.Screen,10_12_0,2024-07-13T01:17:07.016Z,,,,1,-0.0456515796420274,0.0273567130070961,,0.05,false,lh,3629.439999999944,response,-0.9388660854518424,0.9869328063719334,-1.0801236223954676,0.79533948698576,1.0228228685625402,-1.0650567179929058,low,high,,ISIC_0068610.JPG,6,ISIC_9291926.JPG,33,29,false,0.30000000000000016,ll,keypress(f),0,false,734610,734610,730980.14,730982,730980.56,734610.38,5,600,13,
break,html.Screen,10_12_1,2024-07-13T01:17:07.018Z,,,,,,,,,,,NaN,,,,,,,,low,high,,,,,,,false,,,,,false,734611,734610,,734610,,734610.38,5,600,,
break_continue,html.Screen,10_12_2,2024-07-13T01:17:07.019Z,,,,,,,,,,,NaN,,,,,,,,low,high,,,,,,,false,,,,,false,734611,734611,,734611,,734610.38,5,600,,
sequence,flow.Sequence,10_12,2024-07-13T01:17:07.019Z,,,,,,,,,,,3630.439999999944,completion,,,,,,,low,high,,,,,,,false,,,,,false,734612,734611,730980.14,730982,730980.56,734610.38,5,600,,
trial,html.Screen,10_13_0,2024-07-13T01:17:11.377Z,,,,1,0.0348234368746005,-0.0236866303880924,,0.05,true,hl,4360.619999999995,response,0.8579451262594331,0.9869328063719334,-1.0801236223954676,-0.9633172970727744,1.0228228685625402,-1.0650567179929058,high,low,,ISIC_0011099.JPG,10,ISIC_0067172.JPG,33,26,false,0.2300000000000001,hl,keypress(j),0,false,738971,738971,734609.9,734612,734610.38,738971.12,5,600,14,
break,html.Screen,10_13_1,2024-07-13T01:17:11.379Z,,,,,,,,,,,NaN,,,,,,,,high,low,,,,,,,false,,,,,false,738972,738972,,738971,,738971.12,5,600,,
break_continue,html.Screen,10_13_2,2024-07-13T01:17:11.379Z,,,,,,,,,,,NaN,,,,,,,,high,low,,,,,,,false,,,,,false,738973,738972,,738972,,738971.12,5,600,,
sequence,flow.Sequence,10_13,2024-07-13T01:17:11.380Z,,,,,,,,,,,4361.619999999995,completion,,,,,,,high,low,,,,,,,false,,,,,false,738973,738972,734609.9,734612,734610.38,738971.12,5,600,,
trial,html.Screen,10_14_0,2024-07-13T01:17:14.737Z,,,,1,0.0277178575053843,-0.0395587463147856,,0.05,true,hh,3358.8800000000047,response,1.0375203228848855,0.9869328063719334,-1.0801236223954676,0.9394358755892184,1.0228228685625402,-1.0650567179929058,high,high,,ISIC_0010807.JPG,0,ISIC_4264600.JPG,33,33,false,0.1,hh,keypress(i),0,false,742330,742330,738970.62,738973,738971.12,742331.3,5,600,15,
break,html.Screen,10_14_1,2024-07-13T01:17:14.739Z,,,,,,,,,,,NaN,,,,,,,,high,high,,,,,,,false,,,,,false,742332,742332,,742331,,742331.3,5,600,,
break_continue,html.Screen,10_14_2,2024-07-13T01:17:14.740Z,,,,,,,,,,,NaN,,,,,,,,high,high,,,,,,,false,,,,,false,742333,742333,,742332,,742331.3,5,600,,
sequence,flow.Sequence,10_14,2024-07-13T01:17:14.740Z,,,,,,,,,,,3361.8800000000047,completion,,,,,,,high,high,,,,,,,false,,,,,false,742333,742333,738970.62,738973,738971.12,742331.3,5,600,,
trial,html.Screen,10_15_0,2024-07-13T01:17:21.322Z,,,,1,-0.0450282431170921,0,,0.05,true,hl,6583.699999999953,response,1.011737552725394,0.9869328063719334,-1.0801236223954676,-0.8500530224490773,1.0228228685625402,-1.0650567179929058,high,low,,ISIC_1805163.JPG,7,ISIC_2998367.JPG,33,26,false,0.2300000000000001,hl,keypress(j),0,false,748915,748915,742330.82,742334,742331.3,748933.6,5,600,16,
break,html.Screen,10_15_1,2024-07-13T01:17:21.323Z,,,,,,,,,,,NaN,,,,,,,,high,low,,,,,,,false,,,,,false,748917,748916,,748916,,748933.6,5,600,,
break_continue,html.Screen,10_15_2,2024-07-13T01:17:21.324Z,,,,,,,,,,,NaN,,,,,,,,high,low,,,,,,,false,,,,,false,748917,748917,,748917,,748933.6,5,600,,
sequence,flow.Sequence,10_15,2024-07-13T01:17:21.324Z,,,,,,,,,,,6585.699999999953,completion,,,,,,,high,low,,,,,,,false,,,,,false,748917,748917,742330.82,742334,742331.3,748933.6,5,600,,
trial,html.Screen,10_16_0,2024-07-13T01:17:24.454Z,,,,1,-0.0069555338059566,0.0310100918136373,,0.05,false,hl,3114.4000000000233,response,1.011737552725394,0.9869328063719334,-1.0801236223954676,-0.8500530224490773,1.0228228685625402,-1.0650567179929058,high,low,,ISIC_0011177.JPG,11,ISIC_2998367.JPG,33,26,false,0.2300000000000001,hh,keypress(i),0,false,752048,752048,748917.36,748917,748933.6,752048.82,5,600,17,
break,html.Screen,10_16_1,2024-07-13T01:17:24.456Z,,,,,,,,,,,NaN,,,,,,,,high,low,,,,,,,false,,,,,false,752050,752049,,752048,,752048.82,5,600,,
break_continue,html.Screen,10_16_2,2024-07-13T01:17:24.457Z,,,,,,,,,,,NaN,,,,,,,,high,low,,,,,,,false,,,,,false,752051,752050,,752050,,752048.82,5,600,,
sequence,flow.Sequence,10_16,2024-07-13T01:17:24.457Z,,,,,,,,,,,3116.4000000000233,completion,,,,,,,high,low,,,,,,,false,,,,,false,752051,752050,748917.36,748917,748933.6,752048.82,5,600,,
trial,html.Screen,10_17_0,2024-07-13T01:17:28.299Z,,,,1,-0.0027483411352856,-0.0100996915276271,,0.05,false,hh,3843.180000000051,response,0.9102336581208296,0.9869328063719334,-1.0801236223954676,1.0305113346799688,1.0228228685625402,-1.0650567179929058,high,high,,ISIC_7364041.JPG,2,ISIC_0068530.JPG,33,33,false,0.1,hl,keypress(j),0,false,755892,755892,752048.2,752051,752048.82,755892.8,5,600,18,
break,html.Screen,10_17_1,2024-07-13T01:17:28.299Z,,,,,,,,,,,NaN,,,,,,,,high,high,,,,,,,false,,,,,false,755894,755893,,755892,,755892.8,5,600,,
break_continue,html.Screen,10_17_2,2024-07-13T01:17:28.300Z,,,,,,,,,,,NaN,,,,,,,,high,high,,,,,,,false,,,,,false,755895,755894,,755894,,755892.8,5,600,,
sequence,flow.Sequence,10_17,2024-07-13T01:17:28.300Z,,,,,,,,,,,3845.180000000051,completion,,,,,,,high,high,,,,,,,false,,,,,false,755895,755894,752048.2,752051,752048.82,755892.8,5,600,,
trial,html.Screen,10_18_0,2024-07-13T01:17:35.171Z,,,,1,-0.007397293189458,-0.0174716772037504,,0.05,false,ll,6872.199999999953,response,-1.1346217981791904,0.9869328063719334,-1.0801236223954676,-1.1555132168806113,1.0228228685625402,-1.0650567179929058,low,low,,ISIC_0056226.JPG,12,ISIC_0032771.JPG,33,31,false,0.1,lh,keypress(e),0,false,762765,762765,755892.32,755895,755892.8,762766.16,5,600,19,
break,html.Screen,10_18_1,2024-07-13T01:17:35.173Z,,,,,,,,,,,NaN,,,,,,,,low,low,,,,,,,false,,,,,false,762767,762766,,762765,,762766.16,5,600,,
break_continue,html.Screen,10_18_2,2024-07-13T01:17:35.174Z,,,,,,,,,,,NaN,,,,,,,,low,low,,,,,,,false,,,,,false,762767,762767,,762767,,762766.16,5,600,,
sequence,flow.Sequence,10_18,2024-07-13T01:17:35.174Z,,,,,,,,,,,6874.199999999953,completion,,,,,,,low,low,,,,,,,false,,,,,false,762768,762767,755892.32,755895,755892.8,762766.16,5,600,,
trial,html.Screen,10_19_0,2024-07-13T01:17:42.834Z,,,,1,0.0159061451859594,0.0296598845560212,,0.05,false,lh,7661.839999999967,response,-0.8816288864119318,0.9869328063719334,-1.0801236223954676,0.801867301188093,1.0228228685625402,-1.0650567179929058,low,high,,ISIC_0072564.JPG,5,ISIC_9196783.JPG,33,29,false,0.30000000000000016,hl,keypress(j),0,false,770428,770428,762765.66,762768,762766.16,770428.78,5,600,20,
break,html.Screen,10_19_1,2024-07-13T01:17:42.836Z,,,,,,,,,,,NaN,,,,,,,,low,high,,,,,,,false,,,,,false,770429,770429,,770429,,770428.78,5,600,,
break_continue,html.Screen,10_19_2,2024-07-13T01:17:42.837Z,,,,,,,,,,,NaN,,,,,,,,low,high,,,,,,,false,,,,,false,770430,770430,,770429,,770428.78,5,600,,
sequence,flow.Sequence,10_19,2024-07-13T01:17:42.837Z,,,,,,,,,,,7663.839999999967,completion,,,,,,,low,high,,,,,,,false,,,,,false,770430,770430,762765.66,762768,762766.16,770428.78,5,600,,
trial,html.Screen,10_20_0,2024-07-13T01:17:45.530Z,,,,1,0.013431314305098,-0.0140597582944232,,0.05,true,hh,2695.219999999972,response,1.0378929077920005,0.9869328063719334,-1.0801236223954676,1.012953297890337,1.0228228685625402,-1.0650567179929058,high,high,,ISIC_0069617.JPG,6,ISIC_0231745.JPG,33,33,false,0.1,hh,keypress(i),0,false,773124,773124,770428.16,770430,770428.78,773124.66,5,600,21,
break,html.Screen,10_20_1,2024-07-13T01:17:45.531Z,,,,,,,,,,,NaN,,,,,,,,high,high,,,,,,,false,,,,,false,773125,773125,,773124,,773124.66,5,600,,
break_continue,html.Screen,10_20_2,2024-07-13T01:17:45.532Z,,,,,,,,,,,NaN,,,,,,,,high,high,,,,,,,false,,,,,false,773126,773126,,773126,,773124.66,5,600,,
sequence,flow.Sequence,10_20,2024-07-13T01:17:45.533Z,,,,,,,,,,,2697.219999999972,completion,,,,,,,high,high,,,,,,,false,,,,,false,773126,773126,770428.16,770430,770428.78,773124.66,5,600,,
trial,html.Screen,10_21_0,2024-07-13T01:17:47.078Z,,,,1,0.0097091270150747,-0.0417921315885292,,0.05,false,hl,1547.3399999999674,response,0.8534691366511764,0.9869328063719334,-1.0801236223954676,-1.03975580494588,1.0228228685625402,-1.0650567179929058,high,low,,ISIC_3967213.JPG,13,ISIC_0056788.JPG,33,26,false,0.2300000000000001,lh,keypress(e),0,false,774672,774672,773124.16,773127,773124.66,774672.72,5,600,22,
break,html.Screen,10_21_1,2024-07-13T01:17:47.080Z,,,,,,,,,,,NaN,,,,,,,,high,low,,,,,,,false,,,,,false,774674,774673,,774672,,774672.72,5,600,,
break_continue,html.Screen,10_21_2,2024-07-13T01:17:47.081Z,,,,,,,,,,,NaN,,,,,,,,high,low,,,,,,,false,,,,,false,774675,774674,,774674,,774672.72,5,600,,
sequence,flow.Sequence,10_21,2024-07-13T01:17:47.081Z,,,,,,,,,,,1549.3399999999674,completion,,,,,,,high,low,,,,,,,false,,,,,false,774675,774674,773124.16,773127,773124.66,774672.72,5,600,,
trial,html.Screen,10_22_0,2024-07-13T01:17:55.929Z,,,,1,-0.039728379742806,0.0228701131373768,,0.05,true,hh,8850.280000000028,response,1.0525847190618245,0.9869328063719334,-1.0801236223954676,0.934080360486692,1.0228228685625402,-1.0650567179929058,high,high,,ISIC_0054073.JPG,8,ISIC_0010684.JPG,33,33,false,0.1,hh,keypress(i),0,false,783523,783523,774672.2,774675,774672.72,783524.04,5,600,23,
break,html.Screen,10_22_1,2024-07-13T01:17:55.931Z,,,,,,,,,,,NaN,,,,,,,,high,high,,,,,,,false,,,,,false,783525,783524,,783523,,783524.04,5,600,,
break_continue,html.Screen,10_22_2,2024-07-13T01:17:55.931Z,,,,,,,,,,,NaN,,,,,,,,high,high,,,,,,,false,,,,,false,783525,783525,,783525,,783524.04,5,600,,
sequence,flow.Sequence,10_22,2024-07-13T01:17:55.931Z,,,,,,,,,,,8852.280000000028,completion,,,,,,,high,high,,,,,,,false,,,,,false,783526,783525,774672.2,774675,774672.72,783524.04,5,600,,
trial,html.Screen,10_23_0,2024-07-13T01:18:01.610Z,,,,1,0.0348234368746005,-0.0236866303880924,,0.05,false,lh,5678.959999999963,response,-1.2429840165564423,0.9869328063719334,-1.0801236223954676,0.7308963943423881,1.0228228685625402,-1.0650567179929058,low,high,,ISIC_0011099.JPG,19,ISIC_1264576.JPG,33,29,false,0.30000000000000016,hh,keypress(i),0,false,789203,789203,783523.56,783526,783524.04,789203.94,5,600,24,
break,html.Screen,10_23_1,2024-07-13T01:18:01.610Z,,,,,,,,,,,NaN,,,,,,,,low,high,,,,,,,false,,,,,false,789205,789204,,789203,,789203.94,5,600,,
break_continue,html.Screen,10_23_2,2024-07-13T01:18:01.611Z,,,,,,,,,,,NaN,,,,,,,,low,high,,,,,,,false,,,,,false,789205,789205,,789205,,789203.94,5,600,,
sequence,flow.Sequence,10_23,2024-07-13T01:18:01.611Z,,,,,,,,,,,5680.959999999963,completion,,,,,,,low,high,,,,,,,false,,,,,false,789206,789205,783523.56,783526,783524.04,789203.94,5,600,,
trial,html.Screen,10_24_0,2024-07-13T01:18:07.528Z,,,,1,0.0362376068089956,0.047825070846155,,0.05,true,ll,5918.060000000056,response,-1.1762578943048685,0.9869328063719334,-1.0801236223954676,-1.0434857167145009,1.0228228685625402,-1.0650567179929058,low,low,,ISIC_6985114.JPG,11,ISIC_0032544.JPG,33,31,false,0.1,ll,keypress(f),0,false,795122,795122,789203.42,789206,789203.94,795122.86,5,600,25,
break,html.Screen,10_24_1,2024-07-13T01:18:07.530Z,,,,,,,,,,,NaN,,,,,,,,low,low,,,,,,,false,,,,,false,795123,795123,,795122,,795122.86,5,600,,
break_continue,html.Screen,10_24_2,2024-07-13T01:18:07.530Z,,,,,,,,,,,NaN,,,,,,,,low,low,,,,,,,false,,,,,false,795124,795124,,795124,,795122.86,5,600,,
sequence,flow.Sequence,10_24,2024-07-13T01:18:07.531Z,,,,,,,,,,,5920.060000000056,completion,,,,,,,low,low,,,,,,,false,,,,,false,795125,795124,789203.42,789206,789203.94,795122.86,5,600,,
trial,html.Screen,10_25_0,2024-07-13T01:18:10.980Z,,,,1,0.0051189696037511,-0.0396625911332438,,0.05,false,hh,3451.140000000014,response,1.0859458972647518,0.9869328063719334,-1.0801236223954676,0.9241823104580792,1.0228228685625402,-1.0650567179929058,high,high,,ISIC_9742891.JPG,1,ISIC_0011721.JPG,33,33,false,0.1,hl,keypress(j),0,false,798574,798574,795122.32,795125,795122.86,798574.86,5,600,26,
break,html.Screen,10_25_1,2024-07-13T01:18:10.981Z,,,,,,,,,,,NaN,,,,,,,,high,high,,,,,,,false,,,,,false,798576,798575,,798574,,798574.86,5,600,,
break_continue,html.Screen,10_25_2,2024-07-13T01:18:10.982Z,,,,,,,,,,,NaN,,,,,,,,high,high,,,,,,,false,,,,,false,798576,798576,,798576,,798574.86,5,600,,
sequence,flow.Sequence,10_25,2024-07-13T01:18:10.983Z,,,,,,,,,,,3453.140000000014,completion,,,,,,,high,high,,,,,,,false,,,,,false,798577,798576,795122.32,795125,795122.86,798574.86,5,600,,
trial,html.Screen,10_26_0,2024-07-13T01:18:17.362Z,,,,1,0.0097091270150747,-0.0417921315885292,,0.05,true,lh,6380.140000000014,response,-1.0164576835546473,0.9869328063719334,-1.0801236223954676,0.8120626538423016,1.0228228685625402,-1.0650567179929058,low,high,,ISIC_3967213.JPG,13,ISIC_6002694.JPG,33,29,false,0.30000000000000016,lh,keypress(e),0,false,804955,804955,798574.36,798577,798574.86,804979.68,5,600,27,
break,html.Screen,10_26_1,2024-07-13T01:18:17.363Z,,,,,,,,,,,NaN,,,,,,,,low,high,,,,,,,false,,,,,false,804957,804956,,804956,,804979.68,5,600,,
break_continue,html.Screen,10_26_2,2024-07-13T01:18:17.364Z,,,,,,,,,,,NaN,,,,,,,,low,high,,,,,,,false,,,,,false,804958,804957,,804957,,804979.68,5,600,,
sequence,flow.Sequence,10_26,2024-07-13T01:18:17.364Z,,,,,,,,,,,6382.140000000014,completion,,,,,,,low,high,,,,,,,false,,,,,false,804958,804957,798574.36,798577,798574.86,804979.68,5,600,,
trial,html.Screen,10_27_0,2024-07-13T01:18:22.232Z,,,,1,0.0102460616775615,-0.0309670599545429,,0.05,true,hh,4847.319999999949,response,1.0270718265914571,0.9869328063719334,-1.0801236223954676,0.9536353804316964,1.0228228685625402,-1.0650567179929058,high,high,,ISIC_0072041.JPG,9,ISIC_3431915.JPG,33,33,false,0.1,hh,keypress(i),0,false,809827,809827,804946.92,804958,804979.68,809828.1,5,600,28,
break,html.Screen,10_27_1,2024-07-13T01:18:22.235Z,,,,,,,,,,,NaN,,,,,,,,high,high,,,,,,,false,,,,,false,809828,809828,,809827,,809828.1,5,600,,
break_continue,html.Screen,10_27_2,2024-07-13T01:18:22.235Z,,,,,,,,,,,NaN,,,,,,,,high,high,,,,,,,false,,,,,false,809829,809829,,809829,,809828.1,5,600,,
sequence,flow.Sequence,10_27,2024-07-13T01:18:22.235Z,,,,,,,,,,,4849.319999999949,completion,,,,,,,high,high,,,,,,,false,,,,,false,809829,809829,804946.92,804958,804979.68,809828.1,5,600,,
trial,html.Screen,10_28_0,2024-07-13T01:18:26.796Z,,,,1,0.0409338693593207,-0.0072462710499874,,0.05,true,ll,4561.900000000023,response,-1.0377676235641546,0.9869328063719334,-1.0801236223954676,-1.0836906473836847,1.0228228685625402,-1.0650567179929058,low,low,,ISIC_3608788.JPG,7,ISIC_0010540.JPG,33,31,false,0.1,ll,keypress(f),0,false,814390,814390,809827.62,809830,809828.1,814390.94,5,600,29,
break,html.Screen,10_28_1,2024-07-13T01:18:26.797Z,,,,,,,,,,,NaN,,,,,,,,low,low,,,,,,,false,,,,,false,814392,814391,,814390,,814390.94,5,600,,
break_continue,html.Screen,10_28_2,2024-07-13T01:18:26.798Z,,,,,,,,,,,NaN,,,,,,,,low,low,,,,,,,false,,,,,false,814393,814393,,814392,,814390.94,5,600,,
sequence,flow.Sequence,10_28,2024-07-13T01:18:26.799Z,,,,,,,,,,,4564.900000000023,completion,,,,,,,low,low,,,,,,,false,,,,,false,814393,814393,809827.62,809830,809828.1,814390.94,5,600,,
trial,html.Screen,10_29_0,2024-07-13T01:18:29.003Z,,,,1,0.0097091270150747,-0.0417921315885292,,0.05,true,hh,2206.060000000056,response,0.9949403898803344,0.9869328063719334,-1.0801236223954676,1.0036806409150678,1.0228228685625402,-1.0650567179929058,high,high,,ISIC_3967213.JPG,11,ISIC_0012450.JPG,33,33,false,0.1,hh,keypress(i),0,false,816598,816597,814390.42,814393,814390.94,816598.48,5,600,30,
break,html.Screen,10_29_1,2024-07-13T01:18:29.005Z,,,,,,,,,,,NaN,,,,,,,,high,high,,,,,,,false,,,,,false,816599,816599,,816598,,816598.48,5,600,,
break_continue,html.Screen,10_29_2,2024-07-13T01:18:29.006Z,,,,,,,,,,,NaN,,,,,,,,high,high,,,,,,,false,,,,,false,816601,816600,,816599,,816598.48,5,600,,
sequence,flow.Sequence,10_29,2024-07-13T01:18:29.006Z,,,,,,,,,,,2209.060000000056,completion,,,,,,,high,high,,,,,,,false,,,,,false,816601,816600,814390.42,814393,814390.94,816598.48,5,600,,
trial,html.Screen,10_30_0,2024-07-13T01:18:36.587Z,,,,1,0.0188047466661863,-0.0288346930436979,,0.05,true,lh,7583.520000000019,response,-1.0115965332688306,0.9869328063719334,-1.0801236223954676,0.8282633603842442,1.0228228685625402,-1.0650567179929058,low,high,,ISIC_0014157.JPG,14,ISIC_1069587.JPG,33,29,false,0.30000000000000016,lh,keypress(e),0,false,824182,824182,816597.94,816601,816598.48,824182.68,5,600,31,
break,html.Screen,10_30_1,2024-07-13T01:18:36.588Z,,,,,,,,,,,NaN,,,,,,,,low,high,,,,,,,false,,,,,false,824184,824183,,824182,,824182.68,5,600,,
break_continue,html.Screen,10_30_2,2024-07-13T01:18:36.590Z,,,,,,,,,,,NaN,,,,,,,,low,high,,,,,,,false,,,,,false,824185,824185,,824184,,824182.68,5,600,,
sequence,flow.Sequence,10_30,2024-07-13T01:18:36.590Z,,,,,,,,,,,7586.520000000019,completion,,,,,,,low,high,,,,,,,false,,,,,false,824185,824185,816597.94,816601,816598.48,824182.68,5,600,,
trial,html.Screen,10_31_0,2024-07-13T01:18:38.733Z,,,,1,0.000047919190197942736,0.0462652940855003,,0.05,true,hh,2145.319999999949,response,0.9991910338212396,0.9869328063719334,-1.0801236223954676,0.9242629064104082,1.0228228685625402,-1.0650567179929058,high,high,,ISIC_0011507.JPG,9,ISIC_7795549.JPG,33,33,false,0.1,hh,keypress(i),0,false,826328,826328,824182.18,824185,824182.68,826329.24,5,600,32,
break,html.Screen,10_31_1,2024-07-13T01:18:38.735Z,,,,,,,,,,,NaN,,,,,,,,high,high,,,,,,,false,,,,,false,826330,826329,,826328,,826329.24,5,600,,
break_continue,html.Screen,10_31_2,2024-07-13T01:18:38.736Z,,,,,,,,,,,NaN,,,,,,,,high,high,,,,,,,false,,,,,false,826331,826330,,826330,,826329.24,5,600,,
sequence,flow.Sequence,10_31,2024-07-13T01:18:38.736Z,,,,,,,,,,,2147.319999999949,completion,,,,,,,high,high,,,,,,,false,,,,,false,826332,826330,824182.18,824185,824182.68,826329.24,5,600,,
trial,html.Screen,10_32_0,2024-07-13T01:18:41.554Z,,,,1,0.0113873532168551,0.0054999201556291,,0.05,true,ll,2819.7600000000093,response,-1.1383813631375823,0.9869328063719334,-1.0801236223954676,-1.1319312220332556,1.0228228685625402,-1.0650567179929058,low,low,,ISIC_8812621.JPG,5,ISIC_6227397.JPG,33,31,false,0.1,ll,keypress(f),0,false,829149,829149,826328.72,826332,826329.24,829149.82,5,600,33,
break,html.Screen,10_32_1,2024-07-13T01:18:41.555Z,,,,,,,,,,,NaN,,,,,,,,low,low,,,,,,,false,,,,,false,829151,829150,,829150,,829149.82,5,600,,
break_continue,html.Screen,10_32_2,2024-07-13T01:18:41.556Z,,,,,,,,,,,NaN,,,,,,,,low,low,,,,,,,false,,,,,false,829152,829151,,829151,,829149.82,5,600,,
sequence,flow.Sequence,10_32,2024-07-13T01:18:41.556Z,,,,,,,,,,,2821.7600000000093,completion,,,,,,,low,low,,,,,,,false,,,,,false,829152,829151,826328.72,826332,826329.24,829149.82,5,600,,
trial,html.Screen,10_33_0,2024-07-13T01:18:43.522Z,,,,1,-0.039728379742806,0.0228701131373768,,0.05,true,hh,1967.1800000000512,response,1.072671714258808,0.9869328063719334,-1.0801236223954676,1.0208498389771272,1.0228228685625402,-1.0650567179929058,high,high,,ISIC_0054073.JPG,3,ISIC_5218773.JPG,33,33,false,0.1,hh,keypress(i),0,false,831117,831117,829149.3,829152,829149.82,831118.02,5,600,34,
break,html.Screen,10_33_1,2024-07-13T01:18:43.524Z,,,,,,,,,,,NaN,,,,,,,,high,high,,,,,,,false,,,,,false,831119,831119,,831118,,831118.02,5,600,,
break_continue,html.Screen,10_33_2,2024-07-13T01:18:43.525Z,,,,,,,,,,,NaN,,,,,,,,high,high,,,,,,,false,,,,,false,831120,831120,,831119,,831118.02,5,600,,
sequence,flow.Sequence,10_33,2024-07-13T01:18:43.526Z,,,,,,,,,,,1970.1800000000512,completion,,,,,,,high,high,,,,,,,false,,,,,false,831120,831120,829149.3,829152,829149.82,831118.02,5,600,,
trial,html.Screen,10_34_0,2024-07-13T01:18:46.553Z,,,,1,0.0051189696037511,-0.0396625911332438,,0.05,false,hl,3028.9799999999814,response,0.8534691366511764,0.9869328063719334,-1.0801236223954676,-1.03975580494588,1.0228228685625402,-1.0650567179929058,high,low,,ISIC_9742891.JPG,9,ISIC_0056788.JPG,33,26,false,0.2300000000000001,ll,keypress(f),0,false,834148,834147,831117.54,831120,831118.02,834176.52,5,600,35,
break,html.Screen,10_34_1,2024-07-13T01:18:46.554Z,,,,,,,,,,,NaN,,,,,,,,high,low,,,,,,,false,,,,,false,834149,834149,,834148,,834176.52,5,600,,
break_continue,html.Screen,10_34_2,2024-07-13T01:18:46.555Z,,,,,,,,,,,NaN,,,,,,,,high,low,,,,,,,false,,,,,false,834150,834150,,834149,,834176.52,5,600,,
sequence,flow.Sequence,10_34,2024-07-13T01:18:46.556Z,,,,,,,,,,,3031.9799999999814,completion,,,,,,,high,low,,,,,,,false,,,,,false,834150,834150,831117.54,831120,831118.02,834176.52,5,600,,
trial,html.Screen,10_35_0,2024-07-13T01:18:50.180Z,,,,1,0.0113873532168551,0.0054999201556291,,0.05,true,ll,3597.4799999999814,response,-1.0678895386758027,0.9869328063719334,-1.0801236223954676,-1.0279759018569252,1.0228228685625402,-1.0650567179929058,low,low,,ISIC_8812621.JPG,13,ISIC_0069933.JPG,33,31,false,0.1,ll,keypress(f),0,false,837774,837774,834161.14,834150,834176.52,837775.12,5,600,36,
break,html.Screen,10_35_1,2024-07-13T01:18:50.180Z,,,,,,,,,,,NaN,,,,,,,,low,low,,,,,,,false,,,,,false,837776,837776,,837775,,837775.12,5,600,,
break_continue,html.Screen,10_35_2,2024-07-13T01:18:50.181Z,,,,,,,,,,,NaN,,,,,,,,low,low,,,,,,,false,,,,,false,837777,837777,,837776,,837775.12,5,600,,
sequence,flow.Sequence,10_35,2024-07-13T01:18:50.182Z,,,,,,,,,,,3600.4799999999814,completion,,,,,,,low,low,,,,,,,false,,,,,false,837777,837777,834161.14,834150,834176.52,837775.12,5,600,,
trial,html.Screen,10_36_0,2024-07-13T01:18:55.515Z,,,,1,0.0159061451859594,0.0296598845560212,,0.05,false,hh,5333.880000000005,response,1.0565911491759823,0.9869328063719334,-1.0801236223954676,1.0221582682700174,1.0228228685625402,-1.0650567179929058,high,high,,ISIC_0072564.JPG,1,ISIC_6604862.JPG,33,33,false,0.1,hl,keypress(j),0,false,843110,843109,837774.6,837777,837775.12,843110.16,5,600,37,
break,html.Screen,10_36_1,2024-07-13T01:18:55.516Z,,,,,,,,,,,NaN,,,,,,,,high,high,,,,,,,false,,,,,false,843111,843110,,843110,,843110.16,5,600,,
break_continue,html.Screen,10_36_2,2024-07-13T01:18:55.517Z,,,,,,,,,,,NaN,,,,,,,,high,high,,,,,,,false,,,,,false,843111,843111,,843111,,843110.16,5,600,,
sequence,flow.Sequence,10_36,2024-07-13T01:18:55.517Z,,,,,,,,,,,5335.880000000005,completion,,,,,,,high,high,,,,,,,false,,,,,false,843112,843111,837774.6,837777,837775.12,843110.16,5,600,,
trial,html.Screen,10_37_0,2024-07-13T01:18:58.289Z,,,,1,0.0245376145053177,-0.0436993426328401,,0.05,true,hh,2773.8399999999674,response,0.9607077625123552,0.9869328063719334,-1.0801236223954676,1.0682608339754711,1.0228228685625402,-1.0650567179929058,high,high,,ISIC_0056444.JPG,3,ISIC_0064763.JPG,33,33,false,0.1,hh,keypress(i),0,false,845885,845884,843109.66,843112,843110.16,845884.98,5,600,38,
break,html.Screen,10_37_1,2024-07-13T01:18:58.292Z,,,,,,,,,,,NaN,,,,,,,,high,high,,,,,,,false,,,,,false,845886,845885,,845885,,845884.98,5,600,,
break_continue,html.Screen,10_37_2,2024-07-13T01:18:58.292Z,,,,,,,,,,,NaN,,,,,,,,high,high,,,,,,,false,,,,,false,845887,845886,,845886,,845884.98,5,600,,
sequence,flow.Sequence,10_37,2024-07-13T01:18:58.293Z,,,,,,,,,,,2775.8399999999674,completion,,,,,,,high,high,,,,,,,false,,,,,false,845887,845886,843109.66,843112,843110.16,845884.98,5,600,,
trial,html.Screen,10_38_0,2024-07-13T01:19:04.379Z,,,,1,-0.0069555338059566,0.0310100918136373,,0.05,true,hh,6089.020000000019,response,0.9358725198038064,0.9869328063719334,-1.0801236223954676,0.9938776615596308,1.0228228685625402,-1.0650567179929058,high,high,,ISIC_0011177.JPG,12,ISIC_3365692.JPG,33,33,false,0.1,hh,keypress(i),0,false,851974,851974,845884.48,845887,845884.98,851974.82,5,600,39,
break,html.Screen,10_38_1,2024-07-13T01:19:04.380Z,,,,,,,,,,,NaN,,,,,,,,high,high,,,,,,,false,,,,,false,851975,851975,,851974,,851974.82,5,600,,
break_continue,html.Screen,10_38_2,2024-07-13T01:19:04.382Z,,,,,,,,,,,NaN,,,,,,,,high,high,,,,,,,false,,,,,false,851977,851976,,851976,,851974.82,5,600,,
sequence,flow.Sequence,10_38,2024-07-13T01:19:04.383Z,,,,,,,,,,,6091.020000000019,completion,,,,,,,high,high,,,,,,,false,,,,,false,851977,851976,845884.48,845887,845884.98,851974.82,5,600,,
trial,html.Screen,10_39_0,2024-07-13T01:19:12.325Z,,,,1,-0.0116094682222121,0.0258434522530318,,0.05,false,lh,7945.180000000051,response,-1.0164576835546473,0.9869328063719334,-1.0801236223954676,0.8120626538423016,1.0228228685625402,-1.0650567179929058,low,high,,ISIC_9239632.JPG,0,ISIC_6002694.JPG,33,29,false,0.30000000000000016,hl,keypress(j),0,false,859920,859920,851974.3,851978,851974.82,859920.48,5,600,40,
break,html.Screen,10_39_1,2024-07-13T01:19:12.326Z,,,,,,,,,,,NaN,,,,,,,,low,high,,,,,,,false,,,,,false,859921,859921,,859920,,859920.48,5,600,,
break_continue,html.Screen,10_39_2,2024-07-13T01:19:12.326Z,,,,,,,,,,,NaN,,,,,,,,low,high,,,,,,,false,,,,,false,859922,859922,,859921,,859920.48,5,600,,
sequence,flow.Sequence,10_39,2024-07-13T01:19:12.327Z,,,,,,,,,,,7947.180000000051,completion,,,,,,,low,high,,,,,,,false,,,,,false,859922,859922,851974.3,851977,851974.82,859920.48,5,600,,
trial,html.Screen,10_40_0,2024-07-13T01:19:14.912Z,,,,1,0.0245376145053177,-0.0436993426328401,,0.05,true,hh,2586.5200000000186,response,0.9949403898803344,0.9869328063719334,-1.0801236223954676,1.0036806409150678,1.0228228685625402,-1.0650567179929058,high,high,,ISIC_0056444.JPG,11,ISIC_0012450.JPG,33,33,false,0.1,hh,keypress(i),0,false,862508,862507,859919.98,859922,859920.48,862508.22,5,600,41,
break,html.Screen,10_40_1,2024-07-13T01:19:14.914Z,,,,,,,,,,,NaN,,,,,,,,high,high,,,,,,,false,,,,,false,862509,862509,,862508,,862508.22,5,600,,
break_continue,html.Screen,10_40_2,2024-07-13T01:19:14.915Z,,,,,,,,,,,NaN,,,,,,,,high,high,,,,,,,false,,,,,false,862510,862510,,862509,,862508.22,5,600,,
sequence,flow.Sequence,10_40,2024-07-13T01:19:14.915Z,,,,,,,,,,,2589.5200000000186,completion,,,,,,,high,high,,,,,,,false,,,,,false,862510,862510,859919.98,859922,859920.48,862508.22,5,600,,
trial,html.Screen,10_41_0,2024-07-13T01:19:21.404Z,,,,1,0.0097091270150747,-0.0417921315885292,,0.05,false,hh,6490.780000000028,response,1.0097932576366906,0.9869328063719334,-1.0801236223954676,1.0644834610939486,1.0228228685625402,-1.0650567179929058,high,high,,ISIC_3967213.JPG,16,ISIC_8559515.JPG,33,33,false,0.1,hl,keypress(j),0,false,869000,868999,862507.76,862511,862508.22,869000.34,5,600,42,
break,html.Screen,10_41_1,2024-07-13T01:19:21.406Z,,,,,,,,,,,NaN,,,,,,,,high,high,,,,,,,false,,,,,false,869002,869001,,869000,,869000.34,5,600,,
break_continue,html.Screen,10_41_2,2024-07-13T01:19:21.407Z,,,,,,,,,,,NaN,,,,,,,,high,high,,,,,,,false,,,,,false,869002,869002,,869002,,869000.34,5,600,,
sequence,flow.Sequence,10_41,2024-07-13T01:19:21.407Z,,,,,,,,,,,6493.780000000028,completion,,,,,,,high,high,,,,,,,false,,,,,false,869003,869002,862507.76,862511,862508.22,869000.34,5,600,,
trial,html.Screen,10_42_0,2024-07-13T01:19:23.969Z,,,,1,-0.0456515796420274,0.0273567130070961,,0.05,true,hh,2563.6600000000326,response,1.037577073517966,0.9869328063719334,-1.0801236223954676,1.027048110709042,1.0228228685625402,-1.0650567179929058,high,high,,ISIC_0068610.JPG,7,ISIC_0004932.JPG,33,33,false,0.1,hh,keypress(i),0,false,871564,871564,868999.86,869003,869000.34,871564.8,5,600,43,
break,html.Screen,10_42_1,2024-07-13T01:19:23.970Z,,,,,,,,,,,NaN,,,,,,,,high,high,,,,,,,false,,,,,false,871566,871565,,871564,,871564.8,5,600,,
break_continue,html.Screen,10_42_2,2024-07-13T01:19:23.971Z,,,,,,,,,,,NaN,,,,,,,,high,high,,,,,,,false,,,,,false,871566,871566,,871566,,871564.8,5,600,,
sequence,flow.Sequence,10_42,2024-07-13T01:19:23.971Z,,,,,,,,,,,2565.6600000000326,completion,,,,,,,high,high,,,,,,,false,,,,,false,871567,871566,868999.86,869003,869000.34,871564.8,5,600,,
trial,html.Screen,10_43_0,2024-07-13T01:19:31.332Z,,,,1,-0.0389988030702649,-0.0143212271490256,,0.05,false,hl,7362.199999999953,response,0.7784583866003763,0.9869328063719334,-1.0801236223954676,-0.9641514808986528,1.0228228685625402,-1.0650567179929058,high,low,,ISIC_0064669.JPG,8,ISIC_0011924.JPG,33,26,false,0.2300000000000001,hh,keypress(i),0,false,878927,878927,871564.24,871567,871564.8,878947.16,5,600,44,
break,html.Screen,10_43_1,2024-07-13T01:19:31.333Z,,,,,,,,,,,NaN,,,,,,,,high,low,,,,,,,false,,,,,false,878929,878929,,878928,,878947.16,5,600,,
break_continue,html.Screen,10_43_2,2024-07-13T01:19:31.334Z,,,,,,,,,,,NaN,,,,,,,,high,low,,,,,,,false,,,,,false,878930,878929,,878929,,878947.16,5,600,,
sequence,flow.Sequence,10_43,2024-07-13T01:19:31.334Z,,,,,,,,,,,7364.199999999953,completion,,,,,,,high,low,,,,,,,false,,,,,false,878930,878929,871564.24,871567,871564.8,878947.16,5,600,,
trial,html.Screen,10_44_0,2024-07-13T01:19:37.590Z,,,,1,-0.0107854985447517,-0.0478010417136109,,0.05,false,lh,6237.839999999967,response,-0.9235571765207048,0.9869328063719334,-1.0801236223954676,1.0008081653938232,1.0228228685625402,-1.0650567179929058,low,high,,ISIC_0010500.JPG,11,ISIC_8796632.JPG,33,29,false,0.30000000000000016,hh,keypress(i),0,false,885186,885185,878931.18,878930,878947.16,885186.14,5,600,45,
break,html.Screen,10_44_1,2024-07-13T01:19:37.591Z,,,,,,,,,,,NaN,,,,,,,,low,high,,,,,,,false,,,,,false,885187,885187,,885186,,885186.14,5,600,,
break_continue,html.Screen,10_44_2,2024-07-13T01:19:37.592Z,,,,,,,,,,,NaN,,,,,,,,low,high,,,,,,,false,,,,,false,885188,885188,,885187,,885186.14,5,600,,
sequence,flow.Sequence,10_44,2024-07-13T01:19:37.592Z,,,,,,,,,,,6240.839999999967,completion,,,,,,,low,high,,,,,,,false,,,,,false,885188,885188,878931.18,878930,878947.16,885186.14,5,600,,
trial,html.Screen,10_45_0,2024-07-13T01:19:41.450Z,,,,1,0.013431314305098,-0.0140597582944232,,0.05,false,lh,3859.859999999986,response,-0.9388660854518424,0.9869328063719334,-1.0801236223954676,0.79533948698576,1.0228228685625402,-1.0650567179929058,low,high,,ISIC_0069617.JPG,4,ISIC_9291926.JPG,33,29,false,0.30000000000000016,hl,keypress(j),0,false,889046,889046,885185.64,885188,885186.14,889047.12,5,600,46,
break,html.Screen,10_45_1,2024-07-13T01:19:41.452Z,,,,,,,,,,,NaN,,,,,,,,low,high,,,,,,,false,,,,,false,889047,889047,,889046,,889047.12,5,600,,
break_continue,html.Screen,10_45_2,2024-07-13T01:19:41.453Z,,,,,,,,,,,NaN,,,,,,,,low,high,,,,,,,false,,,,,false,889048,889048,,889048,,889047.12,5,600,,
sequence,flow.Sequence,10_45,2024-07-13T01:19:41.453Z,,,,,,,,,,,3861.859999999986,completion,,,,,,,low,high,,,,,,,false,,,,,false,889049,889048,885185.64,885188,885186.14,889047.12,5,600,,
trial,html.Screen,10_46_0,2024-07-13T01:19:44.174Z,,,,1,0.0134764727102299,0.0033499036460912,,0.05,true,hh,2721.8800000000047,response,0.9607077625123552,0.9869328063719334,-1.0801236223954676,1.0682608339754711,1.0228228685625402,-1.0650567179929058,high,high,,ISIC_0009998.JPG,10,ISIC_0064763.JPG,33,33,false,0.1,hh,keypress(i),0,false,891770,891769,889046.6,889049,889047.12,891771.08,5,600,47,
break,html.Screen,10_46_1,2024-07-13T01:19:44.176Z,,,,,,,,,,,NaN,,,,,,,,high,high,,,,,,,false,,,,,false,891772,891772,,891770,,891771.08,5,600,,
break_continue,html.Screen,10_46_2,2024-07-13T01:19:44.177Z,,,,,,,,,,,NaN,,,,,,,,high,high,,,,,,,false,,,,,false,891773,891773,,891772,,891771.08,5,600,,
sequence,flow.Sequence,10_46,2024-07-13T01:19:44.177Z,,,,,,,,,,,2725.8800000000047,completion,,,,,,,high,high,,,,,,,false,,,,,false,891773,891773,889046.6,889049,889047.12,891771.08,5,600,,
trial,html.Screen,10_47_0,2024-07-13T01:19:51.008Z,,,,1,0.000047919190197942736,0.0462652940855003,,0.05,false,ll,6831.920000000042,response,-1.1682648288591504,0.9869328063719334,-1.0801236223954676,-1.004142980655507,1.0228228685625402,-1.0650567179929058,low,low,,ISIC_0011507.JPG,6,ISIC_3936223.JPG,33,31,false,0.1,hl,keypress(j),0,false,898604,898603,891770.56,891773,891771.08,898603.96,5,600,48,
break,html.Screen,10_47_1,2024-07-13T01:19:51.009Z,,,,,,,,,,,NaN,,,,,,,,low,low,,,,,,,false,,,,,false,898605,898605,,898604,,898603.96,5,600,,
break_continue,html.Screen,10_47_2,2024-07-13T01:19:51.009Z,,,,,,,,,,,NaN,,,,,,,,low,low,,,,,,,false,,,,,false,898605,898605,,898605,,898603.96,5,600,,
sequence,flow.Sequence,10_47,2024-07-13T01:19:51.009Z,,,,,,,,,,,6833.920000000042,completion,,,,,,,low,low,,,,,,,false,,,,,false,898605,898605,891770.56,891773,891771.08,898603.96,5,600,,
trial,html.Screen,10_48_0,2024-07-13T01:19:55.758Z,,,,1,0.0134764727102299,0.0033499036460912,,0.05,false,hl,4749.040000000037,response,0.9579209317488,0.9869328063719334,-1.0801236223954676,-1.0147487101263497,1.0228228685625402,-1.0650567179929058,high,low,,ISIC_0009998.JPG,15,ISIC_8124482.JPG,33,26,false,0.2300000000000001,hh,keypress(i),0,false,903354,903353,898603.48,898605,898603.96,903354.38,5,600,49,
break,html.Screen,10_48_1,2024-07-13T01:19:55.760Z,,,,,,,,,,,NaN,,,,,,,,high,low,,,,,,,false,,,,,false,903355,903355,,903354,,903354.38,5,600,,
break_continue,html.Screen,10_48_2,2024-07-13T01:19:55.761Z,,,,,,,,,,,NaN,,,,,,,,high,low,,,,,,,false,,,,,false,903356,903356,,903355,,903354.38,5,600,,
sequence,flow.Sequence,10_48,2024-07-13T01:19:55.761Z,,,,,,,,,,,4752.040000000037,completion,,,,,,,high,low,,,,,,,false,,,,,false,903356,903356,898603.48,898605,898603.96,903354.38,5,600,,
trial,html.Screen,10_49_0,2024-07-13T01:20:02.122Z,,,,1,-0.0027483411352856,-0.0100996915276271,,0.05,true,lh,6362.619999999995,response,-1.0164576835546473,0.9869328063719334,-1.0801236223954676,0.8120626538423016,1.0228228685625402,-1.0650567179929058,low,high,,ISIC_7364041.JPG,6,ISIC_6002694.JPG,33,29,false,0.30000000000000016,lh,keypress(e),0,false,909717,909717,903353.88,903356,903354.38,909718.7,5,600,50,
break,html.Screen,10_49_1,2024-07-13T01:20:02.124Z,,,,,,,,,,,NaN,,,,,,,,low,high,,,,,,,false,,,,,false,909719,909719,,909718,,909718.7,5,600,,
break_continue,html.Screen,10_49_2,2024-07-13T01:20:02.125Z,,,,,,,,,,,NaN,,,,,,,,low,high,,,,,,,false,,,,,false,909720,909720,,909719,,909718.7,5,600,,
sequence,flow.Sequence,10_49,2024-07-13T01:20:02.125Z,,,,,,,,,,,6365.619999999995,completion,,,,,,,low,high,,,,,,,false,,,,,false,909720,909720,903353.88,903356,903354.38,909718.7,5,600,,
