sender,sender_type,sender_id,timestamp,meta,,age,blockNo,c1,c2,condition,control_tolerance,correct,correctResponse,duration,ended_on,f1,f1_high,f1_low,f2,f2_high,f2_low,feature_level1,feature_level2,gender,img_left,img_reveal,img_right,n_control_images,n_target_images,practice,range_tolerance,response,response_action,selection_duration,staircase,time_commit,time_end,time_render,time_run,time_show,time_switch,total_blocks,total_trials,trialNo,url
informed_consent,html.Screen,0,2024-03-19T19:58:37.479Z,"{""labjs_version"":""20.2.4"",""labjs_build"":{""flavor"":""development"",""commit"":""f5b4a49f956347addd546a832a3327688c2c0fef""},""location"":""https://labjs.felixhenninger.com/api/labjs_preview/index.html"",""userAgent"":""Mozilla/5.0 (Windows NT 10.0; Win64; x64) AppleWebKit/537.36 (KHTML, like Gecko) Chrome/122.0.0.0 Safari/537.36"",""platform"":""Win32"",""language"":""en-US"",""locale"":""en-US"",""timeZone"":""America/Chicago"",""timezoneOffset"":300,""screen_width"":1920,""screen_height"":1080,""scroll_width"":945,""scroll_height"":918,""window_innerWidth"":945,""window_innerHeight"":966,""devicePixelRatio"":1}",,,,,,,,,,84243.70000014306,response,,,,,,,,,,,,,,,,,consent,click button,,,85491.90000009537,85482.10000014305,1221.6,1454.7000000476837,1238.4,85255.3,,,,{}
Demography form,html.Form,1,2024-03-19T19:58:45.160Z,,,18,,,,,,,,7916.699999999997,form submission,,,,,,,,,female,,,,,,,,,,,,93172.20000004768,93172,85255.064,85492.20000004768,85255.3,93005.526,,,,
Welcome,html.Screen,2,2024-03-19T19:59:11.238Z,,,,,,,"[""asym"",""col""]",,,,26244.674000047686,response,,,,,,,,,,,,,,,,,continue,click button,,,119250.79999995232,119250.20000004768,93005.526,93172.20000004768,93005.526,119021.3,,,,
demo_instructions,html.Screen,3,2024-03-19T19:59:47.496Z,,,,,,,,,,,36484.80000014305,response,,,,,,,,,,,,,,,,,continue,click button,,,155506.79999995232,155506.10000014305,119004.712,119250.90000009537,119021.3,155287.328,,,,
trial,html.Screen,4_0_0,2024-03-19T19:59:58.930Z,,,,0,-1.1783311757907324,-1.266840220031473,,,true,hh,11653.471999952308,response,1.0878102877901663,1.2,-1.2,1.3154097543539391,1.2,-1.2,high,high,,ISIC_8241457.JPG,,ISIC_1413242.JPG,,25,true,0.15000000000000002,hh,keypress(i),100,false,166941.29999995232,166940.79999995232,155287.328,155507,155287.328,166722.084,1,16,1,
sequence,flow.Sequence,4_0,2024-03-19T19:59:58.948Z,,,,,,,,,,,11653.471999952308,completion,,,,,,,high,high,,,,,,,true,,,,,false,166958.40000009537,166940.79999995232,155287.328,155507,155287.328,166722.084,1,16,,
trial,html.Screen,4_1_0,2024-03-19T20:00:01.821Z,,,,0,-1.1711612520017805,-1.191169949562454,,,true,hh,3109.616000047681,response,1.3471772753257971,1.2,-1.2,1.055978100098093,1.2,-1.2,high,high,,ISIC_0061936.JPG,,ISIC_2077116.JPG,,25,true,0.15000000000000002,hh,keypress(i),100,false,169831.90000009537,169831.70000004768,166722.084,166958.5,166722.084,169622,1,16,2,
sequence,flow.Sequence,4_1,2024-03-19T20:00:01.821Z,,,,,,,,,,,3109.616000047681,completion,,,,,,,high,high,,,,,,,true,,,,,false,169832.20000004768,169831.70000004768,166722.084,166958.5,166722.084,169622,1,16,,
trial,html.Screen,4_2_0,2024-03-19T20:00:07.674Z,,,,0,-1.2232482867978696,-1.2451219760556858,,,true,hh,6063.100000143051,response,1.0878102877901663,1.2,-1.2,1.3154097543539391,1.2,-1.2,high,high,,ISIC_0030889.JPG,,ISIC_1413242.JPG,,25,true,0.15000000000000002,hh,keypress(i),100,false,175685.29999995232,175685.10000014305,169605.494,169832.5,169622,175471.8,1,16,3,
sequence,flow.Sequence,4_2,2024-03-19T20:00:07.675Z,,,,,,,,,,,6063.100000143051,completion,,,,,,,high,high,,,,,,,true,,,,,false,175685.5,175685.10000014305,169605.494,169832.40000009537,169622,175471.8,1,16,,
trial,html.Screen,4_3_0,2024-03-19T20:00:12.916Z,,,,0,-1.2232482867978696,-1.2451219760556858,,,true,hh,5455.300000143063,response,1.1168199061753437,1.2,-1.2,1.212287319329914,1.2,-1.2,high,high,,ISIC_0030889.JPG,,ISIC_5919355.JPG,,25,true,0.15000000000000002,hh,keypress(i),100,false,180927.29999995232,180927.10000014305,175455.336,175685.60000014305,175471.8,180705.1,1,16,4,
sequence,flow.Sequence,4_3,2024-03-19T20:00:12.917Z,,,,,,,,,,,5455.300000143063,completion,,,,,,,high,high,,,,,,,true,,,,,false,180927.5,180927.10000014305,175455.336,175685.5,175471.8,180705.1,1,16,,
trial,html.Screen,4_4_0,2024-03-19T20:00:19.954Z,,,,0,1.1604734171556077,1.0789312625280616,,,true,ll,7259.399999999994,response,-1.250220052739973,1.2,-1.2,-1.2967258992731714,1.2,-1.2,low,low,,ISIC_3950753.JPG,,ISIC_0031368.JPG,,27,true,0.12,ll,keypress(f),100,false,187964.70000004768,187964.5,180688.546,180927.60000014305,180705.1,187755.1,1,16,5,
sequence,flow.Sequence,4_4,2024-03-19T20:00:19.954Z,,,,,,,,,,,7259.399999999994,completion,,,,,,,low,low,,,,,,,true,,,,,false,187964.90000009537,187964.5,180688.546,180927.60000014305,180705.1,187755.1,1,16,,
trial,html.Screen,4_5_0,2024-03-19T20:00:25.516Z,,,,0,1.301795918505203,1.0518606632781424,,,true,ll,5771.6999999523105,response,-1.2015106101917423,1.2,-1.2,-1.3393124611420348,1.2,-1.2,low,low,,ISIC_0027666.JPG,,ISIC_0072496.JPG,,41,true,0.15000000000000002,ll,keypress(f),100,false,193527.10000014305,193526.79999995232,187738.754,187965,187755.1,193305.4,1,16,6,
sequence,flow.Sequence,4_5,2024-03-19T20:00:25.517Z,,,,,,,,,,,5771.6999999523105,completion,,,,,,,low,low,,,,,,,true,,,,,false,193527.70000004768,193526.79999995232,187738.754,187964.90000009537,187755.1,193305.4,1,16,,
trial,html.Screen,4_6_0,2024-03-19T20:00:31.958Z,,,,0,1.0581281450494728,1.133169116569424,,,true,ll,6663.200000143057,response,-1.1894733304494307,1.2,-1.2,-1.1169761866204877,1.2,-1.2,low,low,,ISIC_5490352.JPG,,ISIC_0033813.JPG,,41,true,0.15000000000000002,ll,keypress(f),100,false,199968.90000009537,199968.60000014305,193305.398,193527.90000009537,193305.4,199755.4,1,16,7,
sequence,flow.Sequence,4_6,2024-03-19T20:00:31.959Z,,,,,,,,,,,6663.200000143057,completion,,,,,,,low,low,,,,,,,true,,,,,false,199969.5,199968.60000014305,193305.398,193527.79999995232,193305.4,199755.4,1,16,,
trial,html.Screen,4_7_0,2024-03-19T20:00:35.323Z,,,,0,1.1655508270784471,1.1162776063248168,,,true,ll,3578.0000000953733,response,-1.238264833797662,1.2,-1.2,-1.176099940770289,1.2,-1.2,low,low,,ISIC_5509946.JPG,,ISIC_0032861.JPG,,41,true,0.15000000000000002,ll,keypress(f),100,false,203333.79999995232,203333.40000009537,199738.794,199969.79999995232,199755.4,203138.828,1,16,8,
sequence,flow.Sequence,4_7,2024-03-19T20:00:35.324Z,,,,,,,,,,,3578.0000000953733,completion,,,,,,,low,low,,,,,,,true,,,,,false,203334.60000014305,203333.40000009537,199738.794,199969.70000004768,199755.4,203138.828,1,16,,
trial,html.Screen,4_8_0,2024-03-19T20:00:43.145Z,,,,0,0.8479396253253069,-1.011054319516718,,,true,lh,8016.372000047675,response,-1.2043484010107477,1.2,-1.2,1.2178113180138233,1.2,-1.2,low,high,,ISIC_0063521.JPG,,ISIC_0011917.JPG,,26,true,0.3300000000000002,lh,keypress(e),100,false,211155.29999995232,211155.20000004768,203138.828,203335,203138.828,210938.82,1,16,9,
sequence,flow.Sequence,4_8,2024-03-19T20:00:43.145Z,,,,,,,,,,,8016.372000047675,completion,,,,,,,low,high,,,,,,,true,,,,,false,211155.60000014305,211155.20000004768,203138.828,203334.79999995232,203138.828,210938.82,1,16,,
trial,html.Screen,4_9_0,2024-03-19T20:00:48.235Z,,,,0,0.849847885203758,-0.973447384095442,,,true,lh,5305.280000143044,response,-0.9566823908868002,1.2,-1.2,0.9602125665128364,1.2,-1.2,low,high,,ISIC_9612228.JPG,,ISIC_0056784.JPG,,33,true,0.3600000000000002,lh,keypress(e),100,false,216244.40000009537,216244.10000014305,210938.82,211155.70000004768,210938.82,216038.78,1,16,10,
sequence,flow.Sequence,4_9,2024-03-19T20:00:48.236Z,,,,,,,,,,,5305.280000143044,completion,,,,,,,low,high,,,,,,,true,,,,,false,216244.79999995232,216244.10000014305,210938.82,211155.70000004768,210938.82,216038.78,1,16,,
trial,html.Screen,4_10_0,2024-03-19T20:00:52.247Z,,,,0,1.2615315960773072,-1.194084675079932,,,true,lh,4217.019999952317,response,-0.887838744955182,1.2,-1.2,1.3716210719758812,1.2,-1.2,low,high,,ISIC_0010044.JPG,,ISIC_1488727.JPG,,33,true,0.3600000000000002,lh,keypress(e),100,false,220256.10000014305,220255.79999995232,216038.78,216245,216038.78,220038.8,1,16,11,
sequence,flow.Sequence,4_10,2024-03-19T20:00:52.247Z,,,,,,,,,,,4217.019999952317,completion,,,,,,,low,high,,,,,,,true,,,,,false,220256.70000004768,220255.79999995232,216038.78,216245,216038.78,220038.8,1,16,,
trial,html.Screen,4_11_0,2024-03-19T20:00:59.944Z,,,,0,1.11329866545753,-1.2155631217348757,,,true,lh,7914.200000000012,response,-1.0264463986917702,1.2,-1.2,1.171271535505083,1.2,-1.2,low,high,,ISIC_0032610.JPG,,ISIC_7889838.JPG,,33,true,0.3600000000000002,lh,keypress(e),100,false,227953.40000009537,227953,220038.77,220257,220038.8,227738.788,1,16,12,
sequence,flow.Sequence,4_11,2024-03-19T20:00:59.945Z,,,,,,,,,,,7914.200000000012,completion,,,,,,,low,high,,,,,,,true,,,,,false,227954,227953,220038.77,220256.90000009537,220038.8,227738.788,1,16,,
trial,html.Screen,4_12_0,2024-03-19T20:01:11.585Z,,,,0,-1.1592423187534993,1.067128884093211,,,true,hl,11855.612000095367,response,1.3515962101204746,1.2,-1.2,-0.8414583575292955,1.2,-1.2,high,low,,ISIC_6854940.JPG,,ISIC_0274382.JPG,,29,true,0.3600000000000002,hl,keypress(j),100,false,239594.70000004768,239594.40000009537,227738.788,227954.29999995232,227738.788,239372.13,1,16,13,
sequence,flow.Sequence,4_12,2024-03-19T20:01:11.586Z,,,,,,,,,,,11855.612000095367,completion,,,,,,,high,low,,,,,,,true,,,,,false,239595.40000009537,239594.40000009537,227738.788,227954.20000004768,227738.788,239372.13,1,16,,
trial,html.Screen,4_13_0,2024-03-19T20:01:31.938Z,,,,0,-1.1547137855907486,1.0185275168641534,,,true,hl,20574.66999995231,response,1.225025174430573,1.2,-1.2,-0.8422679054456499,1.2,-1.2,high,low,,ISIC_7604870.JPG,,ISIC_7503950.JPG,,29,true,0.3600000000000002,hl,keypress(j),100,false,259947.10000014305,259946.79999995232,239372.13,239595.60000014305,239372.13,259722.15,1,16,14,
sequence,flow.Sequence,4_13,2024-03-19T20:01:31.939Z,,,,,,,,,,,20574.66999995231,completion,,,,,,,high,low,,,,,,,true,,,,,false,259947.90000009537,259946.79999995232,239372.13,239595.5,239372.13,259722.15,1,16,,
trial,html.Screen,4_14_0,2024-03-19T20:01:38.081Z,,,,0,-1.0822170028935367,1.1654796154432183,,,true,hl,6367.950000143057,response,0.9013888878932071,1.2,-1.2,-0.9328095253308732,1.2,-1.2,high,low,,ISIC_7288818.JPG,,ISIC_0068259.JPG,,29,true,0.3600000000000002,hl,keypress(j),100,false,266090.40000009537,266090.10000014305,259722.15,259948.10000014305,259722.15,265872.19,1,16,15,
sequence,flow.Sequence,4_14,2024-03-19T20:01:38.082Z,,,,,,,,,,,6367.950000143057,completion,,,,,,,high,low,,,,,,,true,,,,,false,266091,266090.10000014305,259722.15,259948,259722.15,265872.19,1,16,,
trial,html.Screen,4_15_0,2024-03-19T20:01:40.708Z,,,,0,-0.9212323139676136,0.9882196642247332,,,true,hl,2844.3099999999977,response,1.11329866545753,1.2,-1.2,-1.2155631217348757,1.2,-1.2,high,low,,ISIC_0014255.JPG,,ISIC_0032610.JPG,,29,true,0.3600000000000002,hl,keypress(j),100,false,268716.7999999523,268716.5,265872.19,266091.2000000477,265872.19,268505.4,1,16,16,
sequence,flow.Sequence,4_15,2024-03-19T20:01:40.708Z,,,,,,,,,,,2844.3099999999977,completion,,,,,,,high,low,,,,,,,true,,,,,false,268717.2999999523,268716.5,265872.19,266091.10000014305,265872.19,268505.4,1,16,,
demonstration_loop,flow.Loop,4,2024-03-19T20:01:40.709Z,,,,,,,,,,,113429.17199999999,completion,,,,,,,,,,,,,,,true,,,,,false,268717.90000009537,268716.5,155287.328,155507,155287.328,268505.4,1,16,,
practice_instructions,html.Screen,5,2024-03-19T20:01:45.770Z,,,,,,,,,,,5264.700000143028,response,,,,,,,,,,,,,,,,,continue,click button,,,273779.10000014305,273770.10000014305,268488.88,268718.2000000477,268505.4,273539.078,,,,
trial,html.Screen,6_0_0,2024-03-19T20:01:57.148Z,,,,1,1.0959058628476686,1.2921331918483707,,,true,ll,11607.522000143072,response,-1.1783311757907324,1.2,-1.2,-1.266840220031473,1.2,-1.2,low,low,,ISIC_5920470.JPG,,ISIC_8241457.JPG,,27,true,0.12,ll,keypress(f),0,false,285155.7999999523,285146.60000014305,273539.078,273779.2000000477,273539.078,284938.3,1,40,1,
sequence,flow.Sequence,6_0,2024-03-19T20:01:57.148Z,,,,,,,,,,,11607.522000143072,completion,,,,,,,low,low,,,,,,,true,,,,,false,285156,285146.60000014305,273539.078,273779.2000000477,273539.078,284938.3,1,40,,
trial,html.Screen,6_1_0,2024-03-19T20:02:01.468Z,,,,1,1.1217390688497193,1.2276600934505035,,,true,ll,4537.200000000012,response,-1.2040551955011098,1.2,-1.2,-1.2664651062241792,1.2,-1.2,low,low,,ISIC_0026344.JPG,,ISIC_0068886.JPG,,41,true,0.15000000000000002,ll,keypress(f),0,false,289475.7999999523,289475.5,284921.956,285156.10000014305,284938.3,289238.534,1,40,2,
sequence,flow.Sequence,6_1,2024-03-19T20:02:01.468Z,,,,,,,,,,,4537.200000000012,completion,,,,,,,low,low,,,,,,,true,,,,,false,289476.2999999523,289475.5,284921.956,285156,284938.3,289238.534,1,40,,
trial,html.Screen,6_2_0,2024-03-19T20:02:10.268Z,,,,1,1.1990772227054871,1.1224329926844498,,,false,ll,9037.166000047699,response,-1.0698162624196283,1.2,-1.2,-1.0648460966097275,1.2,-1.2,low,low,,ISIC_3425388.JPG,,ISIC_0030552.JPG,,41,true,0.15000000000000002,lh,keypress(e),0,false,298276,298275.7000000477,289238.534,289476.40000009537,289238.534,298038.488,1,40,3,
sequence,flow.Sequence,6_2,2024-03-19T20:02:10.269Z,,,,,,,,,,,9037.166000047699,completion,,,,,,,low,low,,,,,,,true,,,,,false,298276.40000009537,298275.7000000477,289238.534,289476.40000009537,289238.534,298038.488,1,40,,
trial,html.Screen,6_3_0,2024-03-19T20:02:12.812Z,,,,1,1.1638334638021437,1.0846635401396965,,,true,ll,2781.011999999988,response,-1.2435042401134029,1.2,-1.2,-1.2939710463315144,1.2,-1.2,low,low,,ISIC_4718313.JPG,,ISIC_0056119.JPG,,41,true,0.15000000000000002,ll,keypress(f),0,false,300819.90000009537,300819.5,298038.488,298276.60000014305,298038.488,300621.9,1,40,4,
sequence,flow.Sequence,6_3,2024-03-19T20:02:12.813Z,,,,,,,,,,,2781.011999999988,completion,,,,,,,low,low,,,,,,,true,,,,,false,300820.5,300819.5,298038.488,298276.60000014305,298038.488,300621.9,1,40,,
trial,html.Screen,6_4_0,2024-03-19T20:02:19.420Z,,,,1,-0.9448560599810628,0.9099421612683488,,,true,hl,6805.599999999977,response,1.2838089642212804,1.2,-1.2,-0.8550527900640753,1.2,-1.2,high,low,,ISIC_9684318.JPG,,ISIC_0034187.JPG,,29,true,0.3600000000000002,hl,keypress(j),0,false,307427.7999999523,307427.5,300605.194,300820.7000000477,300621.9,307205.3,1,40,5,
sequence,flow.Sequence,6_4,2024-03-19T20:02:19.420Z,,,,,,,,,,,6805.599999999977,completion,,,,,,,high,low,,,,,,,true,,,,,false,307428.2000000477,307427.5,300605.194,300820.60000014305,300621.9,307205.3,1,40,,
trial,html.Screen,6_5_0,2024-03-19T20:02:34.284Z,,,,1,0.8591294258188253,-0.870797302150167,,,false,lh,15086.499999952328,response,-1.2609895831255231,1.2,-1.2,1.0687377724194886,1.2,-1.2,low,high,,ISIC_0055841.JPG,,ISIC_1367610.JPG,,26,true,0.3300000000000002,ll,keypress(f),0,false,322292.10000014305,322291.7999999523,307205.3,307428.40000009537,307205.3,322054.9,1,40,6,
sequence,flow.Sequence,6_5,2024-03-19T20:02:34.285Z,,,,,,,,,,,15086.499999952328,completion,,,,,,,low,high,,,,,,,true,,,,,false,322292.5,322291.7999999523,307205.3,307428.2999999523,307205.3,322054.9,1,40,,
trial,html.Screen,6_6_0,2024-03-19T20:02:38.044Z,,,,1,-1.189469386514313,-1.3008582067137853,,,true,hh,3996.5999999999767,response,1.4415613061437007,1.2,-1.2,1.271445950850942,1.2,-1.2,high,high,,ISIC_0010644.JPG,,ISIC_4863784.JPG,,157,true,0.3600000000000002,hh,keypress(i),0,false,326051.7999999523,326051.5,322054.846,322292.7000000477,322054.9,325838.722,1,40,7,
sequence,flow.Sequence,6_6,2024-03-19T20:02:38.044Z,,,,,,,,,,,3996.5999999999767,completion,,,,,,,high,high,,,,,,,true,,,,,false,326052.2000000477,326051.5,322054.846,322292.7000000477,322054.9,325838.722,1,40,,
trial,html.Screen,6_7_0,2024-03-19T20:02:43.324Z,,,,1,0.9013888878932071,-0.9328095253308732,,,false,lh,5492.777999999991,response,-1.2609895831255231,1.2,-1.2,1.0687377724194886,1.2,-1.2,low,high,,ISIC_0068259.JPG,,ISIC_1367610.JPG,,26,true,0.3300000000000002,hh,keypress(i),0,false,331331.7999999523,331331.5,325838.722,326052.40000009537,325838.722,331105.3,1,40,8,
sequence,flow.Sequence,6_7,2024-03-19T20:02:43.324Z,,,,,,,,,,,5492.777999999991,completion,,,,,,,low,high,,,,,,,true,,,,,false,331332.2000000477,331331.5,325838.722,326052.2999999523,325838.722,331105.3,1,40,,
trial,html.Screen,6_8_0,2024-03-19T20:02:48.205Z,,,,1,-1.2704198237183777,1.138121072015301,,,false,hl,5106.499999952328,response,1.1235224875125256,1.2,-1.2,-0.8641223012137988,1.2,-1.2,high,low,,ISIC_0501843.JPG,,ISIC_0033901.JPG,,29,true,0.3600000000000002,ll,keypress(f),0,false,336212,336211.7999999523,331105.22,331332.40000009537,331105.3,335988.6,1,40,9,
sequence,flow.Sequence,6_8,2024-03-19T20:02:48.206Z,,,,,,,,,,,5106.499999952328,completion,,,,,,,high,low,,,,,,,true,,,,,false,336212.40000009537,336211.7999999523,331105.22,331332.2999999523,331105.3,335988.6,1,40,,
trial,html.Screen,6_9_0,2024-03-19T20:02:51.069Z,,,,1,-1.1671212908494544,-1.1286681796701683,,,true,hh,3086.8000000953907,response,0.9487751044258608,1.2,-1.2,0.9230722071334148,1.2,-1.2,high,high,,ISIC_0065022.JPG,,ISIC_4568084.JPG,,127,true,0.3300000000000002,hh,keypress(i),0,false,339075.7000000477,339075.40000009537,335972.246,336212.7000000477,335988.6,338872.224,1,40,10,
sequence,flow.Sequence,6_9,2024-03-19T20:02:51.069Z,,,,,,,,,,,3086.8000000953907,completion,,,,,,,high,high,,,,,,,true,,,,,false,339076.10000014305,339075.40000009537,335972.246,336212.60000014305,335988.6,338872.224,1,40,,
trial,html.Screen,6_10_0,2024-03-19T20:02:57.181Z,,,,1,-0.9873794329144926,0.9500689037516484,,,true,hl,6315.17600009538,response,1.064425982109969,1.2,-1.2,-0.958564243697126,1.2,-1.2,high,low,,ISIC_0013498.JPG,,ISIC_3203344.JPG,,29,true,0.3600000000000002,hl,keypress(j),0,false,345187.7999999523,345187.40000009537,338872.224,339076.2999999523,338872.224,344972,1,40,11,
sequence,flow.Sequence,6_10,2024-03-19T20:02:57.182Z,,,,,,,,,,,6315.17600009538,completion,,,,,,,high,low,,,,,,,true,,,,,false,345188.2999999523,345187.40000009537,338872.224,339076.2000000477,338872.224,344972,1,40,,
trial,html.Screen,6_11_0,2024-03-19T20:03:02.429Z,,,,1,-1.055319394932912,1.409116680310466,,,false,hl,5463.700000047684,response,0.9385447468573198,1.2,-1.2,-1.2289860846064424,1.2,-1.2,high,low,,ISIC_6398669.JPG,,ISIC_0032780.JPG,,29,true,0.3600000000000002,hh,keypress(i),0,false,350436.10000014305,350435.7000000477,344971.98,345188.40000009537,344972,350205.3,1,40,12,
sequence,flow.Sequence,6_11,2024-03-19T20:03:02.430Z,,,,,,,,,,,5463.700000047684,completion,,,,,,,high,low,,,,,,,true,,,,,false,350436.40000009537,350435.7000000477,344971.98,345188.2999999523,344972,350205.3,1,40,,
trial,html.Screen,6_12_0,2024-03-19T20:03:07.869Z,,,,1,1.1510001454240106,1.132540312667795,,,true,ll,5669.999999952328,response,-1.0884048535189497,1.2,-1.2,-0.8993771458752091,1.2,-1.2,low,low,,ISIC_0009959.JPG,,ISIC_4564960.JPG,,211,true,0.3300000000000002,ll,keypress(f),0,false,355875.7000000477,355875.2999999523,350188.798,350436.7999999523,350205.3,355671.8,1,40,13,
sequence,flow.Sequence,6_12,2024-03-19T20:03:07.869Z,,,,,,,,,,,5669.999999952328,completion,,,,,,,low,low,,,,,,,true,,,,,false,355876.10000014305,355875.2999999523,350188.798,350436.7000000477,350205.3,355671.8,1,40,,
trial,html.Screen,6_13_0,2024-03-19T20:03:17.533Z,,,,1,0.8479396253253069,-1.011054319516718,,,false,lh,9867.300000143063,response,-1.0822170028935367,1.2,-1.2,1.1654796154432183,1.2,-1.2,low,high,,ISIC_0063521.JPG,,ISIC_7288818.JPG,,26,true,0.3300000000000002,ll,keypress(f),0,false,365539.2999999523,365539.10000014305,355671.788,355876.2000000477,355671.8,365305.3,1,40,14,
sequence,flow.Sequence,6_13,2024-03-19T20:03:17.533Z,,,,,,,,,,,9867.300000143063,completion,,,,,,,low,high,,,,,,,true,,,,,false,365539.60000014305,365539.10000014305,355671.788,355876.2000000477,355671.8,365305.3,1,40,,
trial,html.Screen,6_14_0,2024-03-19T20:03:20.124Z,,,,1,-1.3034518282811869,-1.0897657776277234,,,true,hh,2825.2000000000116,response,0.9908691524573628,1.2,-1.2,1.300224660339869,1.2,-1.2,high,high,,ISIC_0071988.JPG,,ISIC_2105563.JPG,,157,true,0.3600000000000002,hh,keypress(i),0,false,368130.60000014305,368130.5,365288.612,365539.7000000477,365305.3,367905.4,1,40,15,
sequence,flow.Sequence,6_14,2024-03-19T20:03:20.124Z,,,,,,,,,,,2825.2000000000116,completion,,,,,,,high,high,,,,,,,true,,,,,false,368130.7000000477,368130.5,365288.612,365539.7000000477,365305.3,367905.4,1,40,,
trial,html.Screen,6_15_0,2024-03-19T20:03:22.525Z,,,,1,-1.1126049058422398,-1.2305421124063929,,,true,hh,2626.200000143028,response,1.3471772753257971,1.2,-1.2,1.055978100098093,1.2,-1.2,high,high,,ISIC_0071536.JPG,,ISIC_2077116.JPG,,25,true,0.15000000000000002,hh,keypress(i),0,false,370531.90000009537,370531.60000014305,367888.77,368130.7000000477,367905.4,370305.3,1,40,16,
sequence,flow.Sequence,6_15,2024-03-19T20:03:22.526Z,,,,,,,,,,,2626.200000143028,completion,,,,,,,high,high,,,,,,,true,,,,,false,370532.40000009537,370531.60000014305,367888.77,368130.7000000477,367905.4,370305.3,1,40,,
trial,html.Screen,6_16_0,2024-03-19T20:03:26.301Z,,,,1,-1.2315945866020412,-1.13226141421557,,,true,hh,4001.9000000476954,response,1.1642596483638106,1.2,-1.2,1.091507924157762,1.2,-1.2,high,high,,ISIC_0033595.JPG,,ISIC_0765584.JPG,,25,true,0.15000000000000002,hh,keypress(i),0,false,374307.60000014305,374307.2000000477,370288.7,370532.60000014305,370305.3,374105.288,1,40,17,
sequence,flow.Sequence,6_16,2024-03-19T20:03:26.301Z,,,,,,,,,,,4001.9000000476954,completion,,,,,,,high,high,,,,,,,true,,,,,false,374308,374307.2000000477,370288.7,370532.60000014305,370305.3,374105.288,1,40,,
trial,html.Screen,6_17_0,2024-03-19T20:03:36.846Z,,,,1,0.9039158082670506,-1.0517562064343149,,,true,lh,10746.612000095367,response,-1.055319394932912,1.2,-1.2,1.409116680310466,1.2,-1.2,low,high,,ISIC_0015411.JPG,,ISIC_6398669.JPG,,26,true,0.3300000000000002,lh,keypress(e),0,false,384852.10000014305,384851.90000009537,374105.288,374308.2000000477,374105.288,384621.886,1,40,18,
sequence,flow.Sequence,6_17,2024-03-19T20:03:36.846Z,,,,,,,,,,,10746.612000095367,completion,,,,,,,low,high,,,,,,,true,,,,,false,384852.60000014305,384851.90000009537,374105.288,374308.10000014305,374105.288,384621.886,1,40,,
trial,html.Screen,6_18_0,2024-03-19T20:03:41.309Z,,,,1,1.4727776799485246,-0.8779113138076752,,,true,lh,4693.514000095369,response,-0.9873794329144926,1.2,-1.2,0.9500689037516484,1.2,-1.2,low,high,,ISIC_0033074.JPG,,ISIC_0013498.JPG,,33,true,0.3600000000000002,lh,keypress(e),0,false,389315.60000014305,389315.40000009537,384621.886,384852.7999999523,384621.886,389088.762,1,40,19,
sequence,flow.Sequence,6_18,2024-03-19T20:03:41.309Z,,,,,,,,,,,4693.514000095369,completion,,,,,,,low,high,,,,,,,true,,,,,false,389316,389315.40000009537,384621.886,384852.7999999523,384621.886,389088.762,1,40,,
trial,html.Screen,6_19_0,2024-03-19T20:03:48.303Z,,,,1,-1.0961318727760048,1.2134960228256146,,,false,hl,7219.037999952328,response,0.8494721812820843,1.2,-1.2,-1.3435429139974266,1.2,-1.2,high,low,,ISIC_9768421.JPG,,ISIC_0033585.JPG,,29,true,0.3600000000000002,ll,keypress(f),0,false,396308.10000014305,396307.7999999523,389088.762,389316.2000000477,389088.762,396088.494,1,40,20,
sequence,flow.Sequence,6_19,2024-03-19T20:03:48.303Z,,,,,,,,,,,7219.037999952328,completion,,,,,,,high,low,,,,,,,true,,,,,false,396308.5,396307.7999999523,389088.762,389316.2000000477,389088.762,396088.494,1,40,,
trial,html.Screen,6_20_0,2024-03-19T20:03:57.150Z,,,,1,-0.9670240379618178,1.1806404773220665,,,false,hl,9066.80599995231,response,1.225025174430573,1.2,-1.2,-0.8422679054456499,1.2,-1.2,high,low,,ISIC_0002288.JPG,,ISIC_7503950.JPG,,29,true,0.3600000000000002,hh,keypress(i),0,false,405155.60000014305,405155.2999999523,396088.494,396308.7000000477,396088.494,404921.82,1,40,21,
sequence,flow.Sequence,6_20,2024-03-19T20:03:57.151Z,,,,,,,,,,,9066.80599995231,completion,,,,,,,high,low,,,,,,,true,,,,,false,405156.10000014305,405155.2999999523,396088.494,396308.60000014305,396088.494,404921.82,1,40,,
trial,html.Screen,6_21_0,2024-03-19T20:04:01.759Z,,,,1,1.1642596483638106,1.091507924157762,,,true,ll,4841.979999952309,response,-1.4402216691517862,1.2,-1.2,-1.0868993165463106,1.2,-1.2,low,low,,ISIC_0765584.JPG,,ISIC_0011268.JPG,,211,true,0.3300000000000002,ll,keypress(f),0,false,409764.10000014305,409763.7999999523,404921.82,405156.2000000477,404921.82,409538.7,1,40,22,
sequence,flow.Sequence,6_21,2024-03-19T20:04:01.759Z,,,,,,,,,,,4841.979999952309,completion,,,,,,,low,low,,,,,,,true,,,,,false,409764.5,409763.7999999523,404921.82,405156.2000000477,404921.82,409538.7,1,40,,
trial,html.Screen,6_22_0,2024-03-19T20:04:04.110Z,,,,1,-1.1894733304494307,-1.1169761866204877,,,true,hh,2576.5999999523046,response,1.0878102877901663,1.2,-1.2,1.3154097543539391,1.2,-1.2,high,high,,ISIC_0033813.JPG,,ISIC_1413242.JPG,,25,true,0.15000000000000002,hh,keypress(i),0,false,412115.60000014305,412115.2999999523,409522.056,409764.90000009537,409538.7,411888.8,1,40,23,
sequence,flow.Sequence,6_22,2024-03-19T20:04:04.111Z,,,,,,,,,,,2576.5999999523046,completion,,,,,,,high,high,,,,,,,true,,,,,false,412116,412115.2999999523,409522.056,409764.90000009537,409538.7,411888.8,1,40,,
trial,html.Screen,6_23_0,2024-03-19T20:04:07.662Z,,,,1,-1.194799101954455,-1.2071632388858642,,,true,hh,3778.600000095379,response,1.1217390688497193,1.2,-1.2,1.2276600934505035,1.2,-1.2,high,high,,ISIC_4347535.JPG,,ISIC_0026344.JPG,,25,true,0.15000000000000002,hh,keypress(i),0,false,415667.7000000477,415667.40000009537,411872.28,412116.2000000477,411888.8,415455.664,1,40,24,
sequence,flow.Sequence,6_23,2024-03-19T20:04:07.663Z,,,,,,,,,,,3778.600000095379,completion,,,,,,,high,high,,,,,,,true,,,,,false,415668.10000014305,415667.40000009537,411872.28,412116.2000000477,411888.8,415455.664,1,40,,
trial,html.Screen,6_24_0,2024-03-19T20:04:09.934Z,,,,1,-1.296989496412063,1.1425074323097002,,,false,hl,2483.7360000953777,response,1.3559315773956395,1.2,-1.2,-0.924768326187701,1.2,-1.2,high,low,,ISIC_6356803.JPG,,ISIC_5101111.JPG,,29,true,0.3600000000000002,hh,keypress(i),0,false,417939.7000000477,417939.40000009537,415455.664,415668.40000009537,415455.664,417705.574,1,40,25,
sequence,flow.Sequence,6_24,2024-03-19T20:04:09.935Z,,,,,,,,,,,2483.7360000953777,completion,,,,,,,high,low,,,,,,,true,,,,,false,417940.10000014305,417939.40000009537,415455.664,415668.2999999523,415455.664,417705.574,1,40,,
trial,html.Screen,6_25_0,2024-03-19T20:04:16.255Z,,,,1,1.3471772753257971,1.055978100098093,,,true,ll,6554.126000047661,response,-0.8888187899385174,1.2,-1.2,-1.2022111230186514,1.2,-1.2,low,low,,ISIC_2077116.JPG,,ISIC_0070285.JPG,,211,true,0.3300000000000002,ll,keypress(f),0,false,424259.90000009537,424259.7000000477,417705.574,417940.2999999523,417705.574,424055.32,1,40,26,
sequence,flow.Sequence,6_25,2024-03-19T20:04:16.255Z,,,,,,,,,,,6554.126000047661,completion,,,,,,,low,low,,,,,,,true,,,,,false,424260.40000009537,424259.7000000477,417705.574,417940.2999999523,417705.574,424055.32,1,40,,
trial,html.Screen,6_26_0,2024-03-19T20:04:32.072Z,,,,1,-0.9046170303418553,1.0063426986460375,,,,,15799.60599999997,timeout,1.11329866545753,1.2,-1.2,-1.2155631217348757,1.2,-1.2,high,low,,ISIC_0055759.JPG,,ISIC_0032610.JPG,,29,true,0.3600000000000002,,,0,false,440076.7999999523,440076.5,424055.32,424260.60000014305,424055.32,439854.926,1,40,27,
sequence,flow.Sequence,6_26,2024-03-19T20:04:32.072Z,,,,,,,,,,,16021.179999999993,completion,,,,,,,high,low,,,,,,,true,,,,,false,440077.2999999523,440076.5,424055.32,424260.40000009537,424055.32,439854.926,1,40,,
trial,html.Screen,6_27_0,2024-03-19T20:04:38.383Z,,,,1,1.1890109863264902,-0.8867825318561365,,,true,lh,6532.574000000022,response,-0.9566823908868002,1.2,-1.2,0.9602125665128364,1.2,-1.2,low,high,,ISIC_0072576.JPG,,ISIC_0056784.JPG,,26,true,0.3300000000000002,lh,keypress(e),0,false,446387.7999999523,446387.5,439854.926,440077.5,439854.926,446155.378,1,40,28,
sequence,flow.Sequence,6_27,2024-03-19T20:04:38.383Z,,,,,,,,,,,6532.574000000022,completion,,,,,,,low,high,,,,,,,true,,,,,false,446388.2000000477,446387.5,439854.926,440077.40000009537,439854.926,446155.378,1,40,,
trial,html.Screen,6_28_0,2024-03-19T20:04:41.999Z,,,,1,1.11329866545753,-1.2155631217348757,,,false,lh,3848.121999999974,response,-1.2704198237183777,1.2,-1.2,1.138121072015301,1.2,-1.2,low,high,,ISIC_0032610.JPG,,ISIC_0501843.JPG,,33,true,0.3600000000000002,ll,keypress(f),0,false,450003.90000009537,450003.5,446155.378,446388.40000009537,446155.378,449772.2,1,40,29,
sequence,flow.Sequence,6_28,2024-03-19T20:04:41.999Z,,,,,,,,,,,3848.121999999974,completion,,,,,,,low,high,,,,,,,true,,,,,false,450004.2000000477,450003.5,446155.378,446388.40000009537,446155.378,449772.2,1,40,,
trial,html.Screen,6_29_0,2024-03-19T20:04:45.550Z,,,,1,1.1305948371148624,1.2802709447034604,,,true,ll,3783.2999999999884,response,-1.129574242324536,1.2,-1.2,-1.3620019059144717,1.2,-1.2,low,low,,ISIC_5648111.JPG,,ISIC_0069210.JPG,,249,true,0.3600000000000002,ll,keypress(f),0,false,453555.7999999523,453555.5,449755.53,450004.40000009537,449772.2,453322.2,1,40,30,
sequence,flow.Sequence,6_29,2024-03-19T20:04:45.551Z,,,,,,,,,,,3783.2999999999884,completion,,,,,,,low,low,,,,,,,true,,,,,false,453556.2000000477,453555.5,449755.53,450004.40000009537,449772.2,453322.2,1,40,,
trial,html.Screen,6_30_0,2024-03-19T20:04:48.880Z,,,,1,-1.2315945866020412,-1.13226141421557,,,true,hh,3561.200000095356,response,1.294521945180264,1.2,-1.2,1.3078626540563885,1.2,-1.2,high,high,,ISIC_0033595.JPG,,ISIC_3601224.JPG,,25,true,0.15000000000000002,hh,keypress(i),0,false,456883.7000000477,456883.40000009537,453305.6,453556.40000009537,453322.2,456672.106,1,40,31,
sequence,flow.Sequence,6_30,2024-03-19T20:04:48.880Z,,,,,,,,,,,3561.200000095356,completion,,,,,,,high,high,,,,,,,true,,,,,false,456884.10000014305,456883.40000009537,453305.6,453556.2999999523,453322.2,456672.106,1,40,,
trial,html.Screen,6_31_0,2024-03-19T20:04:54.319Z,,,,1,1.11329866545753,-1.2155631217348757,,,true,lh,5650.893999999971,response,-1.052305774554686,1.2,-1.2,1.3940181224717798,1.2,-1.2,low,high,,ISIC_0032610.JPG,,ISIC_4175400.JPG,,26,true,0.3300000000000002,lh,keypress(e),0,false,462323.2000000477,462323,456672.106,456884.2999999523,456672.106,462105.4,1,40,32,
sequence,flow.Sequence,6_31,2024-03-19T20:04:54.320Z,,,,,,,,,,,5650.893999999971,completion,,,,,,,low,high,,,,,,,true,,,,,false,462323.60000014305,462323,456672.106,456884.2000000477,456672.106,462105.4,1,40,,
trial,html.Screen,6_32_0,2024-03-19T20:05:02.544Z,,,,1,1.11329866545753,-1.2155631217348757,,,false,lh,8442.200000143028,response,-0.9293545888449,1.2,-1.2,1.551750455622795,1.2,-1.2,low,high,,ISIC_0032610.JPG,,ISIC_7717907.JPG,,33,true,0.3600000000000002,ll,keypress(f),0,false,470547.90000009537,470547.60000014305,462105.39,462323.7999999523,462105.4,470322.2,1,40,33,
sequence,flow.Sequence,6_32,2024-03-19T20:05:02.544Z,,,,,,,,,,,8442.200000143028,completion,,,,,,,low,high,,,,,,,true,,,,,false,470548.40000009537,470547.60000014305,462105.39,462323.7000000477,462105.4,470322.2,1,40,,
trial,html.Screen,6_33_0,2024-03-19T20:05:07.856Z,,,,1,1.4748095371445096,-0.9579010801034902,,,true,lh,5537.299999999988,response,-1.2043484010107477,1.2,-1.2,1.2178113180138233,1.2,-1.2,low,high,,ISIC_0033216.JPG,,ISIC_0011917.JPG,,33,true,0.3600000000000002,lh,keypress(e),0,false,475859.7000000477,475859.5,470322.112,470548.5,470322.2,475622.1,1,40,34,
sequence,flow.Sequence,6_33,2024-03-19T20:05:07.856Z,,,,,,,,,,,5537.299999999988,completion,,,,,,,low,high,,,,,,,true,,,,,false,475860.2000000477,475859.5,470322.112,470548.5,470322.2,475622.1,1,40,,
trial,html.Screen,6_34_0,2024-03-19T20:05:10.336Z,,,,1,-1.189469386514313,-1.3008582067137853,,,true,hh,2717.3000000953907,response,1.3471772753257971,1.2,-1.2,1.055978100098093,1.2,-1.2,high,high,,ISIC_0010644.JPG,,ISIC_2077116.JPG,,157,true,0.3600000000000002,hh,keypress(i),0,false,478339.7999999523,478339.40000009537,475622.062,475860.2999999523,475622.1,478155.472,1,40,35,
sequence,flow.Sequence,6_34,2024-03-19T20:05:10.336Z,,,,,,,,,,,2717.3000000953907,completion,,,,,,,high,high,,,,,,,true,,,,,false,478340.2000000477,478339.40000009537,475622.062,475860.2999999523,475622.1,478155.472,1,40,,
trial,html.Screen,6_35_0,2024-03-19T20:05:15.008Z,,,,1,-1.0822170028935367,1.1654796154432183,,,true,hl,4856.228000047675,response,1.2838089642212804,1.2,-1.2,-0.8550527900640753,1.2,-1.2,high,low,,ISIC_7288818.JPG,,ISIC_0034187.JPG,,29,true,0.3600000000000002,hl,keypress(j),0,false,483012,483011.7000000477,478155.472,478340.40000009537,478155.472,482788.7,1,40,36,
sequence,flow.Sequence,6_35,2024-03-19T20:05:15.008Z,,,,,,,,,,,4856.228000047675,completion,,,,,,,high,low,,,,,,,true,,,,,false,483012.40000009537,483011.7000000477,478155.472,478340.2999999523,478155.472,482788.7,1,40,,
trial,html.Screen,6_36_0,2024-03-19T20:05:18.030Z,,,,1,1.301795918505203,1.0518606632781424,,,true,ll,3245.5999999523046,response,-0.8868080718134892,1.2,-1.2,-0.8837963869804757,1.2,-1.2,low,low,,ISIC_0027666.JPG,,ISIC_0068895.JPG,,211,true,0.3300000000000002,ll,keypress(f),0,false,486034.40000009537,486034.2999999523,482772.2,483012.60000014305,482788.7,485805.5,1,40,37,
sequence,flow.Sequence,6_36,2024-03-19T20:05:18.031Z,,,,,,,,,,,3245.5999999523046,completion,,,,,,,low,low,,,,,,,true,,,,,false,486034.5,486034.2999999523,482772.2,483012.60000014305,482788.7,485805.5,1,40,,
trial,html.Screen,6_37_0,2024-03-19T20:05:20.558Z,,,,1,1.073296525451802,1.3454282740421717,,,true,ll,2756.7999999523163,response,-1.2232482867978696,1.2,-1.2,-1.2451219760556858,1.2,-1.2,low,low,,ISIC_5787312.JPG,,ISIC_0030889.JPG,,41,true,0.15000000000000002,ll,keypress(f),0,false,488562.5,488562.2999999523,485788.9,486034.7000000477,485805.5,488322.1,1,40,38,
sequence,flow.Sequence,6_37,2024-03-19T20:05:20.559Z,,,,,,,,,,,2756.7999999523163,completion,,,,,,,low,low,,,,,,,true,,,,,false,488562.60000014305,488562.2999999523,485788.9,486034.7000000477,485805.5,488322.1,1,40,,
trial,html.Screen,6_38_0,2024-03-19T20:05:22.816Z,,,,1,-1.194799101954455,-1.2071632388858642,,,true,hh,2497.3000000953907,response,1.1642596483638106,1.2,-1.2,1.091507924157762,1.2,-1.2,high,high,,ISIC_4347535.JPG,,ISIC_0765584.JPG,,25,true,0.15000000000000002,hh,keypress(i),0,false,490819.7000000477,490819.40000009537,488322.096,488562.7999999523,488322.1,490622.038,1,40,39,
sequence,flow.Sequence,6_38,2024-03-19T20:05:22.816Z,,,,,,,,,,,2497.3000000953907,completion,,,,,,,high,high,,,,,,,true,,,,,false,490820.10000014305,490819.40000009537,488322.096,488562.7000000477,488322.1,490622.038,1,40,,
trial,html.Screen,6_39_0,2024-03-19T20:05:27.568Z,,,,1,-0.8709576717420565,1.2795156779072283,,,true,hl,4949.862000095367,response,1.4727776799485246,1.2,-1.2,-0.8779113138076752,1.2,-1.2,high,low,,ISIC_1925632.JPG,,ISIC_0033074.JPG,,29,true,0.3600000000000002,hl,keypress(j),0,false,495572.2000000477,495571.90000009537,490622.038,490820.2999999523,490622.038,495338.8,1,40,40,
sequence,flow.Sequence,6_39,2024-03-19T20:05:27.569Z,,,,,,,,,,,4949.862000095367,completion,,,,,,,high,low,,,,,,,true,,,,,false,495572.60000014305,495571.90000009537,490622.038,490820.2999999523,490622.038,495338.8,1,40,,
practice_loop,flow.Loop,6,2024-03-19T20:05:27.569Z,,,,,,,,,,,222032.8220000954,completion,,,,,,,,,,,,,,,true,,,,,false,495572.90000009537,495571.90000009537,273539.078,273779.2000000477,273539.078,495338.8,1,40,,
stair_instructions,html.Screen,7,2024-03-19T20:05:31.055Z,,,,,,,,,,,3719.100000095379,response,,,,,,,,,,,,,,,,,continue,click button,,,499058.5,499057.90000009537,495322.1,495573.10000014305,495338.8,498839.2,,,,
trial,html.Screen,8_0_0,2024-03-19T20:05:36.103Z,,,,2,0.0361875505619981,-0.0291457404567876,,0.04,false,hl,5267.4000001430395,response,0.8494721812820843,1.2,-1.2,-1.3435429139974266,1.2,-1.2,high,low,,ISIC_0027480.JPG,,ISIC_0033585.JPG,28,29,false,0.3600000000000002,hh,keypress(i),0,true,504106.7000000477,504106.60000014305,498822.426,499058.60000014305,498839.2,503888.998,1,40,1,
sequence,flow.Sequence,8_0,2024-03-19T20:05:36.103Z,,,,,,,,,,,5267.4000001430395,completion,,,,,,,high,low,,,,,,,false,,,,,true,504106.7999999523,504106.60000014305,498822.426,499058.60000014305,498839.2,503888.998,1,40,,
trial,html.Screen,8_1_0,2024-03-19T20:05:42.246Z,,,,2,-0.012810673904807,0.00400964452501,,0.04,true,hl,6360.801999952295,response,1.3411487193830047,1.15,-1.15,-1.198640448317381,1.15,-1.2,high,low,,ISIC_0064656.JPG,,ISIC_3093026.JPG,28,27,false,0.3400000000000002,hl,keypress(j),0,true,510249.90000009537,510249.7999999523,503888.998,504106.90000009537,503888.998,510021.9,1,40,2,
sequence,flow.Sequence,8_1,2024-03-19T20:05:42.246Z,,,,,,,,,,,6360.801999952295,completion,,,,,,,high,low,,,,,,,false,,,,,true,510250.10000014305,510249.7999999523,503888.998,504106.90000009537,503888.998,510021.9,1,40,,
trial,html.Screen,8_2_0,2024-03-19T20:05:44.975Z,,,,2,-0.0060934073440827,-0.0279108145883031,,0.04,true,ll,2956.8000000476604,response,-1.2055236989581275,1.0999999999999999,-1.15,-1.1960893075698802,1.15,-1.15,low,low,,ISIC_0032604.JPG,,ISIC_0072393.JPG,28,25,false,0.11,ll,keypress(f),0,true,512978.7000000477,512978.7000000477,510005.42,510250.2000000477,510021.9,512755.564,1,40,3,
sequence,flow.Sequence,8_2,2024-03-19T20:05:44.975Z,,,,,,,,,,,2956.8000000476604,completion,,,,,,,low,low,,,,,,,false,,,,,true,512979,512978.7000000477,510005.42,510250.10000014305,510021.9,512755.564,1,40,,
trial,html.Screen,8_3_0,2024-03-19T20:05:47.649Z,,,,2,0.0365981355399771,0.0162670920008846,,0.04,false,hl,2896.1360000476707,response,0.8534691366511764,1.0999999999999999,-1.15,-1.276663727068437,1.15,-1.1508065032640038,high,low,,ISIC_0982855.JPG,,ISIC_0056788.JPG,28,27,false,0.30000000000000016,ll,keypress(f),0,true,515652,515651.7000000477,512755.564,512979,512755.564,515422.3,1,40,4,
sequence,flow.Sequence,8_3,2024-03-19T20:05:47.650Z,,,,,,,,,,,2896.1360000476707,completion,,,,,,,high,low,,,,,,,false,,,,,true,515652.40000009537,515651.7000000477,512755.564,512979,512755.564,515422.3,1,40,,
trial,html.Screen,8_4_0,2024-03-19T20:05:49.537Z,,,,2,-0.0377791839943904,0.0227626648172468,,0.04,false,hl,2117.499999952328,response,1.3559315773956395,1.15,-1.15,-0.924768326187701,1.15,-1.1508065032640038,high,low,,ISIC_7167479.JPG,,ISIC_5101111.JPG,28,27,false,0.31000000000000016,hh,keypress(i),0,true,517540.10000014305,517539.7999999523,515422.19,515652.5,515422.3,517305.732,1,40,5,
sequence,flow.Sequence,8_4,2024-03-19T20:05:49.538Z,,,,,,,,,,,2117.499999952328,completion,,,,,,,high,low,,,,,,,false,,,,,true,517540.5,517539.7999999523,515422.19,515652.5,515422.3,517305.732,1,40,,
trial,html.Screen,8_5_0,2024-03-19T20:05:55.089Z,,,,2,-0.0071892445601978,0.0246015408628738,,0.04,true,hh,5786.168000095349,response,1.02671179315839,1.15,-1.15,1.232411858241539,1.15,-1.1508065032640038,high,high,,ISIC_0014133.JPG,,ISIC_7779155.JPG,28,26,false,0.14,hh,keypress(i),0,true,523092.2000000477,523091.90000009537,517305.732,517540.7000000477,517305.732,522872.176,1,40,6,
sequence,flow.Sequence,8_5,2024-03-19T20:05:55.090Z,,,,,,,,,,,5786.168000095349,completion,,,,,,,high,high,,,,,,,false,,,,,true,523092.60000014305,523091.90000009537,517305.732,517540.7000000477,517305.732,522872.176,1,40,,
trial,html.Screen,8_6_0,2024-03-19T20:06:01.953Z,,,,2,0.0367218428225813,-0.0026956749740767,,0.04,false,hl,7083.4240001430735,response,0.8150886811691144,1.0795618256999646,-1.15,-0.862416038462147,1.15,-1.1508065032640038,high,low,,ISIC_7212271.JPG,,ISIC_0058079.JPG,28,26,false,0.29000000000000015,lh,keypress(e),0,true,529955.7999999523,529955.600000143,522872.176,523092.90000009537,522872.176,529722.1,1,40,7,
sequence,flow.Sequence,8_6,2024-03-19T20:06:01.954Z,,,,,,,,,,,7083.4240001430735,completion,,,,,,,high,low,,,,,,,false,,,,,true,529956.2999999523,529955.600000143,522872.176,523092.7999999523,522872.176,529722.1,1,40,,
trial,html.Screen,8_7_0,2024-03-19T20:06:05.185Z,,,,2,0.0086413421586899,0.0360184993500958,,0.04,false,lh,3465.8000000953907,response,-0.9046170303418553,1.1295618256999647,-1.15,1.0063426986460375,1.15,-1.1508065032640038,low,high,,ISIC_0010767.JPG,,ISIC_0055759.JPG,28,25,false,0.28000000000000014,ll,keypress(f),0,true,533188.2000000477,533187.9000000954,529721.956,529956.5,529722.1,532955.5,1,40,8,
sequence,flow.Sequence,8_7,2024-03-19T20:06:05.186Z,,,,,,,,,,,3465.8000000953907,completion,,,,,,,low,high,,,,,,,false,,,,,true,533188.7000000477,533187.9000000954,529721.956,529956.5,529722.1,532955.5,1,40,,
trial,html.Screen,8_8_0,2024-03-19T20:06:11.665Z,,,,2,-0.0057914759495055,0.018500200317654,,0.04,true,ll,6712.200000047684,response,-1.0698162624196283,1.1295618256999647,-1.0999999999999999,-1.0648460966097275,1.15,-1.1508065032640038,low,low,,ISIC_0058723.JPG,,ISIC_0030552.JPG,28,29,false,0.11,ll,keypress(f),0,true,539667.9000000954,539667.7000000477,532955.478,533189,532955.5,539438.914,1,40,9,
sequence,flow.Sequence,8_8,2024-03-19T20:06:11.666Z,,,,,,,,,,,6712.200000047684,completion,,,,,,,low,low,,,,,,,false,,,,,true,539668.2999999523,539667.7000000477,532955.478,533188.9000000954,532955.5,539438.914,1,40,,
trial,html.Screen,8_9_0,2024-03-19T20:06:13.793Z,,,,2,0.0189295602385628,0.0128812415435153,,0.04,false,lh,2356.5860000000102,response,-0.8620516892494489,1.1295618256999647,-1.0999999999999999,1.1108509340502866,1.15,-1.1508065032640038,low,high,,ISIC_0010372.JPG,,ISIC_5557806.JPG,28,26,false,0.2500000000000001,hh,keypress(i),0,true,541795.7999999523,541795.5,539438.914,539668.5,539438.914,541572.322,1,40,10,
sequence,flow.Sequence,8_9,2024-03-19T20:06:13.794Z,,,,,,,,,,,2356.5860000000102,completion,,,,,,,low,high,,,,,,,false,,,,,true,541796.2000000477,541795.5,539438.914,539668.5,539438.914,541572.322,1,40,,
trial,html.Screen,8_10_0,2024-03-19T20:06:15.665Z,,,,2,-0.0071892445601978,0.0246015408628738,,0.04,false,lh,2095.5780000953237,response,-1.296989496412063,1.1295618256999647,-1.15,1.1425074323097002,1.15,-1.1508065032640038,low,high,,ISIC_0014133.JPG,,ISIC_6356803.JPG,28,25,false,0.28000000000000014,hh,keypress(i),0,true,543668.100000143,543667.9000000954,541572.322,541796.4000000954,541572.322,543439.132,1,40,11,
sequence,flow.Sequence,8_10,2024-03-19T20:06:15.666Z,,,,,,,,,,,2095.5780000953237,completion,,,,,,,low,high,,,,,,,false,,,,,true,543668.5,543667.9000000954,541572.322,541796.4000000954,541572.322,543439.132,1,40,,
trial,html.Screen,8_11_0,2024-03-19T20:06:22.209Z,,,,2,-0.0060918352854008,0.029032683404407,,0.04,true,hl,6772.468000143068,response,1.3515962101204746,1.1295618256999647,-1.15,-0.8414583575292955,1.0766791831799933,-1.1508065032640038,high,low,,ISIC_8436194.JPG,,ISIC_0274382.JPG,28,27,false,0.31000000000000016,hl,keypress(j),0,true,550211.9000000954,550211.600000143,543439.132,543668.7999999523,543439.132,550005.536,1,40,12,
sequence,flow.Sequence,8_11,2024-03-19T20:06:22.210Z,,,,,,,,,,,6772.468000143068,completion,,,,,,,high,low,,,,,,,false,,,,,true,550212.2999999523,550211.600000143,543439.132,543668.7000000477,543439.132,550005.536,1,40,,
trial,html.Screen,8_12_0,2024-03-19T20:06:27.297Z,,,,2,0.0365981355399771,0.0162670920008846,,0.04,true,hl,5294.263999952353,response,0.9445114955578736,1.1295618256999647,-1.15,-1.0054210059625863,1.0766791831799933,-1.1008065032640038,high,low,,ISIC_0982855.JPG,,ISIC_0033807.JPG,28,27,false,0.28000000000000014,hl,keypress(j),0,true,555300.100000143,555299.7999999523,550005.536,550212.5,550005.536,555072.2,1,40,13,
sequence,flow.Sequence,8_12,2024-03-19T20:06:27.298Z,,,,,,,,,,,5294.263999952353,completion,,,,,,,high,low,,,,,,,false,,,,,true,555300.5,555299.7999999523,550005.536,550212.4000000954,550005.536,555072.2,1,40,,
trial,html.Screen,8_13_0,2024-03-19T20:06:32.977Z,,,,2,-0.0350697500805515,-0.0166617848231997,,0.04,true,ll,5907.599999952363,response,-1.194799101954455,1.0795618256999646,-1.15,-1.2071632388858642,1.0766791831799933,-1.1008065032640038,low,low,,ISIC_0024423.JPG,,ISIC_4347535.JPG,28,27,false,0.11,ll,keypress(f),0,true,560980.100000143,560979.7999999523,555055.428,555300.7000000477,555072.2,560755.4,1,40,14,
sequence,flow.Sequence,8_13,2024-03-19T20:06:32.978Z,,,,,,,,,,,5907.599999952363,completion,,,,,,,low,low,,,,,,,false,,,,,true,560980.600000143,560979.7999999523,555055.428,555300.7000000477,555072.2,560755.4,1,40,,
trial,html.Screen,8_14_0,2024-03-19T20:06:35.057Z,,,,2,-0.0118555311043871,-0.0087774532070196,,0.04,true,ll,2304.000000095344,response,-1.094624209823328,1.0795618256999646,-1.15,-1.0544499428769605,1.0766791831799933,-1.1509811704201596,low,low,,ISIC_6488658.JPG,,ISIC_0055526.JPG,28,25,false,0.11,ll,keypress(f),0,true,563059.7000000477,563059.4000000954,560738.88,560980.7999999523,560755.4,562822.224,1,40,15,
sequence,flow.Sequence,8_14,2024-03-19T20:06:35.057Z,,,,,,,,,,,2304.000000095344,completion,,,,,,,low,low,,,,,,,false,,,,,true,563060.100000143,563059.4000000954,560738.88,560980.7999999523,560755.4,562822.224,1,40,,
trial,html.Screen,8_15_0,2024-03-19T20:06:41.888Z,,,,2,-0.0118555311043871,-0.0087774532070196,,0.04,true,ll,7068.476000047638,response,-1.089914260719518,1.0795618256999646,-1.0245370763501442,-1.1695563571046357,1.0766791831799933,-1.1509811704201596,low,low,,ISIC_6488658.JPG,,ISIC_0030695.JPG,28,30,false,0.1,ll,keypress(f),0,true,569890.9000000954,569890.7000000477,562822.224,563060.2999999523,562822.224,569655.6,1,40,16,
sequence,flow.Sequence,8_15,2024-03-19T20:06:41.888Z,,,,,,,,,,,7068.476000047638,completion,,,,,,,low,low,,,,,,,false,,,,,true,569891,569890.7000000477,562822.224,563060.2999999523,562822.224,569655.6,1,40,,
trial,html.Screen,8_16_0,2024-03-19T20:06:45.377Z,,,,2,-0.0377791839943904,0.0227626648172468,,0.04,false,hh,3723.9000000000233,response,0.9696118525781644,1.0795618256999646,-1.0245370763501442,0.9712966348713286,1.0766791831799933,-1.079735308912077,high,high,,ISIC_7167479.JPG,,ISIC_7927525.JPG,28,30,false,0.13,ll,keypress(f),0,true,573379.7000000477,573379.5,569655.6,569891.100000143,569655.6,573155.7,1,40,17,
sequence,flow.Sequence,8_16,2024-03-19T20:06:45.377Z,,,,,,,,,,,3723.9000000000233,completion,,,,,,,high,high,,,,,,,false,,,,,true,573380.100000143,573379.5,569655.6,569891,569655.6,573155.7,1,40,,
trial,html.Screen,8_17_0,2024-03-19T20:06:49.714Z,,,,2,-0.012810673904807,0.00400964452501,,0.04,false,hl,4559.900000143098,response,0.9087169856594104,1.1295618256999647,-1.0245370763501442,-0.8835647084207277,1.1266791831799934,-1.079735308912077,high,low,,ISIC_0064656.JPG,,ISIC_0000349.JPG,28,25,false,0.27000000000000013,ll,keypress(f),0,true,577715.9000000954,577715.600000143,573155.49,573380.4000000954,573155.7,577488.7,1,40,18,
sequence,flow.Sequence,8_17,2024-03-19T20:06:49.715Z,,,,,,,,,,,4559.900000143098,completion,,,,,,,high,low,,,,,,,false,,,,,true,577716.2999999523,577715.600000143,573155.49,573380.2999999523,573155.7,577488.7,1,40,,
trial,html.Screen,8_18_0,2024-03-19T20:06:51.745Z,,,,2,0.0321039635696159,0.020496766286318,,0.04,true,hh,2257.700000095414,response,1.1802887330422154,1.1795618256999647,-1.0245370763501442,1.0224375154810723,1.1266791831799934,-1.079735308912077,high,high,,ISIC_0058063.JPG,,ISIC_9225640.JPG,28,27,false,0.14,hh,keypress(i),0,true,579746.600000143,579746.4000000954,577472.234,577716.5,577488.7,579522.2,1,40,19,
sequence,flow.Sequence,8_18,2024-03-19T20:06:51.745Z,,,,,,,,,,,2257.700000095414,completion,,,,,,,high,high,,,,,,,false,,,,,true,579746.7999999523,579746.4000000954,577472.234,577716.5,577488.7,579522.2,1,40,,
trial,html.Screen,8_19_0,2024-03-19T20:06:53.827Z,,,,2,0.0199897690678184,0.0312486875504497,,0.04,true,hh,2305.599999952363,response,1.1638334638021437,1.1795618256999647,-1.0245370763501442,1.0846635401396965,1.1266791831799934,-1.079735308912077,high,high,,ISIC_5482426.JPG,,ISIC_4718313.JPG,28,27,false,0.14,hh,keypress(i),0,true,581828.100000143,581827.7999999523,579505.682,579746.7999999523,579522.2,581589.08,1,40,20,
sequence,flow.Sequence,8_19,2024-03-19T20:06:53.827Z,,,,,,,,,,,2305.599999952363,completion,,,,,,,high,high,,,,,,,false,,,,,true,581828.5,581827.7999999523,579505.682,579746.7999999523,579522.2,581589.08,1,40,,
trial,html.Screen,8_20_0,2024-03-19T20:06:55.618Z,,,,2,-0.012810673904807,0.00400964452501,,0.04,false,lh,2030.420000000042,response,-1.1592423187534993,1.0035505278103842,-1.0245370763501442,1.067128884093211,1.0035505278103842,-1.079735308912077,low,high,,ISIC_0064656.JPG,,ISIC_6854940.JPG,28,25,false,0.21000000000000008,hh,keypress(i),0,true,583619.7999999523,583619.5,581589.08,581828.7000000477,581589.08,583388.9,1,40,21,
sequence,flow.Sequence,8_20,2024-03-19T20:06:55.619Z,,,,,,,,,,,2030.420000000042,completion,,,,,,,low,high,,,,,,,false,,,,,true,583620.2999999523,583619.5,581589.08,581828.600000143,581589.08,583388.9,1,40,,
trial,html.Screen,8_21_0,2024-03-19T20:06:58.355Z,,,,2,-0.0118555311043871,-0.0087774532070196,,0.04,true,ll,2966.8000000476604,response,-1.078286816527963,1.0035505278103842,-1.0745370763501443,-1.1255116193013075,1.0035505278103842,-1.079735308912077,low,low,,ISIC_6488658.JPG,,ISIC_0066213.JPG,28,29,false,0.1,ll,keypress(f),0,true,586356,586355.7000000477,583372.342,583620.4000000954,583388.9,586122.2,1,40,22,
sequence,flow.Sequence,8_21,2024-03-19T20:06:58.355Z,,,,,,,,,,,2966.8000000476604,completion,,,,,,,low,low,,,,,,,false,,,,,true,586356.2999999523,586355.7000000477,583372.342,583620.4000000954,583388.9,586122.2,1,40,,
trial,html.Screen,8_22_0,2024-03-19T20:07:01.233Z,,,,2,-0.0071892445601978,0.0246015408628738,,0.04,true,ll,3112.5000000477303,response,-0.9850572151440374,1.0035505278103842,-1.0745370763501443,-1.028720908260899,1.0035505278103842,-1.0518992179146351,low,low,,ISIC_0014133.JPG,,ISIC_0068993.JPG,28,29,false,0.1,ll,keypress(f),0,true,589234.7999999523,589234.7000000477,586105.6,586356.600000143,586122.2,589005.8,1,40,23,
sequence,flow.Sequence,8_22,2024-03-19T20:07:01.234Z,,,,,,,,,,,3112.5000000477303,completion,,,,,,,low,low,,,,,,,false,,,,,true,589234.9000000954,589234.7000000477,586105.6,586356.600000143,586122.2,589005.8,1,40,,
trial,html.Screen,8_23_0,2024-03-19T20:07:03.234Z,,,,2,0.0051046740562181,-0.0178832721027728,,0.04,false,lh,2229.6999999999534,response,-0.8087127179888679,1.0035505278103842,-0.9568890617024681,0.8480635840272462,1.0035505278103842,-1.0518992179146351,low,high,,ISIC_9545819.JPG,,ISIC_3941147.JPG,28,26,false,0.19000000000000006,hh,keypress(i),0,true,591235.7999999523,591235.5,589005.658,589235.100000143,589005.8,591005.8,1,40,24,
sequence,flow.Sequence,8_23,2024-03-19T20:07:03.235Z,,,,,,,,,,,2229.6999999999534,completion,,,,,,,low,high,,,,,,,false,,,,,true,591236.2999999523,591235.5,589005.658,589235,589005.8,591005.8,1,40,,
trial,html.Screen,8_24_0,2024-03-19T20:07:13.843Z,,,,2,0.0051046740562181,-0.0178832721027728,,0.04,true,hh,10837.99999995227,response,0.9487751044258608,1.0035505278103842,-1.0068890617024682,0.9230722071334148,0.9535505278103842,-1.0518992179146351,high,high,,ISIC_9545819.JPG,,ISIC_4568084.JPG,28,31,false,0.11,hh,keypress(i),0,true,601844.100000143,601843.7999999523,590989.1,591236.5,591005.8,601605.376,1,40,25,
sequence,flow.Sequence,8_24,2024-03-19T20:07:13.843Z,,,,,,,,,,,10837.99999995227,completion,,,,,,,high,high,,,,,,,false,,,,,true,601844.5,601843.7999999523,590989.1,591236.4000000954,591005.8,601605.376,1,40,,
trial,html.Screen,8_25_0,2024-03-19T20:07:17.426Z,,,,2,0.0063515208248796,0.0194177605767913,,0.04,true,ll,3822.1239999999525,response,-0.9478344010828824,1.0035505278103842,-1.0068890617024682,-1.1218541416084558,0.9535505278103842,-1.0518992179146351,low,low,,ISIC_5281908.JPG,,ISIC_8252406.JPG,28,37,false,0.1,ll,keypress(f),0,true,605427.7999999523,605427.5,601605.376,601844.7000000477,601605.376,605189,1,40,26,
sequence,flow.Sequence,8_25,2024-03-19T20:07:17.427Z,,,,,,,,,,,3822.1239999999525,completion,,,,,,,low,low,,,,,,,false,,,,,true,605428.2000000477,605427.5,601605.376,601844.600000143,601605.376,605189,1,40,,
trial,html.Screen,8_26_0,2024-03-19T20:07:22.003Z,,,,2,-0.0057914759495055,0.018500200317654,,0.04,false,lh,4814.799999952316,response,-1.0088376543442317,1.0035505278103842,-1.0068890617024682,0.8023075994977575,0.9535505278103842,-0.9848442713456691,low,high,,ISIC_0058723.JPG,,ISIC_7619234.JPG,28,27,false,0.20000000000000007,hh,keypress(i),0,true,610004,610003.7999999523,605188.93,605428.4000000954,605189,609772.3,1,40,27,
sequence,flow.Sequence,8_26,2024-03-19T20:07:22.003Z,,,,,,,,,,,4814.799999952316,completion,,,,,,,low,high,,,,,,,false,,,,,true,610004.5,610003.7999999523,605188.93,605428.4000000954,605189,609772.3,1,40,,
trial,html.Screen,8_27_0,2024-03-19T20:07:24.003Z,,,,2,0.0063515208248796,0.0194177605767913,,0.04,true,hh,2231.4999999522697,response,1.0433307945145347,1.0035505278103842,-1.0568890617024682,0.8328447549795016,0.9035505278103841,-0.9848442713456691,high,high,,ISIC_5281908.JPG,,ISIC_9104843.JPG,28,26,false,0.1,hh,keypress(i),0,true,612004.100000143,612003.7999999523,609755.7,610004.7000000477,609772.3,611772.3,1,40,28,
sequence,flow.Sequence,8_27,2024-03-19T20:07:24.003Z,,,,,,,,,,,2231.4999999522697,completion,,,,,,,high,high,,,,,,,false,,,,,true,612004.5,612003.7999999523,609755.7,610004.600000143,609772.3,611772.3,1,40,,
trial,html.Screen,8_28_0,2024-03-19T20:07:25.825Z,,,,2,-0.0050679133050021,-0.0174815595031679,,0.04,false,lh,2054.3000001430046,response,-0.9873794329144926,0.8880877747470182,-1.0568890617024682,0.9500689037516484,0.9035505278103841,-0.9848442713456691,low,high,,ISIC_9848743.JPG,,ISIC_0013498.JPG,28,26,false,0.20000000000000007,hh,keypress(i),0,true,613826.7999999523,613826.600000143,611772.26,612004.7999999523,611772.3,613589.2,1,40,29,
sequence,flow.Sequence,8_28,2024-03-19T20:07:25.825Z,,,,,,,,,,,2054.3000001430046,completion,,,,,,,low,high,,,,,,,false,,,,,true,613826.9000000954,613826.600000143,611772.26,612004.7000000477,611772.3,613589.2,1,40,,
trial,html.Screen,8_29_0,2024-03-19T20:07:29.026Z,,,,2,0.0127320821962457,-0.0315308940184827,,0.04,false,lh,3438.4000001430977,response,-0.9448560599810628,0.8880877747470182,-1.1068890617024683,0.9099421612683488,0.841456829365575,-0.9848442713456691,low,high,,ISIC_8156101.JPG,,ISIC_9684318.JPG,28,31,false,0.20000000000000007,hh,keypress(i),0,true,617027.7999999523,617027.600000143,613588.934,613827,613589.2,616789.072,1,40,30,
sequence,flow.Sequence,8_29,2024-03-19T20:07:29.027Z,,,,,,,,,,,3438.4000001430977,completion,,,,,,,low,high,,,,,,,false,,,,,true,617028.2999999523,617027.600000143,613588.934,613827,613589.2,616789.072,1,40,,
trial,html.Screen,8_30_0,2024-03-19T20:07:36.801Z,,,,2,0.0327772618698018,-0.0056908372048728,,0.04,false,lh,8013.7279999522725,response,-0.9991831965778788,0.8880877747470182,-1.1568890617024683,0.650584166220151,0.841456829365575,-0.9848442713456691,low,high,,ISIC_7897925.JPG,,ISIC_0248628.JPG,28,27,false,0.22000000000000008,hl,keypress(j),0,true,624802.9000000954,624802.7999999523,616789.072,617028.5,616789.072,624572,1,40,31,
sequence,flow.Sequence,8_30,2024-03-19T20:07:36.802Z,,,,,,,,,,,8013.7279999522725,completion,,,,,,,low,high,,,,,,,false,,,,,true,624803,624802.7999999523,616789.072,617028.4000000954,616789.072,624572,1,40,,
trial,html.Screen,8_31_0,2024-03-19T20:07:39.265Z,,,,2,-0.0350697500805515,-0.0166617848231997,,0.04,true,hh,2694.5,response,0.8053027919115658,0.8880877747470182,-1.1568890617024683,0.9001595056108199,0.891456829365575,-0.9848442713456691,high,high,,ISIC_0024423.JPG,,ISIC_2867416.JPG,28,45,false,0.1,hh,keypress(i),0,true,627266.7000000477,627266.5,624555.43,624803.100000143,624572,627038.9,1,40,32,
sequence,flow.Sequence,8_31,2024-03-19T20:07:39.265Z,,,,,,,,,,,2694.5,completion,,,,,,,high,high,,,,,,,false,,,,,true,627266.9000000954,627266.5,624555.43,624803.100000143,624572,627038.9,1,40,,
trial,html.Screen,8_32_0,2024-03-19T20:07:43.570Z,,,,2,-0.0060934073440827,-0.0279108145883031,,0.04,true,ll,4532.700000143028,response,-1.2137859487412823,0.8880877747470182,-1.1568890617024683,-0.9733061422664008,0.891456829365575,-0.9848442713456691,low,low,,ISIC_0032604.JPG,,ISIC_2987613.JPG,28,31,false,0.11,ll,keypress(f),0,true,631571.9000000954,631571.600000143,627022.2,627266.9000000954,627038.9,631338.8,1,40,33,
sequence,flow.Sequence,8_32,2024-03-19T20:07:43.571Z,,,,,,,,,,,4532.700000143028,completion,,,,,,,low,low,,,,,,,false,,,,,true,631572.2999999523,631571.600000143,627022.2,627266.9000000954,627038.9,631338.8,1,40,,
trial,html.Screen,8_33_0,2024-03-19T20:07:51.363Z,,,,2,0.0199897690678184,0.0312486875504497,,0.04,false,lh,8023.900000047637,response,-0.9212323139676136,0.8880877747470182,-1.1568890617024683,0.9882196642247332,0.891456829365575,-0.9848442713456691,low,high,,ISIC_5482426.JPG,,ISIC_0014255.JPG,28,26,false,0.2400000000000001,ll,keypress(f),0,true,639362.7999999523,639362.7000000477,631338.768,631572.5,631338.8,639138.8,1,40,34,
sequence,flow.Sequence,8_33,2024-03-19T20:07:51.363Z,,,,,,,,,,,8023.900000047637,completion,,,,,,,low,high,,,,,,,false,,,,,true,639363,639362.7000000477,631338.768,631572.4000000954,631338.8,639138.8,1,40,,
trial,html.Screen,8_34_0,2024-03-19T20:07:53.794Z,,,,2,-0.0057914759495055,0.018500200317654,,0.04,true,hh,2655.6999999999534,response,0.9696118525781644,0.8880877747470182,-0.8972692281170072,0.9712966348713286,0.9414568293655751,-0.9848442713456691,high,high,,ISIC_0058723.JPG,,ISIC_7927525.JPG,28,36,false,0.1,hh,keypress(i),0,true,641794.7000000477,641794.5,639122.2,639363,639138.8,641555.876,1,40,35,
sequence,flow.Sequence,8_34,2024-03-19T20:07:53.795Z,,,,,,,,,,,2655.6999999999534,completion,,,,,,,high,high,,,,,,,false,,,,,true,641794.7999999523,641794.5,639122.2,639363,639138.8,641555.876,1,40,,
trial,html.Screen,8_35_0,2024-03-19T20:07:58.564Z,,,,2,-0.0060918352854008,0.029032683404407,,0.04,true,hl,5007.6239999999525,response,0.9445114955578736,0.9204542437247465,-0.8972692281170072,-1.0054210059625863,0.9414568293655751,-0.9848442713456691,high,low,,ISIC_8436194.JPG,,ISIC_0033807.JPG,28,25,false,0.19000000000000006,hl,keypress(j),0,true,646563.7999999523,646563.5,641555.876,641794.9000000954,641555.876,646339.1,1,40,36,
sequence,flow.Sequence,8_35,2024-03-19T20:07:58.564Z,,,,,,,,,,,5007.6239999999525,completion,,,,,,,high,low,,,,,,,false,,,,,true,646564.2000000477,646563.5,641555.876,641794.9000000954,641555.876,646339.1,1,40,,
trial,html.Screen,8_36_0,2024-03-19T20:08:00.516Z,,,,2,-0.0050679133050021,-0.0174815595031679,,0.04,true,hh,2176.4000000000233,response,0.9371720357162444,0.9204542437247465,-0.8972692281170072,0.9507421943628228,0.9414568293655751,-0.934844271345669,high,high,,ISIC_9848743.JPG,,ISIC_3730327.JPG,28,32,false,0.1,hh,keypress(i),0,true,648515.7000000477,648515.5,646322.5,646564.4000000954,646339.1,648289.022,1,40,37,
sequence,flow.Sequence,8_36,2024-03-19T20:08:00.516Z,,,,,,,,,,,2176.4000000000233,completion,,,,,,,high,high,,,,,,,false,,,,,true,648516.100000143,648515.5,646322.5,646564.2999999523,646339.1,648289.022,1,40,,
trial,html.Screen,8_37_0,2024-03-19T20:08:03.428Z,,,,2,0.0199897690678184,0.0312486875504497,,0.04,true,ll,3138.777999952319,response,-0.8052466281778704,0.8976268449603482,-0.8972692281170072,-0.8895194627589205,0.8976268449603482,-0.934844271345669,low,low,,ISIC_5482426.JPG,,ISIC_0025814.JPG,28,48,false,0.1,ll,keypress(f),0,true,651428.100000143,651427.7999999523,648289.022,648516.4000000954,648289.022,651189.124,1,40,38,
sequence,flow.Sequence,8_37,2024-03-19T20:08:03.428Z,,,,,,,,,,,3138.777999952319,completion,,,,,,,low,low,,,,,,,false,,,,,true,651428.5,651427.7999999523,648289.022,648516.2999999523,648289.022,651189.124,1,40,,
trial,html.Screen,8_38_0,2024-03-19T20:08:06.435Z,,,,2,-0.0377791839943904,0.0227626648172468,,0.04,true,hh,3245.675999952364,response,0.8854665385930431,0.8976268449603482,-0.8972692281170072,0.9330258572707198,0.8976268449603482,-0.934844271345669,high,high,,ISIC_7167479.JPG,,ISIC_0026889.JPG,28,43,false,0.1,hh,keypress(i),0,true,654435,654434.7999999523,651189.124,651428.7000000477,651189.124,654205.876,1,40,39,
sequence,flow.Sequence,8_38,2024-03-19T20:08:06.435Z,,,,,,,,,,,3245.675999952364,completion,,,,,,,high,high,,,,,,,false,,,,,true,654435.2999999523,654434.7999999523,651189.124,651428.600000143,651189.124,654205.876,1,40,,
trial,html.Screen,8_39_0,2024-03-19T20:08:12.212Z,,,,2,-0.0057914759495055,0.018500200317654,,0.04,false,hl,6005.724000143004,response,0.7622914383475332,0.8976268449603482,-0.8972692281170072,-0.8883896910883083,0.8976268449603482,-0.934844271345669,high,low,,ISIC_0058723.JPG,,ISIC_0032005.JPG,28,25,false,0.16000000000000003,ll,keypress(f),0,true,660211.9000000954,660211.600000143,654205.876,654435.4000000954,654205.876,659988.8,1,40,40,
sequence,flow.Sequence,8_39,2024-03-19T20:08:12.212Z,,,,,,,,,,,6005.724000143004,completion,,,,,,,high,low,,,,,,,false,,,,,true,660212.2999999523,660211.600000143,654205.876,654435.2999999523,654205.876,659988.8,1,40,,
stair_loop,flow.Loop,8,2024-03-19T20:08:12.212Z,,,,,,,,,,,161372.40000014304,completion,,,,,,,,,,,,,,,false,,,,,true,660212.600000143,660211.600000143,498822.426,499058.60000014305,498839.2,659988.8,1,40,,
exp_instructions,html.Screen,9,2024-03-19T20:08:15.924Z,,,,,,,,,,,3934.100000095321,response,,,,,,,,,,,,,,,,,continue,keypress(Space),,,663923.7000000477,663922.9000000954,659972.312,660212.7000000477,659988.8,663688.7,,,,
trial,html.Screen,10_0_0,2024-03-19T20:08:20.042Z,,,,1,0.0365981355399771,0.0162670920008846,,0.04,true,ll,4353.200000095414,response,-1.033120591224746,0.9389403834021369,-1.0191503138239815,-0.9169816067930722,0.9278244960049553,-0.9977443644161026,low,low,,ISIC_0982855.JPG,9,ISIC_0033027.JPG,28,44,false,0.1,ll,keypress(f),0,false,668042,668041.9000000954,663688.652,663924,663688.7,667805.642,5,600,1,
break,html.Screen,10_0_1,2024-03-19T20:08:20.042Z,,,,,,,,,,,NaN,,,,,,,,low,low,,,,,,,false,,,,,false,668042.5,668042.5,,668042.100000143,,667805.642,5,600,,
break_continue,html.Screen,10_0_2,2024-03-19T20:08:20.043Z,,,,,,,,,,,NaN,,,,,,,,low,low,,,,,,,false,,,,,false,668042.9000000954,668042.7000000477,,668042.600000143,,667805.642,5,600,,
sequence,flow.Sequence,10_0,2024-03-19T20:08:20.043Z,,,,,,,,,,,4354.00000004773,completion,,,,,,,low,low,,,,,,,false,,,,,false,668043,668042.7000000477,663688.652,663924,663688.7,667805.642,5,600,,
trial,html.Screen,10_1_0,2024-03-19T20:08:23.332Z,,,,1,0.0063515208248796,0.0194177605767913,,0.04,false,hl,3525.8580000000075,response,1.00615481805876,0.9389403834021369,-1.0191503138239815,-0.8428903771195875,0.9278244960049553,-0.9977443644161026,high,low,,ISIC_5281908.JPG,9,ISIC_0069970.JPG,28,26,false,0.19000000000000006,ll,keypress(f),0,false,671331.9000000954,671331.5,667805.642,668043.100000143,667805.642,671105.6,5,600,2,
break,html.Screen,10_1_1,2024-03-19T20:08:23.333Z,,,,,,,,,,,NaN,,,,,,,,high,low,,,,,,,false,,,,,false,671332.7999999523,671332.600000143,,671332.2000000477,,671105.6,5,600,,
break_continue,html.Screen,10_1_2,2024-03-19T20:08:23.333Z,,,,,,,,,,,NaN,,,,,,,,high,low,,,,,,,false,,,,,false,671333.5,671333.4000000954,,671333.100000143,,671105.6,5,600,,
sequence,flow.Sequence,10_1,2024-03-19T20:08:23.334Z,,,,,,,,,,,3527.758000095375,completion,,,,,,,high,low,,,,,,,false,,,,,false,671333.9000000954,671333.4000000954,667805.642,668043.100000143,667805.642,671105.6,5,600,,
trial,html.Screen,10_2_0,2024-03-19T20:08:25.444Z,,,,1,-0.0158987717472563,-0.0292472192292015,,0.04,true,ll,2337.9000000000233,response,-0.9858885614273278,0.9389403834021369,-1.0191503138239815,-1.050716657084935,0.9278244960049553,-0.9977443644161026,low,low,,ISIC_1366765.JPG,9,ISIC_0055498.JPG,28,44,false,0.1,ll,keypress(f),0,false,673443.7999999523,673443.5,671088.976,671334.100000143,671105.6,673205.8,5,600,3,
break,html.Screen,10_2_1,2024-03-19T20:08:25.445Z,,,,,,,,,,,NaN,,,,,,,,low,low,,,,,,,false,,,,,false,673444.7999999523,673444.600000143,,673444.2000000477,,673205.8,5,600,,
break_continue,html.Screen,10_2_2,2024-03-19T20:08:25.445Z,,,,,,,,,,,NaN,,,,,,,,low,low,,,,,,,false,,,,,false,673445.4000000954,673445.2000000477,,673444.9000000954,,673205.8,5,600,,
sequence,flow.Sequence,10_2,2024-03-19T20:08:25.445Z,,,,,,,,,,,2339.600000047707,completion,,,,,,,low,low,,,,,,,false,,,,,false,673445.7000000477,673445.2000000477,671088.976,671334,671105.6,673205.8,5,600,,
trial,html.Screen,10_3_0,2024-03-19T20:08:29.604Z,,,,1,-0.0166849894750452,0.0371614812368835,,0.04,true,ll,4398.199999999953,response,-1.033120591224746,0.9389403834021369,-1.0191503138239815,-0.9169816067930722,0.9278244960049553,-0.9977443644161026,low,low,,ISIC_6231450.JPG,9,ISIC_0033027.JPG,28,44,false,0.1,ll,keypress(f),0,false,677604.2999999523,677604,673205.612,673445.9000000954,673205.8,677372.34,5,600,4,
break,html.Screen,10_3_1,2024-03-19T20:08:29.605Z,,,,,,,,,,,NaN,,,,,,,,low,low,,,,,,,false,,,,,false,677605.2999999523,677605,,677604.600000143,,677372.34,5,600,,
break_continue,html.Screen,10_3_2,2024-03-19T20:08:29.606Z,,,,,,,,,,,NaN,,,,,,,,low,low,,,,,,,false,,,,,false,677605.9000000954,677605.7000000477,,677605.4000000954,,677372.34,5,600,,
sequence,flow.Sequence,10_3,2024-03-19T20:08:29.606Z,,,,,,,,,,,4399.900000047637,completion,,,,,,,low,low,,,,,,,false,,,,,false,677606.100000143,677605.7000000477,673205.612,673445.7999999523,673205.8,677372.34,5,600,,
trial,html.Screen,10_4_0,2024-03-19T20:08:34.019Z,,,,1,-0.0399381815506136,-0.0177751789152893,,0.04,true,hl,4646.959999952349,response,0.9087169856594104,0.9389403834021369,-1.0191503138239815,-0.8835647084207277,0.9278244960049553,-0.9977443644161026,high,low,,ISIC_3981425.JPG,9,ISIC_0000349.JPG,28,26,false,0.19000000000000006,hl,keypress(j),0,false,682019.5,682019.2999999523,677372.34,677606.2999999523,677372.34,681789.058,5,600,5,
break,html.Screen,10_4_1,2024-03-19T20:08:34.020Z,,,,,,,,,,,NaN,,,,,,,,high,low,,,,,,,false,,,,,false,682020.600000143,682020.4000000954,,682019.9000000954,,681789.058,5,600,,
break_continue,html.Screen,10_4_2,2024-03-19T20:08:34.021Z,,,,,,,,,,,NaN,,,,,,,,high,low,,,,,,,false,,,,,false,682021.2000000477,682020.9000000954,,682020.7000000477,,681789.058,5,600,,
sequence,flow.Sequence,10_4,2024-03-19T20:08:34.021Z,,,,,,,,,,,4648.5600000954,completion,,,,,,,high,low,,,,,,,false,,,,,false,682021.5,682020.9000000954,677372.34,677606.2000000477,677372.34,681789.058,5,600,,
trial,html.Screen,10_5_0,2024-03-19T20:08:43.012Z,,,,1,-0.0158987717472563,-0.0292472192292015,,0.04,false,lh,9222.842000095407,response,-1.0088376543442317,0.9389403834021369,-1.0191503138239815,0.8023075994977575,0.9278244960049553,-0.9977443644161026,low,high,,ISIC_1366765.JPG,9,ISIC_7619234.JPG,28,26,false,0.20000000000000007,ll,keypress(f),0,false,691012.2000000477,691011.9000000954,681789.058,682021.600000143,681789.058,690788.8,5,600,6,
break,html.Screen,10_5_1,2024-03-19T20:08:43.013Z,,,,,,,,,,,NaN,,,,,,,,low,high,,,,,,,false,,,,,false,691013.4000000954,691013,,691012.5,,690788.8,5,600,,
break_continue,html.Screen,10_5_2,2024-03-19T20:08:43.014Z,,,,,,,,,,,NaN,,,,,,,,low,high,,,,,,,false,,,,,false,691014.100000143,691013.9000000954,,691013.600000143,,690788.8,5,600,,
sequence,flow.Sequence,10_5,2024-03-19T20:08:43.014Z,,,,,,,,,,,9224.842000095407,completion,,,,,,,low,high,,,,,,,false,,,,,false,691014.2999999523,691013.9000000954,681789.058,682021.600000143,681789.058,690788.8,5,600,,
trial,html.Screen,10_6_0,2024-03-19T20:08:46.693Z,,,,1,0.010035581303589,-0.0100711721396864,,0.04,true,hh,3902.6999999999534,response,0.9487751044258608,0.9389403834021369,-1.0191503138239815,0.9230722071334148,0.9278244960049553,-0.9977443644161026,high,high,,ISIC_0030592.JPG,9,ISIC_4568084.JPG,28,30,false,0.1,hh,keypress(i),0,false,694691.7999999523,694691.5,690772.114,691014.5,690788.8,694455.66,5,600,7,
break,html.Screen,10_6_1,2024-03-19T20:08:46.694Z,,,,,,,,,,,NaN,,,,,,,,high,high,,,,,,,false,,,,,false,694692.7999999523,694692.600000143,,694692.100000143,,694455.66,5,600,,
break_continue,html.Screen,10_6_2,2024-03-19T20:08:46.694Z,,,,,,,,,,,NaN,,,,,,,,high,high,,,,,,,false,,,,,false,694693.4000000954,694693.2000000477,,694692.9000000954,,694455.66,5,600,,
sequence,flow.Sequence,10_6,2024-03-19T20:08:46.695Z,,,,,,,,,,,3904.400000047637,completion,,,,,,,high,high,,,,,,,false,,,,,false,694693.600000143,694693.2000000477,690772.114,691014.5,690788.8,694455.66,5,600,,
trial,html.Screen,10_7_0,2024-03-19T20:08:48.389Z,,,,1,0.0189295602385628,0.0128812415435153,,0.04,true,hh,1931.7400000953348,response,1.0275060871969903,0.9389403834021369,-1.0191503138239815,0.9101747326852082,0.9278244960049553,-0.9977443644161026,high,high,,ISIC_0010372.JPG,10,ISIC_9155028.JPG,28,30,false,0.1,hh,keypress(i),0,false,696387.7999999523,696387.4000000954,694455.66,694693.7999999523,694455.66,696155.806,5,600,8,
break,html.Screen,10_7_1,2024-03-19T20:08:48.390Z,,,,,,,,,,,NaN,,,,,,,,high,high,,,,,,,false,,,,,false,696388.7999999523,696388.600000143,,696388.100000143,,696155.806,5,600,,
break_continue,html.Screen,10_7_2,2024-03-19T20:08:48.391Z,,,,,,,,,,,NaN,,,,,,,,high,high,,,,,,,false,,,,,false,696389.4000000954,696389.2000000477,,696388.9000000954,,696155.806,5,600,,
sequence,flow.Sequence,10_7,2024-03-19T20:08:48.391Z,,,,,,,,,,,1933.5400000476511,completion,,,,,,,high,high,,,,,,,false,,,,,false,696389.7000000477,696389.2000000477,694455.66,694693.7999999523,694455.66,696155.806,5,600,,
trial,html.Screen,10_8_0,2024-03-19T20:08:51.045Z,,,,1,0.0327772618698018,-0.0056908372048728,,0.04,true,ll,2887.594000095385,response,-0.999840720741648,0.9389403834021369,-1.0191503138239815,-0.9031251164933652,0.9278244960049553,-0.9977443644161026,low,low,,ISIC_7897925.JPG,9,ISIC_0058768.JPG,28,44,false,0.1,ll,keypress(f),0,false,699043.7999999523,699043.4000000954,696155.806,696389.7999999523,696155.806,698805.8,5,600,9,
break,html.Screen,10_8_1,2024-03-19T20:08:51.046Z,,,,,,,,,,,NaN,,,,,,,,low,low,,,,,,,false,,,,,false,699044.7999999523,699044.5,,699044.100000143,,698805.8,5,600,,
break_continue,html.Screen,10_8_2,2024-03-19T20:08:51.047Z,,,,,,,,,,,NaN,,,,,,,,low,low,,,,,,,false,,,,,false,699045.5,699045.2999999523,,699045,,698805.8,5,600,,
sequence,flow.Sequence,10_8,2024-03-19T20:08:51.047Z,,,,,,,,,,,2889.493999952334,completion,,,,,,,low,low,,,,,,,false,,,,,false,699045.7000000477,699045.2999999523,696155.806,696389.7999999523,696155.806,698805.8,5,600,,
trial,html.Screen,10_9_0,2024-03-19T20:08:57.445Z,,,,1,-0.0158987717472563,-0.0292472192292015,,0.04,false,hh,6638.199999999953,response,0.9112756881807856,0.9389403834021369,-1.0191503138239815,0.87743267531148,0.9278244960049553,-0.9977443644161026,high,high,,ISIC_1366765.JPG,9,ISIC_0000387.JPG,28,30,false,0.1,hl,keypress(j),0,false,705444.2999999523,705444,698805.734,699045.9000000954,698805.8,705222.44,5,600,10,
break,html.Screen,10_9_1,2024-03-19T20:08:57.447Z,,,,,,,,,,,NaN,,,,,,,,high,high,,,,,,,false,,,,,false,705445.4000000954,705445.100000143,,705444.7000000477,,705222.44,5,600,,
break_continue,html.Screen,10_9_2,2024-03-19T20:08:57.447Z,,,,,,,,,,,NaN,,,,,,,,high,high,,,,,,,false,,,,,false,705446.100000143,705445.9000000954,,705445.600000143,,705222.44,5,600,,
sequence,flow.Sequence,10_9,2024-03-19T20:08:57.447Z,,,,,,,,,,,6640.100000095321,completion,,,,,,,high,high,,,,,,,false,,,,,false,705446.2999999523,705445.9000000954,698805.734,699045.7999999523,698805.8,705222.44,5,600,,
trial,html.Screen,10_10_0,2024-03-19T20:09:04.149Z,,,,1,0.0365981355399771,0.0162670920008846,,0.04,false,hl,6925.359999952372,response,0.849847885203758,0.9389403834021369,-1.0191503138239815,-0.973447384095442,0.9278244960049553,-0.9977443644161026,high,low,,ISIC_0982855.JPG,10,ISIC_9612228.JPG,28,26,false,0.19000000000000006,lh,keypress(e),0,false,712148,712147.7999999523,705222.44,705446.5,705222.44,711922.362,5,600,11,
break,html.Screen,10_10_1,2024-03-19T20:09:04.150Z,,,,,,,,,,,NaN,,,,,,,,high,low,,,,,,,false,,,,,false,712149,712148.7999999523,,712148.2999999523,,711922.362,5,600,,
break_continue,html.Screen,10_10_2,2024-03-19T20:09:04.151Z,,,,,,,,,,,NaN,,,,,,,,high,low,,,,,,,false,,,,,false,712149.600000143,712149.4000000954,,712149.100000143,,711922.362,5,600,,
sequence,flow.Sequence,10_10,2024-03-19T20:09:04.151Z,,,,,,,,,,,6926.960000095423,completion,,,,,,,high,low,,,,,,,false,,,,,false,712149.7999999523,712149.4000000954,705222.44,705446.5,705222.44,711922.362,5,600,,
trial,html.Screen,10_11_0,2024-03-19T20:09:07.252Z,,,,1,-0.0071892445601978,0.0246015408628738,,0.04,true,lh,3328.2380001430865,response,-1.1547137855907486,0.9389403834021369,-1.0191503138239815,1.0185275168641534,0.9278244960049553,-0.9977443644161026,low,high,,ISIC_0014133.JPG,9,ISIC_7604870.JPG,28,26,false,0.20000000000000007,lh,keypress(e),0,false,715250.9000000954,715250.600000143,711922.362,712150,711922.362,715022.7,5,600,12,
break,html.Screen,10_11_1,2024-03-19T20:09:07.252Z,,,,,,,,,,,NaN,,,,,,,,low,high,,,,,,,false,,,,,false,715251.100000143,715251.100000143,,715250.9000000954,,715022.7,5,600,,
break_continue,html.Screen,10_11_2,2024-03-19T20:09:07.252Z,,,,,,,,,,,NaN,,,,,,,,low,high,,,,,,,false,,,,,false,715251.2999999523,715251.2999999523,,715251.2000000477,,715022.7,5,600,,
sequence,flow.Sequence,10_11,2024-03-19T20:09:07.253Z,,,,,,,,,,,3328.9379999523517,completion,,,,,,,low,high,,,,,,,false,,,,,false,715251.4000000954,715251.2999999523,711922.362,712149.9000000954,711922.362,715022.7,5,600,,
trial,html.Screen,10_12_0,2024-03-19T20:09:11.269Z,,,,1,-0.0377791839943904,0.0227626648172468,,0.04,true,hh,4245.300000000047,response,0.8839757968937295,0.9389403834021369,-1.0191503138239815,0.9422051867002986,0.9278244960049553,-0.9977443644161026,high,high,,ISIC_7167479.JPG,8,ISIC_6739241.JPG,28,30,false,0.1,hh,keypress(i),0,false,719268.2000000477,719268,715006.1,715251.5,715022.7,719039.1,5,600,13,
break,html.Screen,10_12_1,2024-03-19T20:09:11.270Z,,,,,,,,,,,NaN,,,,,,,,high,high,,,,,,,false,,,,,false,719269.2000000477,719269.100000143,,719268.600000143,,719039.1,5,600,,
break_continue,html.Screen,10_12_2,2024-03-19T20:09:11.271Z,,,,,,,,,,,NaN,,,,,,,,high,high,,,,,,,false,,,,,false,719269.9000000954,719269.600000143,,719269.4000000954,,719039.1,5,600,,
sequence,flow.Sequence,10_12,2024-03-19T20:09:11.271Z,,,,,,,,,,,4246.900000143098,completion,,,,,,,high,high,,,,,,,false,,,,,false,719270,719269.600000143,715006.1,715251.5,715022.7,719039.1,5,600,,
trial,html.Screen,10_13_0,2024-03-19T20:09:18.021Z,,,,1,-0.0377791839943904,0.0227626648172468,,0.04,true,hh,6980.800000095391,response,0.9112756881807856,0.9389403834021369,-1.0191503138239815,0.87743267531148,0.9278244960049553,-0.9977443644161026,high,high,,ISIC_7167479.JPG,9,ISIC_0000387.JPG,28,30,false,0.1,hh,keypress(i),0,false,726020.2000000477,726019.9000000954,719022.58,719270.2999999523,719039.1,725788.9,5,600,14,
break,html.Screen,10_13_1,2024-03-19T20:09:18.022Z,,,,,,,,,,,NaN,,,,,,,,high,high,,,,,,,false,,,,,false,726021.2000000477,726021,,726020.5,,725788.9,5,600,,
break_continue,html.Screen,10_13_2,2024-03-19T20:09:18.023Z,,,,,,,,,,,NaN,,,,,,,,high,high,,,,,,,false,,,,,false,726021.7999999523,726021.600000143,,726021.4000000954,,725788.9,5,600,,
sequence,flow.Sequence,10_13,2024-03-19T20:09:18.023Z,,,,,,,,,,,6982.500000143074,completion,,,,,,,high,high,,,,,,,false,,,,,false,726022.100000143,726021.600000143,719022.58,719270.2999999523,719039.1,725788.9,5,600,,
trial,html.Screen,10_14_0,2024-03-19T20:09:20.165Z,,,,1,-0.0060918352854008,0.029032683404407,,0.04,true,ll,2374.700000143028,response,-1.094624209823328,0.9389403834021369,-1.0191503138239815,-1.0544499428769605,0.9278244960049553,-0.9977443644161026,low,low,,ISIC_8436194.JPG,9,ISIC_0055526.JPG,28,44,false,0.1,ll,keypress(f),0,false,728163.9000000954,728163.600000143,725772.33,726022.2000000477,725788.9,727939.1,5,600,15,
break,html.Screen,10_14_1,2024-03-19T20:09:20.166Z,,,,,,,,,,,NaN,,,,,,,,low,low,,,,,,,false,,,,,false,728165,728164.7000000477,,728164.2999999523,,727939.1,5,600,,
break_continue,html.Screen,10_14_2,2024-03-19T20:09:20.167Z,,,,,,,,,,,NaN,,,,,,,,low,low,,,,,,,false,,,,,false,728165.5,728165.2999999523,,728165.100000143,,727939.1,5,600,,
sequence,flow.Sequence,10_14,2024-03-19T20:09:20.167Z,,,,,,,,,,,2376.399999952293,completion,,,,,,,low,low,,,,,,,false,,,,,false,728165.7999999523,728165.2999999523,725772.33,726022.2000000477,725788.9,727939.1,5,600,,
trial,html.Screen,10_15_0,2024-03-19T20:09:22.037Z,,,,1,-0.0071892445601978,0.0246015408628738,,0.04,true,ll,2096.5000001430744,response,-1.0353494157291625,0.9389403834021369,-1.0191503138239815,-0.9833297148698538,0.9278244960049553,-0.9977443644161026,low,low,,ISIC_0014133.JPG,8,ISIC_5156491.JPG,28,44,false,0.1,ll,keypress(f),0,false,730035.9000000954,730035.600000143,727922.4,728166,727939.1,729805.7,5,600,16,
break,html.Screen,10_15_1,2024-03-19T20:09:22.038Z,,,,,,,,,,,NaN,,,,,,,,low,low,,,,,,,false,,,,,false,730036.9000000954,730036.7000000477,,730036.2999999523,,729805.7,5,600,,
break_continue,html.Screen,10_15_2,2024-03-19T20:09:22.039Z,,,,,,,,,,,NaN,,,,,,,,low,low,,,,,,,false,,,,,false,730037.600000143,730037.4000000954,,730037.100000143,,729805.7,5,600,,
sequence,flow.Sequence,10_15,2024-03-19T20:09:22.039Z,,,,,,,,,,,2098.3000000953907,completion,,,,,,,low,low,,,,,,,false,,,,,false,730037.7999999523,730037.4000000954,727922.4,728165.9000000954,727939.1,729805.7,5,600,,
trial,html.Screen,10_16_0,2024-03-19T20:09:24.197Z,,,,1,-0.00126575685933,-0.0325046559638838,,0.04,true,hh,2389.700000095414,response,1.003694288339796,0.9389403834021369,-1.0191503138239815,0.8462905128253329,0.9278244960049553,-0.9977443644161026,high,high,,ISIC_5682259.JPG,9,ISIC_2876073.JPG,28,30,false,0.1,hh,keypress(i),0,false,732195.7000000477,732195.4000000954,729789.222,730037.9000000954,729805.7,731955.954,5,600,17,
break,html.Screen,10_16_1,2024-03-19T20:09:24.198Z,,,,,,,,,,,NaN,,,,,,,,high,high,,,,,,,false,,,,,false,732196.600000143,732196.4000000954,,732195.9000000954,,731955.954,5,600,,
break_continue,html.Screen,10_16_2,2024-03-19T20:09:24.198Z,,,,,,,,,,,NaN,,,,,,,,high,high,,,,,,,false,,,,,false,732197.2000000477,732197.100000143,,732196.7999999523,,731955.954,5,600,,
sequence,flow.Sequence,10_16,2024-03-19T20:09:24.199Z,,,,,,,,,,,2391.4000001430977,completion,,,,,,,high,high,,,,,,,false,,,,,false,732197.5,732197.100000143,729789.222,730037.9000000954,729805.7,731955.954,5,600,,
trial,html.Screen,10_17_0,2024-03-19T20:09:25.941Z,,,,1,0.0361875505619981,-0.0291457404567876,,0.04,true,hh,1983.545999999973,response,0.913084438298574,0.9389403834021369,-1.0191503138239815,0.8279199409322678,0.9278244960049553,-0.9977443644161026,high,high,,ISIC_0027480.JPG,9,ISIC_8637134.JPG,28,30,false,0.1,hh,keypress(i),0,false,733939.7000000477,733939.5,731955.954,732197.600000143,731955.954,733705.884,5,600,18,
break,html.Screen,10_17_1,2024-03-19T20:09:25.942Z,,,,,,,,,,,NaN,,,,,,,,high,high,,,,,,,false,,,,,false,733940.7999999523,733940.600000143,,733940.2000000477,,733705.884,5,600,,
break_continue,html.Screen,10_17_2,2024-03-19T20:09:25.943Z,,,,,,,,,,,NaN,,,,,,,,high,high,,,,,,,false,,,,,false,733941.4000000954,733941.2000000477,,733941,,733705.884,5,600,,
sequence,flow.Sequence,10_17,2024-03-19T20:09:25.943Z,,,,,,,,,,,1985.2460000476567,completion,,,,,,,high,high,,,,,,,false,,,,,false,733941.600000143,733941.2000000477,731955.954,732197.600000143,731955.954,733705.884,5,600,,
trial,html.Screen,10_18_0,2024-03-19T20:09:27.765Z,,,,1,-0.0057914759495055,0.018500200317654,,0.04,true,ll,2057.616000000038,response,-0.9900831889164324,0.9389403834021369,-1.0191503138239815,-0.9119933515639294,0.9278244960049553,-0.9977443644161026,low,low,,ISIC_0058723.JPG,8,ISIC_0058033.JPG,28,44,false,0.1,ll,keypress(f),0,false,735763.7999999523,735763.5,733705.884,733941.9000000954,733705.884,735539,5,600,19,
break,html.Screen,10_18_1,2024-03-19T20:09:27.766Z,,,,,,,,,,,NaN,,,,,,,,low,low,,,,,,,false,,,,,false,735764.7000000477,735764.5,,735764.100000143,,735539,5,600,,
break_continue,html.Screen,10_18_2,2024-03-19T20:09:27.766Z,,,,,,,,,,,NaN,,,,,,,,low,low,,,,,,,false,,,,,false,735765.2999999523,735765.100000143,,735764.7999999523,,735539,5,600,,
sequence,flow.Sequence,10_18,2024-03-19T20:09:27.767Z,,,,,,,,,,,2059.2160001430893,completion,,,,,,,low,low,,,,,,,false,,,,,false,735765.600000143,735765.100000143,733705.884,733941.7999999523,733705.884,735539,5,600,,
trial,html.Screen,10_19_0,2024-03-19T20:09:29.573Z,,,,1,-0.0060934073440827,-0.0279108145883031,,0.04,false,hl,2032.6000001430511,response,1.064425982109969,0.9389403834021369,-1.0191503138239815,-0.958564243697126,0.9278244960049553,-0.9977443644161026,high,low,,ISIC_0032604.JPG,8,ISIC_3203344.JPG,28,26,false,0.19000000000000006,hh,keypress(i),0,false,737571.7999999523,737571.600000143,735522.524,735765.7999999523,735539,737339.268,5,600,20,
break,html.Screen,10_19_1,2024-03-19T20:09:29.574Z,,,,,,,,,,,NaN,,,,,,,,high,low,,,,,,,false,,,,,false,737572.9000000954,737572.600000143,,737572.2000000477,,737339.268,5,600,,
break_continue,html.Screen,10_19_2,2024-03-19T20:09:29.575Z,,,,,,,,,,,NaN,,,,,,,,high,low,,,,,,,false,,,,,false,737573.5,737573.2000000477,,737573,,737339.268,5,600,,
sequence,flow.Sequence,10_19,2024-03-19T20:09:29.575Z,,,,,,,,,,,2034.2000000476837,completion,,,,,,,high,low,,,,,,,false,,,,,false,737573.7000000477,737573.2000000477,735522.524,735765.7000000477,735539,737339.268,5,600,,
trial,html.Screen,10_20_0,2024-03-19T20:09:33.093Z,,,,1,0.0189295602385628,0.0128812415435153,,0.04,false,hl,3752.73199999996,response,0.8923602890201078,0.9389403834021369,-1.0191503138239815,-0.8351700666074688,0.9278244960049553,-0.9977443644161026,high,low,,ISIC_0010372.JPG,8,ISIC_0033103.JPG,28,26,false,0.19000000000000006,hh,keypress(i),0,false,741092.2999999523,741092,737339.268,737573.9000000954,737339.268,740855.8,5,600,21,
break,html.Screen,10_20_1,2024-03-19T20:09:33.094Z,,,,,,,,,,,NaN,,,,,,,,high,low,,,,,,,false,,,,,false,741093.2999999523,741093.100000143,,741092.600000143,,740855.8,5,600,,
break_continue,html.Screen,10_20_2,2024-03-19T20:09:33.095Z,,,,,,,,,,,NaN,,,,,,,,high,low,,,,,,,false,,,,,false,741093.9000000954,741093.7000000477,,741093.5,,740855.8,5,600,,
sequence,flow.Sequence,10_20,2024-03-19T20:09:33.095Z,,,,,,,,,,,3754.4320000476437,completion,,,,,,,high,low,,,,,,,false,,,,,false,741094.100000143,741093.7000000477,737339.268,737573.7999999523,737339.268,740855.8,5,600,,
trial,html.Screen,10_21_0,2024-03-19T20:09:35.397Z,,,,1,-0.012810673904807,0.00400964452501,,0.04,false,lh,2539.600000095321,response,-0.9225524349657857,0.9389403834021369,-1.0191503138239815,0.929746784178986,0.9278244960049553,-0.9977443644161026,low,high,,ISIC_0064656.JPG,8,ISIC_0011077.JPG,28,26,false,0.20000000000000007,ll,keypress(f),0,false,743395.7000000477,743395.4000000954,740855.794,741094.2999999523,740855.8,743155.882,5,600,22,
break,html.Screen,10_21_1,2024-03-19T20:09:35.398Z,,,,,,,,,,,NaN,,,,,,,,low,high,,,,,,,false,,,,,false,743396.7000000477,743396.5,,743396,,743155.882,5,600,,
break_continue,html.Screen,10_21_2,2024-03-19T20:09:35.398Z,,,,,,,,,,,NaN,,,,,,,,low,high,,,,,,,false,,,,,false,743397.2000000477,743397.100000143,,743396.7999999523,,743155.882,5,600,,
sequence,flow.Sequence,10_21,2024-03-19T20:09:35.399Z,,,,,,,,,,,2541.3000001430046,completion,,,,,,,low,high,,,,,,,false,,,,,false,743397.5,743397.100000143,740855.794,741094.2000000477,740855.8,743155.882,5,600,,
trial,html.Screen,10_22_0,2024-03-19T20:09:37.699Z,,,,1,0.0051046740562181,-0.0178832721027728,,0.04,false,hl,2542.417999952333,response,0.8069562753553525,0.9389403834021369,-1.0191503138239815,-0.9101764190105358,0.9278244960049553,-0.9977443644161026,high,low,,ISIC_9545819.JPG,10,ISIC_0046596.JPG,28,26,false,0.19000000000000006,hh,keypress(i),0,false,745698.4000000954,745698.2999999523,743155.882,743397.600000143,743155.882,745472.4,5,600,23,
break,html.Screen,10_22_1,2024-03-19T20:09:37.700Z,,,,,,,,,,,NaN,,,,,,,,high,low,,,,,,,false,,,,,false,745698.7000000477,745698.600000143,,745698.4000000954,,745472.4,5,600,,
break_continue,html.Screen,10_22_2,2024-03-19T20:09:37.700Z,,,,,,,,,,,NaN,,,,,,,,high,low,,,,,,,false,,,,,false,745698.9000000954,745698.7999999523,,745698.7000000477,,745472.4,5,600,,
sequence,flow.Sequence,10_22,2024-03-19T20:09:37.700Z,,,,,,,,,,,2542.917999952333,completion,,,,,,,high,low,,,,,,,false,,,,,false,745698.9000000954,745698.7999999523,743155.882,743397.600000143,743155.882,745472.4,5,600,,
trial,html.Screen,10_23_0,2024-03-19T20:09:43.093Z,,,,1,0.0367218428225813,-0.0026956749740767,,0.04,true,ll,5619.200000143028,response,-1.0103956367534752,0.9389403834021369,-1.0191503138239815,-0.9950817758087226,0.9278244960049553,-0.9977443644161026,low,low,,ISIC_7212271.JPG,10,ISIC_0025267.JPG,28,44,false,0.1,ll,keypress(f),0,false,751091.9000000954,751091.600000143,745455.882,745698.9000000954,745472.4,750855.624,5,600,24,
break,html.Screen,10_23_1,2024-03-19T20:09:43.094Z,,,,,,,,,,,NaN,,,,,,,,low,low,,,,,,,false,,,,,false,751092.7999999523,751092.600000143,,751092.2000000477,,750855.624,5,600,,
break_continue,html.Screen,10_23_2,2024-03-19T20:09:43.095Z,,,,,,,,,,,NaN,,,,,,,,low,low,,,,,,,false,,,,,false,751093.5,751093.2000000477,,751093.100000143,,750855.624,5,600,,
sequence,flow.Sequence,10_23,2024-03-19T20:09:43.095Z,,,,,,,,,,,5620.80000004766,completion,,,,,,,low,low,,,,,,,false,,,,,false,751093.7000000477,751093.2000000477,745455.882,745698.9000000954,745472.4,750855.624,5,600,,
trial,html.Screen,10_24_0,2024-03-19T20:09:49.543Z,,,,1,-0.00126575685933,-0.0325046559638838,,0.04,false,hh,6684.3760000000475,response,0.9597587651037712,0.9389403834021369,-1.0191503138239815,0.8860066980618031,0.9278244960049553,-0.9977443644161026,high,high,,ISIC_5682259.JPG,10,ISIC_7534592.JPG,28,30,false,0.1,hl,keypress(j),0,false,757540.2999999523,757540,750855.624,751093.9000000954,750855.624,757305.71,5,600,25,
break,html.Screen,10_24_1,2024-03-19T20:09:49.544Z,,,,,,,,,,,NaN,,,,,,,,high,high,,,,,,,false,,,,,false,757541.2999999523,757541,,757540.600000143,,757305.71,5,600,,
break_continue,html.Screen,10_24_2,2024-03-19T20:09:49.544Z,,,,,,,,,,,NaN,,,,,,,,high,high,,,,,,,false,,,,,false,757541.7999999523,757541.7000000477,,757541.4000000954,,757305.71,5,600,,
sequence,flow.Sequence,10_24,2024-03-19T20:09:49.544Z,,,,,,,,,,,6686.076000047731,completion,,,,,,,high,high,,,,,,,false,,,,,false,757542.100000143,757541.7000000477,750855.624,751093.7999999523,750855.624,757305.71,5,600,,
trial,html.Screen,10_25_0,2024-03-19T20:09:51.733Z,,,,1,0.0365981355399771,0.0162670920008846,,0.04,true,ll,2424.7900000000373,response,-1.0282189783634048,0.9389403834021369,-1.0191503138239815,-0.9341202222313458,0.9278244960049553,-0.9977443644161026,low,low,,ISIC_0982855.JPG,9,ISIC_0027238.JPG,28,44,false,0.1,ll,keypress(f),0,false,759730.7000000477,759730.5,757305.71,757542.2999999523,757305.71,759505.8,5,600,26,
break,html.Screen,10_25_1,2024-03-19T20:09:51.734Z,,,,,,,,,,,NaN,,,,,,,,low,low,,,,,,,false,,,,,false,759731.2000000477,759731,,759730.7999999523,,759505.8,5,600,,
break_continue,html.Screen,10_25_2,2024-03-19T20:09:51.734Z,,,,,,,,,,,NaN,,,,,,,,low,low,,,,,,,false,,,,,false,759731.4000000954,759731.2999999523,,759731.2000000477,,759505.8,5,600,,
sequence,flow.Sequence,10_25,2024-03-19T20:09:51.734Z,,,,,,,,,,,2425.5899999523535,completion,,,,,,,low,low,,,,,,,false,,,,,false,759731.5,759731.2999999523,757305.71,757542.2000000477,757305.71,759505.8,5,600,,
trial,html.Screen,10_26_0,2024-03-19T20:09:56.326Z,,,,1,-0.0077673378094614,-0.0021810768579373,,0.04,false,hl,4817.800000143005,response,1.1235224875125256,0.9389403834021369,-1.0191503138239815,-0.8641223012137988,0.9278244960049553,-0.9977443644161026,high,low,,ISIC_0067621.JPG,9,ISIC_0033901.JPG,28,26,false,0.19000000000000006,ll,keypress(f),0,false,764323.9000000954,764323.600000143,759489.1,759731.600000143,759505.8,764089.1,5,600,27,
break,html.Screen,10_26_1,2024-03-19T20:09:56.327Z,,,,,,,,,,,NaN,,,,,,,,high,low,,,,,,,false,,,,,false,764324.7999999523,764324.7000000477,,764324.2999999523,,764089.1,5,600,,
break_continue,html.Screen,10_26_2,2024-03-19T20:09:56.328Z,,,,,,,,,,,NaN,,,,,,,,high,low,,,,,,,false,,,,,false,764325.4000000954,764325.2000000477,,764325,,764089.1,5,600,,
sequence,flow.Sequence,10_26,2024-03-19T20:09:56.328Z,,,,,,,,,,,4819.400000047637,completion,,,,,,,high,low,,,,,,,false,,,,,false,764325.7000000477,764325.2000000477,759489.1,759731.5,759505.8,764089.1,5,600,,
trial,html.Screen,10_27_0,2024-03-19T20:10:00.918Z,,,,1,-0.0050679133050021,-0.0174815595031679,,0.04,true,ll,4826.600000047707,response,-0.9286162906661966,0.9389403834021369,-1.0191503138239815,-0.8993115431771105,0.9278244960049553,-0.9977443644161026,low,low,,ISIC_9848743.JPG,8,ISIC_0011857.JPG,28,44,false,0.1,ll,keypress(f),0,false,768916,768915.7000000477,764089.09,764325.9000000954,764089.1,768688.9,5,600,28,
break,html.Screen,10_27_1,2024-03-19T20:10:00.919Z,,,,,,,,,,,NaN,,,,,,,,low,low,,,,,,,false,,,,,false,768917,768916.7000000477,,768916.4000000954,,768688.9,5,600,,
break_continue,html.Screen,10_27_2,2024-03-19T20:10:00.920Z,,,,,,,,,,,NaN,,,,,,,,low,low,,,,,,,false,,,,,false,768917.600000143,768917.4000000954,,768917.2000000477,,768688.9,5,600,,
sequence,flow.Sequence,10_27,2024-03-19T20:10:00.920Z,,,,,,,,,,,4828.300000095391,completion,,,,,,,low,low,,,,,,,false,,,,,false,768917.9000000954,768917.4000000954,764089.09,764325.9000000954,764089.1,768688.9,5,600,,
trial,html.Screen,10_28_0,2024-03-19T20:10:05.414Z,,,,1,0.010035581303589,-0.0100711721396864,,0.04,true,ll,4722.500000095344,response,-0.9304005163834584,0.9389403834021369,-1.0191503138239815,-0.9903292668457988,0.9278244960049553,-0.9977443644161026,low,low,,ISIC_0030592.JPG,10,ISIC_3485482.JPG,28,44,false,0.1,ll,keypress(f),0,false,773411.7000000477,773411.4000000954,768672.58,768918,768688.9,773172.45,5,600,29,
break,html.Screen,10_28_1,2024-03-19T20:10:05.415Z,,,,,,,,,,,NaN,,,,,,,,low,low,,,,,,,false,,,,,false,773412.4000000954,773412.2999999523,,773411.9000000954,,773172.45,5,600,,
break_continue,html.Screen,10_28_2,2024-03-19T20:10:05.415Z,,,,,,,,,,,NaN,,,,,,,,low,low,,,,,,,false,,,,,false,773412.9000000954,773412.7999999523,,773412.600000143,,773172.45,5,600,,
sequence,flow.Sequence,10_28,2024-03-19T20:10:05.416Z,,,,,,,,,,,4723.899999952293,completion,,,,,,,low,low,,,,,,,false,,,,,false,773413.100000143,773412.7999999523,768672.58,768918,768688.9,773172.45,5,600,,
trial,html.Screen,10_29_0,2024-03-19T20:10:07.973Z,,,,1,-0.00126575685933,-0.0325046559638838,,0.04,false,lh,2798.349999952363,response,-1.1682648288591504,0.9389403834021369,-1.0191503138239815,0.7749773174967559,0.9278244960049553,-0.9977443644161026,low,high,,ISIC_5682259.JPG,8,ISIC_3936223.JPG,28,26,false,0.20000000000000007,ll,keypress(f),0,false,775971,775970.7999999523,773172.45,773413.2999999523,773172.45,775739.138,5,600,30,
break,html.Screen,10_29_1,2024-03-19T20:10:07.974Z,,,,,,,,,,,NaN,,,,,,,,low,high,,,,,,,false,,,,,false,775971.5,775971.4000000954,,775971.2000000477,,775739.138,5,600,,
break_continue,html.Screen,10_29_2,2024-03-19T20:10:07.974Z,,,,,,,,,,,NaN,,,,,,,,low,high,,,,,,,false,,,,,false,775971.7999999523,775971.7000000477,,775971.600000143,,775739.138,5,600,,
sequence,flow.Sequence,10_29,2024-03-19T20:10:07.974Z,,,,,,,,,,,2799.2500000477303,completion,,,,,,,low,high,,,,,,,false,,,,,false,775972,775971.7000000477,773172.45,773413.2999999523,773172.45,775739.138,5,600,,
trial,html.Screen,10_30_0,2024-03-19T20:10:11.061Z,,,,1,-0.0377791839943904,0.0227626648172468,,0.04,false,hl,3319.5620000476483,response,1.0003671514840182,0.9389403834021369,-1.0191503138239815,-0.8992716557663581,0.9278244960049553,-0.9977443644161026,high,low,,ISIC_7167479.JPG,10,ISIC_0061749.JPG,28,26,false,0.19000000000000006,ll,keypress(f),0,false,779058.7999999523,779058.7000000477,775739.138,775972.100000143,775739.138,778822.54,5,600,31,
break,html.Screen,10_30_1,2024-03-19T20:10:11.062Z,,,,,,,,,,,NaN,,,,,,,,high,low,,,,,,,false,,,,,false,779059.2999999523,779059.2000000477,,779058.9000000954,,778822.54,5,600,,
break_continue,html.Screen,10_30_2,2024-03-19T20:10:11.062Z,,,,,,,,,,,NaN,,,,,,,,high,low,,,,,,,false,,,,,false,779059.4000000954,779059.4000000954,,779059.2999999523,,778822.54,5,600,,
sequence,flow.Sequence,10_30,2024-03-19T20:10:11.062Z,,,,,,,,,,,3320.262000095332,completion,,,,,,,high,low,,,,,,,false,,,,,false,779059.5,779059.4000000954,775739.138,775972.100000143,775739.138,778822.54,5,600,,
trial,html.Screen,10_31_0,2024-03-19T20:10:16.614Z,,,,1,0.0086413421586899,0.0360184993500958,,0.04,true,ll,5789.1600000476465,response,-1.033120591224746,0.9389403834021369,-1.0191503138239815,-0.9169816067930722,0.9278244960049553,-0.9977443644161026,low,low,,ISIC_0010767.JPG,9,ISIC_0033027.JPG,28,44,false,0.1,ll,keypress(f),0,false,784612,784611.7000000477,778822.54,779059.600000143,778822.54,784372.318,5,600,32,
break,html.Screen,10_31_1,2024-03-19T20:10:16.615Z,,,,,,,,,,,NaN,,,,,,,,low,low,,,,,,,false,,,,,false,784613,784612.7000000477,,784612.2999999523,,784372.318,5,600,,
break_continue,html.Screen,10_31_2,2024-03-19T20:10:16.616Z,,,,,,,,,,,NaN,,,,,,,,low,low,,,,,,,false,,,,,false,784613.600000143,784613.4000000954,,784613.100000143,,784372.318,5,600,,
sequence,flow.Sequence,10_31,2024-03-19T20:10:16.616Z,,,,,,,,,,,5790.86000009533,completion,,,,,,,low,low,,,,,,,false,,,,,false,784613.7999999523,784613.4000000954,778822.54,779059.600000143,778822.54,784372.318,5,600,,
trial,html.Screen,10_32_0,2024-03-19T20:10:26.789Z,,,,1,-0.0166849894750452,0.0371614812368835,,0.04,true,hh,10414.282000143081,response,0.869721192450462,0.9389403834021369,-1.0191503138239815,0.843152880400445,0.9278244960049553,-0.9977443644161026,high,high,,ISIC_6231450.JPG,9,ISIC_0000012.JPG,28,30,false,0.1,hh,keypress(i),0,false,794786.7000000477,794786.600000143,784372.318,784614,784372.318,794555.656,5,600,33,
break,html.Screen,10_32_1,2024-03-19T20:10:26.790Z,,,,,,,,,,,NaN,,,,,,,,high,high,,,,,,,false,,,,,false,794787.2000000477,794787,,794786.7999999523,,794555.656,5,600,,
break_continue,html.Screen,10_32_2,2024-03-19T20:10:26.790Z,,,,,,,,,,,NaN,,,,,,,,high,high,,,,,,,false,,,,,false,794787.4000000954,794787.2999999523,,794787.2999999523,,794555.656,5,600,,
sequence,flow.Sequence,10_32,2024-03-19T20:10:26.790Z,,,,,,,,,,,10414.981999952346,completion,,,,,,,high,high,,,,,,,false,,,,,false,794787.5,794787.2999999523,784372.318,784613.9000000954,784372.318,794555.656,5,600,,
trial,html.Screen,10_33_0,2024-03-19T20:10:32.150Z,,,,1,-0.0350697500805515,-0.0166617848231997,,0.04,true,lh,5592.044000047725,response,-0.8620516892494489,0.9389403834021369,-1.0191503138239815,1.1108509340502866,0.9278244960049553,-0.9977443644161026,low,high,,ISIC_0024423.JPG,8,ISIC_5557806.JPG,28,26,false,0.20000000000000007,lh,keypress(e),0,false,800147.9000000954,800147.7000000477,794555.656,794787.600000143,794555.656,799922.3,5,600,34,
break,html.Screen,10_33_1,2024-03-19T20:10:32.151Z,,,,,,,,,,,NaN,,,,,,,,low,high,,,,,,,false,,,,,false,800148.9000000954,800148.7000000477,,800148.2000000477,,799922.3,5,600,,
break_continue,html.Screen,10_33_2,2024-03-19T20:10:32.152Z,,,,,,,,,,,NaN,,,,,,,,low,high,,,,,,,false,,,,,false,800149.600000143,800149.2999999523,,800149.100000143,,799922.3,5,600,,
sequence,flow.Sequence,10_33,2024-03-19T20:10:32.152Z,,,,,,,,,,,5593.643999952357,completion,,,,,,,low,high,,,,,,,false,,,,,false,800149.7000000477,800149.2999999523,794555.656,794787.600000143,794555.656,799922.3,5,600,,
trial,html.Screen,10_34_0,2024-03-19T20:10:34.502Z,,,,1,0.0365981355399771,0.0162670920008846,,0.04,true,ll,2577.400000047637,response,-1.0324288349148223,0.9389403834021369,-1.0191503138239815,-0.9551989453759216,0.9278244960049553,-0.9977443644161026,low,low,,ISIC_0982855.JPG,10,ISIC_0033570.JPG,28,44,false,0.1,ll,keypress(f),0,false,802500,802499.7000000477,799905.7,800150,799922.3,802272.6,5,600,35,
break,html.Screen,10_34_1,2024-03-19T20:10:34.503Z,,,,,,,,,,,NaN,,,,,,,,low,low,,,,,,,false,,,,,false,802500.9000000954,802500.7999999523,,802500.2999999523,,802272.6,5,600,,
break_continue,html.Screen,10_34_2,2024-03-19T20:10:34.504Z,,,,,,,,,,,NaN,,,,,,,,low,low,,,,,,,false,,,,,false,802501.5,802501.2999999523,,802501.100000143,,802272.6,5,600,,
sequence,flow.Sequence,10_34,2024-03-19T20:10:34.504Z,,,,,,,,,,,2578.9999999522697,completion,,,,,,,low,low,,,,,,,false,,,,,false,802501.7999999523,802501.2999999523,799905.7,800149.9000000954,799922.3,802272.6,5,600,,
trial,html.Screen,10_35_0,2024-03-19T20:10:36.663Z,,,,1,-0.0377791839943904,0.0227626648172468,,0.04,true,hh,2387.1999999523396,response,0.8641919449610089,0.9389403834021369,-1.0191503138239815,1.0259812523869525,0.9278244960049553,-0.9977443644161026,high,high,,ISIC_7167479.JPG,9,ISIC_7903838.JPG,28,30,false,0.1,hh,keypress(i),0,false,804660.100000143,804659.7999999523,802256,802501.9000000954,802272.6,804422.622,5,600,36,
break,html.Screen,10_35_1,2024-03-19T20:10:36.663Z,,,,,,,,,,,NaN,,,,,,,,high,high,,,,,,,false,,,,,false,804661.100000143,804660.7999999523,,804660.5,,804422.622,5,600,,
break_continue,html.Screen,10_35_2,2024-03-19T20:10:36.664Z,,,,,,,,,,,NaN,,,,,,,,high,high,,,,,,,false,,,,,false,804661.600000143,804661.5,,804661.2000000477,,804422.622,5,600,,
sequence,flow.Sequence,10_35,2024-03-19T20:10:36.664Z,,,,,,,,,,,2388.9000000000233,completion,,,,,,,high,high,,,,,,,false,,,,,false,804661.9000000954,804661.5,802256,802501.9000000954,802272.6,804422.622,5,600,,
trial,html.Screen,10_36_0,2024-03-19T20:10:39.015Z,,,,1,-0.0057914759495055,0.018500200317654,,0.04,true,ll,2589.478000143077,response,-1.0011647073734584,0.9389403834021369,-1.0191503138239815,-1.090690958018423,0.9278244960049553,-0.9977443644161026,low,low,,ISIC_0058723.JPG,10,ISIC_0021901.JPG,28,44,false,0.1,ll,keypress(f),0,false,807012.2999999523,807012.100000143,804422.622,804662.100000143,804422.622,806789.3,5,600,37,
break,html.Screen,10_36_1,2024-03-19T20:10:39.016Z,,,,,,,,,,,NaN,,,,,,,,low,low,,,,,,,false,,,,,false,807013.2999999523,807013.100000143,,807012.7000000477,,806789.3,5,600,,
break_continue,html.Screen,10_36_2,2024-03-19T20:10:39.016Z,,,,,,,,,,,NaN,,,,,,,,low,low,,,,,,,false,,,,,false,807013.9000000954,807013.7000000477,,807013.4000000954,,806789.3,5,600,,
sequence,flow.Sequence,10_36,2024-03-19T20:10:39.016Z,,,,,,,,,,,2591.07800004771,completion,,,,,,,low,low,,,,,,,false,,,,,false,807014.100000143,807013.7000000477,804422.622,804662.100000143,804422.622,806789.3,5,600,,
trial,html.Screen,10_37_0,2024-03-19T20:10:43.094Z,,,,1,0.0365981355399771,0.0162670920008846,,0.04,false,hl,4302.400000047637,response,0.7622914383475332,0.9389403834021369,-1.0191503138239815,-0.8883896910883083,0.9278244960049553,-0.9977443644161026,high,low,,ISIC_0982855.JPG,9,ISIC_0032005.JPG,28,26,false,0.19000000000000006,ll,keypress(f),0,false,811092,811091.7000000477,806772.646,807014.2999999523,806789.3,810855.804,5,600,38,
break,html.Screen,10_37_1,2024-03-19T20:10:43.096Z,,,,,,,,,,,NaN,,,,,,,,high,low,,,,,,,false,,,,,false,811093.2999999523,811093,,811092.2999999523,,810855.804,5,600,,
break_continue,html.Screen,10_37_2,2024-03-19T20:10:43.096Z,,,,,,,,,,,NaN,,,,,,,,high,low,,,,,,,false,,,,,false,811093.9000000954,811093.600000143,,811093.4000000954,,810855.804,5,600,,
sequence,flow.Sequence,10_37,2024-03-19T20:10:43.097Z,,,,,,,,,,,4304.300000143005,completion,,,,,,,high,low,,,,,,,false,,,,,false,811094.2000000477,811093.600000143,806772.646,807014.2999999523,806789.3,810855.804,5,600,,
trial,html.Screen,10_38_0,2024-03-19T20:10:45.014Z,,,,1,0.0063515208248796,0.0194177605767913,,0.04,false,lh,2155.9959999523126,response,-1.1592423187534993,0.9389403834021369,-1.0191503138239815,1.067128884093211,0.9278244960049553,-0.9977443644161026,low,high,,ISIC_5281908.JPG,9,ISIC_6854940.JPG,28,26,false,0.20000000000000007,hh,keypress(i),0,false,813012.100000143,813011.7999999523,810855.804,811094.2999999523,810855.804,812772.7,5,600,39,
break,html.Screen,10_38_1,2024-03-19T20:10:45.015Z,,,,,,,,,,,NaN,,,,,,,,low,high,,,,,,,false,,,,,false,813013.100000143,813012.9000000954,,813012.4000000954,,812772.7,5,600,,
break_continue,html.Screen,10_38_2,2024-03-19T20:10:45.016Z,,,,,,,,,,,NaN,,,,,,,,low,high,,,,,,,false,,,,,false,813013.7000000477,813013.4000000954,,813013.2999999523,,812772.7,5,600,,
