sender,sender_type,sender_id,timestamp,meta,,age,blockNo,c1,c2,condition,control_tolerance,correct,correctResponse,duration,ended_on,f1,f1_high,f1_low,f2,f2_high,f2_low,feature_level1,feature_level2,gender,img_left,img_reveal,img_right,n_control_images,n_target_images,practice,range_tolerance,response,response_action,selection_duration,staircase,time_commit,time_end,time_render,time_run,time_show,time_switch,total_blocks,total_trials,trialNo,url
informed_consent,html.Screen,0,2024-04-19T14:11:54.532Z,"{""labjs_version"":""20.2.4"",""labjs_build"":{""flavor"":""development"",""commit"":""f5b4a49f956347addd546a832a3327688c2c0fef""},""location"":""https://labjs.felixhenninger.com/api/labjs_preview/index.html"",""userAgent"":""Mozilla/5.0 (Windows NT 10.0; Win64; x64) AppleWebKit/537.36 (KHTML, like Gecko) Chrome/124.0.0.0 Safari/537.36"",""platform"":""Win32"",""language"":""en-US"",""locale"":""en-US"",""timeZone"":""America/Chicago"",""timezoneOffset"":300,""screen_width"":2560,""screen_height"":1440,""scroll_width"":1265,""scroll_height"":1278,""window_innerWidth"":1265,""window_innerHeight"":1326,""devicePixelRatio"":1}",,,,,,,,,,3675806.8999999524,response,,,,,,,,,,,,,,,,,consent,click button,,,3676228.5,3676219.2999999523,395.7,514.7999999523163,412.4,3676116.694,,,,{}
Demography form,html.Form,1,2024-04-19T14:12:02.301Z,,,19,,,,,,,,7880.805999999866,form submission,,,,,,,,,male,,,,,,,,,,,,3683997.7999999523,3683997.5,3676116.694,3676228.899999976,3676116.694,3683889.998,,,,
Welcome,html.Screen,2,2024-04-19T14:12:37.827Z,,,,,,,"[""asym"",""col""]",,,,35633.00199999986,response,,,,,,,,,,,,,,,,,continue,click button,,,3719523.6999999285,3719523,3683889.998,3683997.7999999523,3683889.998,3719419.2,,,,
demo_instructions,html.Screen,3,2024-04-19T14:13:15.387Z,,,,,,,,,,,37663.799999999814,response,,,,,,,,,,,,,,,,,continue,click button,,,3757083.5999999046,3757083,3719402.5,3719523.899999976,3719419.2,3756984.5,,,,
trial,html.Screen,4_0_0,2024-04-19T14:13:35.040Z,,,,0,-1.1227373144244253,-1.1886610799377713,,,true,hh,19752,response,1.1363600109870835,1.2,-1.2,1.295816345369928,1.2,-1.2,high,high,,ISIC_0059506.JPG,,ISIC_0026141.JPG,,25,true,0.15000000000000002,hh,keypress(i),100,false,3776736.7999999523,3776736.5,3756983.528,3757083.7999999523,3756984.5,3776649.7,1,16,1,
sequence,flow.Sequence,4_0,2024-04-19T14:13:35.040Z,,,,,,,,,,,19752,completion,,,,,,,high,high,,,,,,,true,,,,,false,3776737.0999999046,3776736.5,3756983.528,3757083.7999999523,3756984.5,3776649.7,1,16,,
trial,html.Screen,4_1_0,2024-04-19T14:13:42.775Z,,,,0,-1.2435042401134029,-1.2939710463315144,,,true,hh,7821.199999975972,response,1.1363600109870835,1.2,-1.2,1.295816345369928,1.2,-1.2,high,high,,ISIC_0056119.JPG,,ISIC_0026141.JPG,,25,true,0.15000000000000002,hh,keypress(i),100,false,3784471.2999999523,3784470.899999976,3776633.262,3776737.1999999285,3776649.7,3784373,1,16,2,
sequence,flow.Sequence,4_1,2024-04-19T14:13:42.775Z,,,,,,,,,,,7821.199999975972,completion,,,,,,,high,high,,,,,,,true,,,,,false,3784471.5999999046,3784470.899999976,3776633.262,3776737.1999999285,3776649.7,3784373,1,16,,
trial,html.Screen,4_2_0,2024-04-19T14:13:48.111Z,,,,0,-1.189469386514313,-1.3008582067137853,,,true,hh,5433.799999952316,response,1.204229955025689,1.2,-1.2,1.0874249761617445,1.2,-1.2,high,high,,ISIC_0010644.JPG,,ISIC_0056930.JPG,,25,true,0.15000000000000002,hh,keypress(i),100,false,3789807.399999976,3789806.7999999523,3784356.366,3784471.899999976,3784373,3789710.6,1,16,3,
sequence,flow.Sequence,4_2,2024-04-19T14:13:48.112Z,,,,,,,,,,,5433.799999952316,completion,,,,,,,high,high,,,,,,,true,,,,,false,3789808.2999999523,3789806.7999999523,3784356.366,3784471.899999976,3784373,3789710.6,1,16,,
trial,html.Screen,4_3_0,2024-04-19T14:13:53.578Z,,,,0,-1.1227373144244253,-1.1886610799377713,,,true,hh,5563.999999904539,response,1.3045229691102764,1.2,-1.2,1.1781544075681951,1.2,-1.2,high,high,,ISIC_0059506.JPG,,ISIC_6148533.JPG,,25,true,0.15000000000000002,hh,keypress(i),100,false,3795274.7999999523,3795274.5999999046,3789694.066,3789808.5999999046,3789710.6,3795181.6,1,16,4,
sequence,flow.Sequence,4_3,2024-04-19T14:13:53.578Z,,,,,,,,,,,5563.999999904539,completion,,,,,,,high,high,,,,,,,true,,,,,false,3795274.899999976,3795274.5999999046,3789694.066,3789808.5,3789710.6,3795181.6,1,16,,
trial,html.Screen,4_4_0,2024-04-19T14:14:05.007Z,,,,0,1.1638334638021437,1.0846635401396965,,,true,ll,11521.599999928381,response,-1.1894733304494307,1.2,-1.2,-1.1169761866204877,1.2,-1.2,low,low,,ISIC_4718313.JPG,,ISIC_0033813.JPG,,27,true,0.12,ll,keypress(f),100,false,3806703.5,3806703.1999999285,3795164.932,3795275.0999999046,3795181.6,3806608,1,16,5,
sequence,flow.Sequence,4_4,2024-04-19T14:14:05.007Z,,,,,,,,,,,11521.599999928381,completion,,,,,,,low,low,,,,,,,true,,,,,false,3806704.1999999285,3806703.1999999285,3795164.932,3795275,3795181.6,3806608,1,16,,
trial,html.Screen,4_5_0,2024-04-19T14:14:18.377Z,,,,0,1.1305948371148624,1.2802709447034604,,,true,ll,13465.599999904633,response,-1.0762260610050776,1.2,-1.2,-1.1184338818466155,1.2,-1.2,low,low,,ISIC_5648111.JPG,,ISIC_0058666.JPG,,41,true,0.15000000000000002,ll,keypress(f),100,false,3820074.0999999046,3820073.5999999046,3806591.366,3806704.399999976,3806608,3819985.5,1,16,6,
sequence,flow.Sequence,4_5,2024-04-19T14:14:18.378Z,,,,,,,,,,,13465.599999904633,completion,,,,,,,low,low,,,,,,,true,,,,,false,3820074.6999999285,3820073.5999999046,3806591.366,3806704.399999976,3806608,3819985.5,1,16,,
trial,html.Screen,4_6_0,2024-04-19T14:14:26.197Z,,,,0,1.1510001454240106,1.132540312667795,,,true,ll,7908.099999904633,response,-1.238264833797662,1.2,-1.2,-1.176099940770289,1.2,-1.2,low,low,,ISIC_0009959.JPG,,ISIC_0032861.JPG,,41,true,0.15000000000000002,ll,keypress(f),100,false,3827894,3827893.5999999046,3819969.132,3820075,3819985.5,3827791.9,1,16,7,
sequence,flow.Sequence,4_6,2024-04-19T14:14:26.198Z,,,,,,,,,,,7908.099999904633,completion,,,,,,,low,low,,,,,,,true,,,,,false,3827894.5999999046,3827893.5999999046,3819969.132,3820074.899999976,3819985.5,3827791.9,1,16,,
trial,html.Screen,4_7_0,2024-04-19T14:14:34.691Z,,,,0,1.1642596483638106,1.091507924157762,,,true,ll,8595.199999904726,response,-1.2872758518949912,1.2,-1.2,-1.313723254903214,1.2,-1.2,low,low,,ISIC_0765584.JPG,,ISIC_0064376.JPG,,41,true,0.15000000000000002,ll,keypress(f),100,false,3836387.5999999046,3836387.0999999046,3827775.598,3827894.899999976,3827791.9,3836299.232,1,16,8,
sequence,flow.Sequence,4_7,2024-04-19T14:14:34.691Z,,,,,,,,,,,8595.199999904726,completion,,,,,,,low,low,,,,,,,true,,,,,false,3836388.399999976,3836387.0999999046,3827775.598,3827894.899999976,3827791.9,3836299.232,1,16,,
trial,html.Screen,4_8_0,2024-04-19T14:14:49.136Z,,,,0,0.9013888878932071,-0.9328095253308732,,,true,lh,14532.96799992863,response,-1.0345332538240786,1.2,-1.2,1.4719115945084815,1.2,-1.2,low,high,,ISIC_0068259.JPG,,ISIC_0192490.JPG,,26,true,0.3300000000000002,lh,keypress(e),100,false,3850832.6999999285,3850832.1999999285,3836299.232,3836388.5999999046,3836299.232,3850744.6,1,16,9,
sequence,flow.Sequence,4_8,2024-04-19T14:14:49.137Z,,,,,,,,,,,14532.96799992863,completion,,,,,,,low,high,,,,,,,true,,,,,false,3850833.5,3850832.1999999285,3836299.232,3836388.5999999046,3836299.232,3850744.6,1,16,,
trial,html.Screen,4_9_0,2024-04-19T14:14:56.227Z,,,,0,1.4727776799485246,-0.8779113138076752,,,true,lh,7178.699999952223,response,-0.9225524349657857,1.2,-1.2,0.929746784178986,1.2,-1.2,low,high,,ISIC_0033074.JPG,,ISIC_0011077.JPG,,33,true,0.3600000000000002,lh,keypress(e),100,false,3857923.5999999046,3857923.2999999523,3850727.898,3850833.899999976,3850744.6,3857833.8,1,16,10,
sequence,flow.Sequence,4_9,2024-04-19T14:14:56.227Z,,,,,,,,,,,7178.699999952223,completion,,,,,,,low,high,,,,,,,true,,,,,false,3857924.0999999046,3857923.2999999523,3850727.898,3850833.7999999523,3850744.6,3857833.8,1,16,,
trial,html.Screen,4_10_0,2024-04-19T14:15:07.138Z,,,,0,1.3411487193830047,-1.198640448317381,,,true,lh,11000.799999904819,response,-0.9448560599810628,1.2,-1.2,0.9099421612683488,1.2,-1.2,low,high,,ISIC_3093026.JPG,,ISIC_9684318.JPG,,33,true,0.3600000000000002,lh,keypress(e),100,false,3868835,3868834.5999999046,3857817.03,3857924.399999976,3857833.8,3868742.7,1,16,11,
sequence,flow.Sequence,4_10,2024-04-19T14:15:07.139Z,,,,,,,,,,,11000.799999904819,completion,,,,,,,low,high,,,,,,,true,,,,,false,3868835.5999999046,3868834.5999999046,3857817.03,3857924.2999999523,3857833.8,3868742.7,1,16,,
trial,html.Screen,4_11_0,2024-04-19T14:15:17.189Z,,,,0,1.1224745971429997,-0.8423270217438888,,,true,lh,10142.699999975972,response,-0.9566823908868002,1.2,-1.2,0.9602125665128364,1.2,-1.2,low,high,,ISIC_0057032.JPG,,ISIC_0056784.JPG,,33,true,0.3600000000000002,lh,keypress(e),100,false,3878885.7999999523,3878885.399999976,3868726.064,3868835.899999976,3868742.7,3878784.296,1,16,12,
sequence,flow.Sequence,4_11,2024-04-19T14:15:17.189Z,,,,,,,,,,,10142.699999975972,completion,,,,,,,low,high,,,,,,,true,,,,,false,3878886.399999976,3878885.399999976,3868726.064,3868835.7999999523,3868742.7,3878784.296,1,16,,
trial,html.Screen,4_12_0,2024-04-19T14:15:38.630Z,,,,0,-1.296989496412063,1.1425074323097002,,,true,hl,21542.70399999991,response,0.9087169856594104,1.2,-1.2,-0.8835647084207277,1.2,-1.2,high,low,,ISIC_6356803.JPG,,ISIC_0000349.JPG,,29,true,0.3600000000000002,hl,keypress(j),100,false,3900327.0999999046,3900327,3878784.296,3878886.6999999285,3878784.296,3900235.1,1,16,13,
sequence,flow.Sequence,4_12,2024-04-19T14:15:38.630Z,,,,,,,,,,,21542.70399999991,completion,,,,,,,high,low,,,,,,,true,,,,,false,3900327.2999999523,3900327,3878784.296,3878886.5,3878784.296,3900235.1,1,16,,
trial,html.Screen,4_13_0,2024-04-19T14:15:45.099Z,,,,0,-0.9873794329144926,0.9500689037516484,,,true,hl,6560.299999976065,response,0.8479396253253069,1.2,-1.2,-1.011054319516718,1.2,-1.2,high,low,,ISIC_0013498.JPG,,ISIC_0063521.JPG,,29,true,0.3600000000000002,hl,keypress(j),100,false,3906795.899999976,3906795.399999976,3900218.798,3900327.399999976,3900235.1,3906707.3,1,16,14,
sequence,flow.Sequence,4_13,2024-04-19T14:15:45.100Z,,,,,,,,,,,6560.299999976065,completion,,,,,,,high,low,,,,,,,true,,,,,false,3906796.5,3906795.399999976,3900218.798,3900327.399999976,3900235.1,3906707.3,1,16,,
trial,html.Screen,4_14_0,2024-04-19T14:15:51.551Z,,,,0,-1.1547137855907486,1.0185275168641534,,,true,hl,6539.700000000186,response,0.8591294258188253,1.2,-1.2,-0.870797302150167,1.2,-1.2,high,low,,ISIC_7604870.JPG,,ISIC_0055841.JPG,,29,true,0.3600000000000002,hl,keypress(j),100,false,3913247.5999999046,3913247,3906690.766,3906796.7999999523,3906707.3,3913145.932,1,16,15,
sequence,flow.Sequence,4_14,2024-04-19T14:15:51.551Z,,,,,,,,,,,6539.700000000186,completion,,,,,,,high,low,,,,,,,true,,,,,false,3913248.399999976,3913247,3906690.766,3906796.7999999523,3906707.3,3913145.932,1,16,,
trial,html.Screen,4_15_0,2024-04-19T14:15:56.966Z,,,,0,-1.2609895831255231,1.0687377724194886,,,true,hl,5516.467999976128,response,1.11329866545753,1.2,-1.2,-1.2155631217348757,1.2,-1.2,high,low,,ISIC_1367610.JPG,,ISIC_0032610.JPG,,29,true,0.3600000000000002,hl,keypress(j),100,false,3918662.7999999523,3918662.399999976,3913145.932,3913248.6999999285,3913145.932,3918566.9,1,16,16,
sequence,flow.Sequence,4_15,2024-04-19T14:15:56.966Z,,,,,,,,,,,5516.467999976128,completion,,,,,,,high,low,,,,,,,true,,,,,false,3918663.399999976,3918662.399999976,3913145.932,3913248.6999999285,3913145.932,3918566.9,1,16,,
demonstration_loop,flow.Loop,4,2024-04-19T14:15:56.967Z,,,,,,,,,,,161677.89999997616,completion,,,,,,,,,,,,,,,true,,,,,false,3918663.899999976,3918662.399999976,3756983.528,3757083.7999999523,3756984.5,3918566.9,1,16,,
practice_instructions,html.Screen,5,2024-04-19T14:17:14.067Z,,,,,,,,,,,77188.39999995241,response,,,,,,,,,,,,,,,,,continue,click button,,,3995764.5,3995755.2999999523,3918550.566,3918664.0999999046,3918566.9,3995663.96,,,,
trial,html.Screen,6_0_0,2024-04-19T14:17:30.072Z,,,,1,-0.9212323139676136,0.9882196642247332,,,,,16013.540000000037,timeout,1.0143509683988825,1.2,-1.2,-1.0281980567462463,1.2,-1.2,high,low,,ISIC_0014255.JPG,,ISIC_0062031.JPG,,29,true,0.3600000000000002,,,0,false,4011768.899999976,4011768.6999999285,3995663.96,3995764.6999999285,3995663.96,4011677.5,1,40,1,
sequence,flow.Sequence,6_0,2024-04-19T14:17:30.072Z,,,,,,,,,,,16104.739999928512,completion,,,,,,,high,low,,,,,,,true,,,,,false,4011769,4011768.6999999285,3995663.96,3995764.6999999285,3995663.96,4011677.5,1,40,,
trial,html.Screen,6_1_0,2024-04-19T14:17:38.059Z,,,,1,0.9087169856594104,-0.8835647084207277,,,true,lh,8079,response,-1.2043484010107477,1.2,-1.2,1.2178113180138233,1.2,-1.2,low,high,,ISIC_0000349.JPG,,ISIC_0011917.JPG,,26,true,0.3300000000000002,lh,keypress(e),0,false,4019756.5999999046,4019756.5,4011660.5,4011769.0999999046,4011677.5,4019650.7,1,40,2,
sequence,flow.Sequence,6_1,2024-04-19T14:17:38.060Z,,,,,,,,,,,8079,completion,,,,,,,low,high,,,,,,,true,,,,,false,4019756.7999999523,4019756.5,4011660.5,4011769.0999999046,4011677.5,4019650.7,1,40,,
trial,html.Screen,6_2_0,2024-04-19T14:17:46.093Z,,,,1,1.073296525451802,1.3454282740421717,,,true,ll,8138.799999999814,response,-1.0657476601009717,1.2,-1.2,-1.166572336354465,1.2,-1.2,low,low,,ISIC_5787312.JPG,,ISIC_0010778.JPG,,249,true,0.3600000000000002,ll,keypress(f),0,false,4027789.899999976,4027789.5,4019633.9,4019756.7999999523,4019650.7,4027701.318,1,40,3,
sequence,flow.Sequence,6_2,2024-04-19T14:17:46.093Z,,,,,,,,,,,8138.799999999814,completion,,,,,,,low,low,,,,,,,true,,,,,false,4027790.399999976,4027789.5,4019633.9,4019756.7999999523,4019650.7,4027701.318,1,40,,
trial,html.Screen,6_3_0,2024-04-19T14:17:51.894Z,,,,1,0.9013888878932071,-0.9328095253308732,,,true,lh,5889.081999976188,response,-1.1592423187534993,1.2,-1.2,1.067128884093211,1.2,-1.2,low,high,,ISIC_0068259.JPG,,ISIC_6854940.JPG,,26,true,0.3300000000000002,lh,keypress(e),0,false,4033590.7999999523,4033590.399999976,4027701.318,4027790.6999999285,4027701.318,4033478.6,1,40,4,
sequence,flow.Sequence,6_3,2024-04-19T14:17:51.895Z,,,,,,,,,,,5889.081999976188,completion,,,,,,,low,high,,,,,,,true,,,,,false,4033591.899999976,4033590.399999976,4027701.318,4027790.5999999046,4027701.318,4033478.6,1,40,,
trial,html.Screen,6_4_0,2024-04-19T14:17:58.357Z,,,,1,1.3411487193830047,-1.198640448317381,,,true,lh,6574.999999904539,response,-0.9873794329144926,1.2,-1.2,0.9500689037516484,1.2,-1.2,low,high,,ISIC_3093026.JPG,,ISIC_0013498.JPG,,33,true,0.3600000000000002,lh,keypress(e),0,false,4040054,4040053.5999999046,4033474.676,4033592.2999999523,4033478.6,4039950.6,1,40,5,
sequence,flow.Sequence,6_4,2024-04-19T14:17:58.357Z,,,,,,,,,,,6574.999999904539,completion,,,,,,,low,high,,,,,,,true,,,,,false,4040054.5,4040053.5999999046,4033474.676,4033592.1999999285,4033478.6,4039950.6,1,40,,
trial,html.Screen,6_5_0,2024-04-19T14:18:05.141Z,,,,1,1.1642596483638106,1.091507924157762,,,true,ll,6887.299999976065,response,-1.1126049058422398,1.2,-1.2,-1.2305421124063929,1.2,-1.2,low,low,,ISIC_0765584.JPG,,ISIC_0071536.JPG,,249,true,0.3600000000000002,ll,keypress(f),0,false,4046838.2999999523,4046837.899999976,4039945.982,4040054.6999999285,4039950.6,4046756.2,1,40,6,
sequence,flow.Sequence,6_5,2024-04-19T14:18:05.142Z,,,,,,,,,,,6887.299999976065,completion,,,,,,,low,low,,,,,,,true,,,,,false,4046838.7999999523,4046837.899999976,4039945.982,4040054.6999999285,4039950.6,4046756.2,1,40,,
trial,html.Screen,6_6_0,2024-04-19T14:18:11.389Z,,,,1,0.8779374983479176,-0.9745548032823428,,,true,lh,6329.199999975972,response,-0.9212323139676136,1.2,-1.2,0.9882196642247332,1.2,-1.2,low,high,,ISIC_2991354.JPG,,ISIC_0014255.JPG,,26,true,0.3300000000000002,lh,keypress(e),0,false,4053085.7999999523,4053085.399999976,4046751.468,4046839,4046756.2,4052978.1,1,40,7,
sequence,flow.Sequence,6_6,2024-04-19T14:18:11.389Z,,,,,,,,,,,6329.199999975972,completion,,,,,,,low,high,,,,,,,true,,,,,false,4053086.2999999523,4053085.399999976,4046751.468,4046839,4046756.2,4052978.1,1,40,,
trial,html.Screen,6_7_0,2024-04-19T14:18:17.166Z,,,,1,0.8591294258188253,-0.870797302150167,,,true,lh,5883.399999999907,response,-1.052305774554686,1.2,-1.2,1.3940181224717798,1.2,-1.2,low,high,,ISIC_0055841.JPG,,ISIC_4175400.JPG,,33,true,0.3600000000000002,lh,keypress(e),0,false,4058861.899999976,4058861.5,4052973.558,4053086.5999999046,4052978.1,4058749.5,1,40,8,
sequence,flow.Sequence,6_7,2024-04-19T14:18:17.166Z,,,,,,,,,,,5883.399999999907,completion,,,,,,,low,high,,,,,,,true,,,,,false,4058862.399999976,4058861.5,4052973.558,4053086.5,4052978.1,4058749.5,1,40,,
trial,html.Screen,6_8_0,2024-04-19T14:18:20.717Z,,,,1,0.9039158082670506,-1.0517562064343149,,,true,lh,3663.7999999523163,response,-1.082730232773217,1.2,-1.2,0.8833175387485132,1.2,-1.2,low,high,,ISIC_0015411.JPG,,ISIC_0011933.JPG,,33,true,0.3600000000000002,lh,keypress(e),0,false,4062413.7999999523,4062413.2999999523,4058745.61,4058862.5999999046,4058749.5,4062302.5,1,40,9,
sequence,flow.Sequence,6_8,2024-04-19T14:18:20.718Z,,,,,,,,,,,3663.7999999523163,completion,,,,,,,low,high,,,,,,,true,,,,,false,4062414.399999976,4062413.2999999523,4058745.61,4058862.5999999046,4058749.5,4062302.5,1,40,,
trial,html.Screen,6_9_0,2024-04-19T14:18:31.566Z,,,,1,-1.2059606637811695,-1.214966446488752,,,true,hh,10959.399999976158,response,0.9462198986993904,1.2,-1.2,1.067111862128132,1.2,-1.2,high,high,,ISIC_0013334.JPG,,ISIC_3564461.JPG,,157,true,0.3600000000000002,hh,keypress(i),0,false,4073262.1999999285,4073261.899999976,4062300.532,4062414.6999999285,4062302.5,4073178,1,40,10,
sequence,flow.Sequence,6_9,2024-04-19T14:18:31.566Z,,,,,,,,,,,10959.399999976158,completion,,,,,,,high,high,,,,,,,true,,,,,false,4073262.7999999523,4073261.899999976,4062300.532,4062414.5999999046,4062302.5,4073178,1,40,,
trial,html.Screen,6_10_0,2024-04-19T14:18:34.789Z,,,,1,1.4748095371445096,-0.9579010801034902,,,true,lh,3307.2999999523163,response,-1.155796217969438,1.2,-1.2,1.1646564121743912,1.2,-1.2,low,high,,ISIC_0033216.JPG,,ISIC_2685523.JPG,,26,true,0.3300000000000002,lh,keypress(e),0,false,4076485.5999999046,4076485.2999999523,4073169.772,4073263.0999999046,4073178,4076380.7,1,40,11,
sequence,flow.Sequence,6_10,2024-04-19T14:18:34.790Z,,,,,,,,,,,3307.2999999523163,completion,,,,,,,low,high,,,,,,,true,,,,,false,4076486.2999999523,4076485.2999999523,4073169.772,4073263,4073178,4076380.7,1,40,,
trial,html.Screen,6_11_0,2024-04-19T14:18:36.939Z,,,,1,0.9039158082670506,-1.0517562064343149,,,true,lh,2254.59999995213,response,-1.296989496412063,1.2,-1.2,1.1425074323097002,1.2,-1.2,low,high,,ISIC_0015411.JPG,,ISIC_6356803.JPG,,33,true,0.3600000000000002,lh,keypress(e),0,false,4078635.5,4078635.2999999523,4076379.012,4076486.5,4076380.7,4078532.5,1,40,12,
sequence,flow.Sequence,6_11,2024-04-19T14:18:36.939Z,,,,,,,,,,,2254.59999995213,completion,,,,,,,low,high,,,,,,,true,,,,,false,4078635.6999999285,4078635.2999999523,4076379.012,4076486.399999976,4076380.7,4078532.5,1,40,,
trial,html.Screen,6_12_0,2024-04-19T14:18:40.789Z,,,,1,-1.250220052739973,-1.2967258992731714,,,true,hh,3953,response,0.9112756881807856,1.2,-1.2,0.87743267531148,1.2,-1.2,high,high,,ISIC_0031368.JPG,,ISIC_0000387.JPG,,157,true,0.3600000000000002,hh,keypress(i),0,false,4082485.7999999523,4082485.5,4078516,4078635.6999999285,4078532.5,4082385.7,1,40,13,
sequence,flow.Sequence,6_12,2024-04-19T14:18:40.790Z,,,,,,,,,,,3953,completion,,,,,,,high,high,,,,,,,true,,,,,false,4082486.399999976,4082485.5,4078516,4078635.6999999285,4078532.5,4082385.7,1,40,,
trial,html.Screen,6_13_0,2024-04-19T14:18:43.413Z,,,,1,-1.238264833797662,-1.176099940770289,,,true,hh,2723.59999995213,response,1.3045229691102764,1.2,-1.2,1.1781544075681951,1.2,-1.2,high,high,,ISIC_0032861.JPG,,ISIC_6148533.JPG,,25,true,0.15000000000000002,hh,keypress(i),0,false,4085109.6999999285,4085109.2999999523,4082383.452,4082486.5999999046,4082385.7,4085004.5,1,40,14,
sequence,flow.Sequence,6_13,2024-04-19T14:18:43.414Z,,,,,,,,,,,2723.59999995213,completion,,,,,,,high,high,,,,,,,true,,,,,false,4085110.0999999046,4085109.2999999523,4082383.452,4082486.5,4082385.7,4085004.5,1,40,,
trial,html.Screen,6_14_0,2024-04-19T14:18:45.605Z,,,,1,-1.2315945866020412,-1.13226141421557,,,true,hh,2296.6999999284744,response,1.1727618800748076,1.2,-1.2,1.0636787813411093,1.2,-1.2,high,high,,ISIC_0033595.JPG,,ISIC_9690371.JPG,,25,true,0.15000000000000002,hh,keypress(i),0,false,4087301.5999999046,4087301.1999999285,4084987.9,4085110.399999976,4085004.5,4087206.3,1,40,15,
sequence,flow.Sequence,6_14,2024-04-19T14:18:45.606Z,,,,,,,,,,,2296.6999999284744,completion,,,,,,,high,high,,,,,,,true,,,,,false,4087302.1999999285,4087301.1999999285,4084987.9,4085110.399999976,4085004.5,4087206.3,1,40,,
trial,html.Screen,6_15_0,2024-04-19T14:18:49.955Z,,,,1,-1.2609895831255231,1.0687377724194886,,,true,hl,4445.099999976344,response,1.4727776799485246,1.2,-1.2,-0.8779113138076752,1.2,-1.2,high,low,,ISIC_1367610.JPG,,ISIC_0033074.JPG,,29,true,0.3600000000000002,hl,keypress(j),0,false,4091651.5,4091651.399999976,4087205.552,4087302.399999976,4087206.3,4091543.2,1,40,16,
sequence,flow.Sequence,6_15,2024-04-19T14:18:49.955Z,,,,,,,,,,,4445.099999976344,completion,,,,,,,high,low,,,,,,,true,,,,,false,4091651.5999999046,4091651.399999976,4087205.552,4087302.2999999523,4087206.3,4091543.2,1,40,,
trial,html.Screen,6_16_0,2024-04-19T14:18:54.910Z,,,,1,-1.194799101954455,-1.2071632388858642,,,true,hh,5062.699999975972,response,1.337727324390105,1.2,-1.2,0.991130212635482,1.2,-1.2,high,high,,ISIC_4347535.JPG,,ISIC_9596388.JPG,,127,true,0.3300000000000002,hh,keypress(i),0,false,4096606.1999999285,4096605.899999976,4091526.8,4091651.5999999046,4091543.2,4096497.4,1,40,17,
sequence,flow.Sequence,6_16,2024-04-19T14:18:54.910Z,,,,,,,,,,,5062.699999975972,completion,,,,,,,high,high,,,,,,,true,,,,,false,4096606.7999999523,4096605.899999976,4091526.8,4091651.5999999046,4091543.2,4096497.4,1,40,,
trial,html.Screen,6_17_0,2024-04-19T14:18:58.891Z,,,,1,1.1604734171556077,1.0789312625280616,,,true,ll,4089.8999999524094,response,-1.1715181192107684,1.2,-1.2,-1.2251845559044463,1.2,-1.2,low,low,,ISIC_3950753.JPG,,ISIC_0011957.JPG,,27,true,0.12,ll,keypress(f),0,false,4100587.399999976,4100587.2999999523,4096494.042,4096607,4096497.4,4100483.9,1,40,18,
sequence,flow.Sequence,6_17,2024-04-19T14:18:58.891Z,,,,,,,,,,,4089.8999999524094,completion,,,,,,,low,low,,,,,,,true,,,,,false,4100587.5,4100587.2999999523,4096494.042,4096606.899999976,4096497.4,4100483.9,1,40,,
trial,html.Screen,6_18_0,2024-04-19T14:19:02.973Z,,,,1,1.301795918505203,1.0518606632781424,,,true,ll,4185.399999952409,response,-1.0698162624196283,1.2,-1.2,-1.0648460966097275,1.2,-1.2,low,low,,ISIC_0027666.JPG,,ISIC_0030552.JPG,,41,true,0.15000000000000002,ll,keypress(f),0,false,4104669.5,4104669.2999999523,4100467.5,4100587.5,4100483.9,4104587.7,1,40,19,
sequence,flow.Sequence,6_18,2024-04-19T14:19:02.974Z,,,,,,,,,,,4185.399999952409,completion,,,,,,,low,low,,,,,,,true,,,,,false,4104670,4104669.2999999523,4100467.5,4100587.5,4100483.9,4104587.7,1,40,,
trial,html.Screen,6_19_0,2024-04-19T14:19:08.477Z,,,,1,-1.194799101954455,-1.2071632388858642,,,true,hh,5585.199999975972,response,1.1510001454240106,1.2,-1.2,1.132540312667795,1.2,-1.2,high,high,,ISIC_4347535.JPG,,ISIC_0009959.JPG,,25,true,0.15000000000000002,hh,keypress(i),0,false,4110173.2999999523,4110172.899999976,4104570.8,4104670.1999999285,4104587.7,4110058.6,1,40,20,
sequence,flow.Sequence,6_19,2024-04-19T14:19:08.477Z,,,,,,,,,,,5585.199999975972,completion,,,,,,,high,high,,,,,,,true,,,,,false,4110173.5999999046,4110172.899999976,4104570.8,4104670.1999999285,4104587.7,4110058.6,1,40,,
trial,html.Screen,6_20_0,2024-04-19T14:19:12.197Z,,,,1,1.1168199061753437,1.212287319329914,,,true,ll,3834.699999952223,response,-1.089914260719518,1.2,-1.2,-1.1695563571046357,1.2,-1.2,low,low,,ISIC_5919355.JPG,,ISIC_0030695.JPG,,27,true,0.12,ll,keypress(f),0,false,4113893.7999999523,4113893.2999999523,4110054.754,4110173.7999999523,4110058.6,4113811.9,1,40,21,
sequence,flow.Sequence,6_20,2024-04-19T14:19:12.198Z,,,,,,,,,,,3834.699999952223,completion,,,,,,,low,low,,,,,,,true,,,,,false,4113894.2999999523,4113893.2999999523,4110054.754,4110173.6999999285,4110058.6,4113811.9,1,40,,
trial,html.Screen,6_21_0,2024-04-19T14:19:15.621Z,,,,1,-1.0264463986917702,1.171271535505083,,,true,hl,3505.2999999285676,response,1.00615481805876,1.2,-1.2,-0.8428903771195875,1.2,-1.2,high,low,,ISIC_7889838.JPG,,ISIC_0069970.JPG,,29,true,0.3600000000000002,hl,keypress(j),0,false,4117317.5,4117317.1999999285,4113795,4113894.5,4113811.9,4117214.5,1,40,22,
sequence,flow.Sequence,6_21,2024-04-19T14:19:15.622Z,,,,,,,,,,,3505.2999999285676,completion,,,,,,,high,low,,,,,,,true,,,,,false,4117318.0999999046,4117317.1999999285,4113795,4113894.399999976,4113811.9,4117214.5,1,40,,
trial,html.Screen,6_22_0,2024-04-19T14:19:19.364Z,,,,1,1.0581281450494728,1.133169116569424,,,true,ll,3845.5,response,-1.418771357270887,1.2,-1.2,-1.1578619398362149,1.2,-1.2,low,low,,ISIC_5490352.JPG,,ISIC_0024999.JPG,,211,true,0.3300000000000002,ll,keypress(f),0,false,4121060.1999999285,4121060,4117197.8,4117318.399999976,4117214.5,4120950.8,1,40,23,
sequence,flow.Sequence,6_22,2024-04-19T14:19:19.364Z,,,,,,,,,,,3845.5,completion,,,,,,,low,low,,,,,,,true,,,,,false,4121060.2999999523,4121060,4117197.8,4117318.1999999285,4117214.5,4120950.8,1,40,,
trial,html.Screen,6_23_0,2024-04-19T14:19:23.189Z,,,,1,-1.3034518282811869,-1.0897657776277234,,,true,hh,3934.3999999286607,response,1.1727618800748076,1.2,-1.2,1.0636787813411093,1.2,-1.2,high,high,,ISIC_0071988.JPG,,ISIC_9690371.JPG,,25,true,0.15000000000000002,hh,keypress(i),0,false,4124885.5,4124885.1999999285,4120934.4,4121060.2999999523,4120950.8,4124788,1,40,24,
sequence,flow.Sequence,6_23,2024-04-19T14:19:23.190Z,,,,,,,,,,,3934.3999999286607,completion,,,,,,,high,high,,,,,,,true,,,,,false,4124886,4124885.1999999285,4120934.4,4121060.2999999523,4120950.8,4124788,1,40,,
trial,html.Screen,6_24_0,2024-04-19T14:19:28.453Z,,,,1,1.1168199061753437,1.212287319329914,,,true,ll,5361.399999976158,response,-1.1894733304494307,1.2,-1.2,-1.1169761866204877,1.2,-1.2,low,low,,ISIC_5919355.JPG,,ISIC_0033813.JPG,,27,true,0.12,ll,keypress(f),0,false,4130149.7999999523,4130149.399999976,4124768.354,4124886.2999999523,4124788,4130054.796,1,40,25,
sequence,flow.Sequence,6_24,2024-04-19T14:19:28.454Z,,,,,,,,,,,5361.399999976158,completion,,,,,,,low,low,,,,,,,true,,,,,false,4130150.1999999285,4130149.399999976,4124768.354,4124886.0999999046,4124788,4130054.796,1,40,,
trial,html.Screen,6_25_0,2024-04-19T14:19:33.696Z,,,,1,-0.9873794329144926,0.9500689037516484,,,true,hl,5336.503999952227,response,0.9013888878932071,1.2,-1.2,-0.9328095253308732,1.2,-1.2,high,low,,ISIC_0013498.JPG,,ISIC_0068259.JPG,,29,true,0.3600000000000002,hl,keypress(j),0,false,4135391.7999999523,4135391.2999999523,4130054.796,4130150.5,4130054.796,4135279.4,1,40,26,
sequence,flow.Sequence,6_25,2024-04-19T14:19:33.696Z,,,,,,,,,,,5336.503999952227,completion,,,,,,,high,low,,,,,,,true,,,,,false,4135392.5,4135391.2999999523,4130054.796,4130150.5,4130054.796,4135279.4,1,40,,
trial,html.Screen,6_26_0,2024-04-19T14:19:36.613Z,,,,1,-1.2043484010107477,1.2178113180138233,,,true,hl,3029.4999999762513,response,0.9385447468573198,1.2,-1.2,-1.2289860846064424,1.2,-1.2,high,low,,ISIC_0011917.JPG,,ISIC_0032780.JPG,,29,true,0.3600000000000002,hl,keypress(j),0,false,4138309.2999999523,4138308.899999976,4135275.798,4135392.899999976,4135279.4,4138198.5,1,40,27,
sequence,flow.Sequence,6_26,2024-04-19T14:19:36.613Z,,,,,,,,,,,3029.4999999762513,completion,,,,,,,high,low,,,,,,,true,,,,,false,4138309.6999999285,4138308.899999976,4135275.798,4135392.7999999523,4135279.4,4138198.5,1,40,,
trial,html.Screen,6_27_0,2024-04-19T14:19:39.076Z,,,,1,-1.1783311757907324,-1.266840220031473,,,true,hh,2573.5999999046326,response,1.3366248363522348,1.2,-1.2,0.9006169139141662,1.2,-1.2,high,high,,ISIC_8241457.JPG,,ISIC_0030697.JPG,,127,true,0.3300000000000002,hh,keypress(i),0,false,4140772.1999999285,4140772.0999999046,4138196.724,4138310,4138198.5,4140667.4,1,40,28,
sequence,flow.Sequence,6_27,2024-04-19T14:19:39.076Z,,,,,,,,,,,2573.5999999046326,completion,,,,,,,high,high,,,,,,,true,,,,,false,4140772.2999999523,4140772.0999999046,4138196.724,4138309.899999976,4138198.5,4140667.4,1,40,,
trial,html.Screen,6_28_0,2024-04-19T14:19:44.046Z,,,,1,1.1604734171556077,1.0789312625280616,,,true,ll,5074.100000000093,response,-1.1407514641016443,1.2,-1.2,-1.280017651202714,1.2,-1.2,low,low,,ISIC_3950753.JPG,,ISIC_0072507.JPG,,27,true,0.12,ll,keypress(f),0,false,4145741.7999999523,4145741.5,4140650.7,4140772.2999999523,4140667.4,4145638,1,40,29,
sequence,flow.Sequence,6_28,2024-04-19T14:19:44.046Z,,,,,,,,,,,5074.100000000093,completion,,,,,,,low,low,,,,,,,true,,,,,false,4145742.399999976,4145741.5,4140650.7,4140772.2999999523,4140667.4,4145638,1,40,,
trial,html.Screen,6_29_0,2024-04-19T14:19:50.606Z,,,,1,-1.152619213055059,-1.2957497771092716,,,true,hh,6663.599999904633,response,1.1363600109870835,1.2,-1.2,1.295816345369928,1.2,-1.2,high,high,,ISIC_0061915.JPG,,ISIC_0026141.JPG,,25,true,0.15000000000000002,hh,keypress(i),0,false,4152301.899999976,4152301.5999999046,4145634.674,4145742.5999999046,4145638,4152210,1,40,30,
sequence,flow.Sequence,6_29,2024-04-19T14:19:50.606Z,,,,,,,,,,,6663.599999904633,completion,,,,,,,high,high,,,,,,,true,,,,,false,4152302.5999999046,4152301.5999999046,4145634.674,4145742.5,4145638,4152210,1,40,,
trial,html.Screen,6_30_0,2024-04-19T14:19:55.876Z,,,,1,-1.055319394932912,1.409116680310466,,,true,hl,5362,response,0.8494721812820843,1.2,-1.2,-1.3435429139974266,1.2,-1.2,high,low,,ISIC_6398669.JPG,,ISIC_0033585.JPG,,29,true,0.3600000000000002,hl,keypress(j),0,false,4157572.0999999046,4157572,4152205.244,4152302.7999999523,4152210,4157464.3,1,40,31,
sequence,flow.Sequence,6_30,2024-04-19T14:19:55.876Z,,,,,,,,,,,5362,completion,,,,,,,high,low,,,,,,,true,,,,,false,4157572.1999999285,4157572,4152205.244,4152302.6999999285,4152210,4157464.3,1,40,,
trial,html.Screen,6_31_0,2024-04-19T14:19:58.366Z,,,,1,-1.296989496412063,1.1425074323097002,,,true,hl,2597.2000000001863,response,0.8779374983479176,1.2,-1.2,-0.9745548032823428,1.2,-1.2,high,low,,ISIC_6356803.JPG,,ISIC_2991354.JPG,,29,true,0.3600000000000002,hl,keypress(j),0,false,4160062,4160061.5,4157463.036,4157572.1999999285,4157464.3,4159949.9,1,40,32,
sequence,flow.Sequence,6_31,2024-04-19T14:19:58.366Z,,,,,,,,,,,2597.2000000001863,completion,,,,,,,high,low,,,,,,,true,,,,,false,4160062.5,4160061.5,4157463.036,4157572.1999999285,4157464.3,4159949.9,1,40,,
trial,html.Screen,6_32_0,2024-04-19T14:20:02.069Z,,,,1,1.1217390688497193,1.2276600934505035,,,true,ll,3815.2999999285676,response,-0.9738365957110542,1.2,-1.2,-0.9145475604754156,1.2,-1.2,low,low,,ISIC_0026344.JPG,,ISIC_3435596.JPG,,211,true,0.3300000000000002,ll,keypress(f),0,false,4163765.5,4163765.1999999285,4159948.874,4160062.7999999523,4159949.9,4163652.9,1,40,33,
sequence,flow.Sequence,6_32,2024-04-19T14:20:02.070Z,,,,,,,,,,,3815.2999999285676,completion,,,,,,,low,low,,,,,,,true,,,,,false,4163765.899999976,4163765.1999999285,4159948.874,4160062.6999999285,4159949.9,4163652.9,1,40,,
trial,html.Screen,6_33_0,2024-04-19T14:20:05.181Z,,,,1,1.294521945180264,1.3078626540563885,,,true,ll,3224.3999999524094,response,-1.152619213055059,1.2,-1.2,-1.2957497771092716,1.2,-1.2,low,low,,ISIC_3601224.JPG,,ISIC_0061915.JPG,,41,true,0.15000000000000002,ll,keypress(f),0,false,4166877.5999999046,4166877.2999999523,4163650.826,4163766.0999999046,4163652.9,4166772.1,1,40,34,
sequence,flow.Sequence,6_33,2024-04-19T14:20:05.182Z,,,,,,,,,,,3224.3999999524094,completion,,,,,,,low,low,,,,,,,true,,,,,false,4166878.0999999046,4166877.2999999523,4163650.826,4163766.0999999046,4163652.9,4166772.1,1,40,,
trial,html.Screen,6_34_0,2024-04-19T14:20:08.455Z,,,,1,1.0143509683988825,-1.0281980567462463,,,true,lh,3378.799999976065,response,-1.0700930503975157,1.2,-1.2,0.923753102263735,1.2,-1.2,low,high,,ISIC_0062031.JPG,,ISIC_0000022.JPG,,26,true,0.3300000000000002,lh,keypress(e),0,false,4170151.399999976,4170150.899999976,4166770.516,4166878.5,4166772.1,4170041.5,1,40,35,
sequence,flow.Sequence,6_34,2024-04-19T14:20:08.456Z,,,,,,,,,,,3378.799999976065,completion,,,,,,,low,high,,,,,,,true,,,,,false,4170152,4170150.899999976,4166770.516,4166878.2999999523,4166772.1,4170041.5,1,40,,
trial,html.Screen,6_35_0,2024-04-19T14:20:11.374Z,,,,1,-1.082730232773217,0.8833175387485132,,,true,hl,3028,response,0.9445114955578736,1.2,-1.2,-1.0054210059625863,1.2,-1.2,high,low,,ISIC_0011933.JPG,,ISIC_0033807.JPG,,29,true,0.3600000000000002,hl,keypress(j),0,false,4173069.899999976,4173069.5,4170039.71,4170152.5,4170041.5,4172975.69,1,40,36,
sequence,flow.Sequence,6_35,2024-04-19T14:20:11.374Z,,,,,,,,,,,3028,completion,,,,,,,high,low,,,,,,,true,,,,,false,4173070.399999976,4173069.5,4170039.71,4170152.2999999523,4170041.5,4172975.69,1,40,,
trial,html.Screen,6_36_0,2024-04-19T14:20:13.902Z,,,,1,-1.2704198237183777,1.138121072015301,,,true,hl,2621.709999976214,response,1.1235224875125256,1.2,-1.2,-0.8641223012137988,1.2,-1.2,high,low,,ISIC_0501843.JPG,,ISIC_0033901.JPG,,29,true,0.3600000000000002,hl,keypress(j),0,false,4175597.6999999285,4175597.399999976,4172975.69,4173070.6999999285,4172975.69,4175496.2,1,40,37,
sequence,flow.Sequence,6_36,2024-04-19T14:20:13.902Z,,,,,,,,,,,2621.709999976214,completion,,,,,,,high,low,,,,,,,true,,,,,false,4175598.2999999523,4175597.399999976,4172975.69,4173070.5,4172975.69,4175496.2,1,40,,
trial,html.Screen,6_37_0,2024-04-19T14:20:17.668Z,,,,1,-1.1715181192107684,-1.2251845559044463,,,true,hh,3867.59999995213,response,0.9490045439645592,1.2,-1.2,1.21751560785155,1.2,-1.2,high,high,,ISIC_0011957.JPG,,ISIC_3779424.JPG,,127,true,0.3300000000000002,hh,keypress(i),0,false,4179364,4179363.7999999523,4175479.5,4175598.5,4175496.2,4179248.9,1,40,38,
sequence,flow.Sequence,6_37,2024-04-19T14:20:17.668Z,,,,,,,,,,,3867.59999995213,completion,,,,,,,high,high,,,,,,,true,,,,,false,4179364.2999999523,4179363.7999999523,4175479.5,4175598.5,4175496.2,4179248.9,1,40,,
trial,html.Screen,6_38_0,2024-04-19T14:20:20.446Z,,,,1,-0.9448560599810628,0.9099421612683488,,,true,hl,2892.8999999524094,response,0.9013888878932071,1.2,-1.2,-0.9328095253308732,1.2,-1.2,high,low,,ISIC_9684318.JPG,,ISIC_0068259.JPG,,29,true,0.3600000000000002,hl,keypress(j),0,false,4182142.1999999285,4182141.7999999523,4179246.99,4179364.5,4179248.9,4182034.7,1,40,39,
sequence,flow.Sequence,6_38,2024-04-19T14:20:20.446Z,,,,,,,,,,,2892.8999999524094,completion,,,,,,,high,low,,,,,,,true,,,,,false,4182142.6999999285,4182141.7999999523,4179246.99,4179364.5,4179248.9,4182034.7,1,40,,
trial,html.Screen,6_39_0,2024-04-19T14:20:24.341Z,,,,1,0.8479396253253069,-1.011054319516718,,,true,lh,4002.59999995213,response,-1.2609895831255231,1.2,-1.2,1.0687377724194886,1.2,-1.2,low,high,,ISIC_0063521.JPG,,ISIC_1367610.JPG,,26,true,0.3300000000000002,lh,keypress(e),0,false,4186037.5999999046,4186037.2999999523,4182033.196,4182142.899999976,4182034.7,4185937.9,1,40,40,
sequence,flow.Sequence,6_39,2024-04-19T14:20:24.342Z,,,,,,,,,,,4002.59999995213,completion,,,,,,,low,high,,,,,,,true,,,,,false,4186038.0999999046,4186037.2999999523,4182033.196,4182142.7999999523,4182034.7,4185937.9,1,40,,
practice_loop,flow.Loop,6,2024-04-19T14:20:24.342Z,,,,,,,,,,,190373.33999995235,completion,,,,,,,,,,,,,,,true,,,,,false,4186038.399999976,4186037.2999999523,3995663.96,3995764.6999999285,3995663.96,4185937.9,1,40,,
stair_instructions,html.Screen,7,2024-04-19T14:20:27.963Z,,,,,,,,,,,3720.9999999762513,response,,,,,,,,,,,,,,,,,continue,click button,,,4189659.5,4189658.899999976,4185921.5,4186038.5999999046,4185937.9,4189557.8,,,,
trial,html.Screen,8_0_0,2024-04-19T14:20:35.173Z,,,,2,-0.0350697500805515,-0.0166617848231997,,0.04,true,lh,7311.200000000186,response,-1.0345332538240786,1.2,-1.2,1.4719115945084815,1.2,-1.2,low,high,,ISIC_0024423.JPG,,ISIC_0192490.JPG,28,33,false,0.3600000000000002,lh,keypress(e),0,true,4196869.1999999285,4196869,4189541.128,4189659.5999999046,4189557.8,4196763.5,1,40,1,
sequence,flow.Sequence,8_0,2024-04-19T14:20:35.173Z,,,,,,,,,,,7311.200000000186,completion,,,,,,,low,high,,,,,,,false,,,,,true,4196869.1999999285,4196869,4189541.128,4189659.5999999046,4189557.8,4196763.5,1,40,,
trial,html.Screen,8_1_0,2024-04-19T14:20:37.540Z,,,,2,0.010035581303589,-0.0100711721396864,,0.04,true,lh,2472.899999976158,response,-1.052305774554686,1.15,-1.15,1.3940181224717798,1.15,-1.15,low,high,,ISIC_0030592.JPG,,ISIC_4175400.JPG,28,25,false,0.28000000000000014,lh,keypress(e),0,true,4199236.6999999285,4199236.399999976,4196758.588,4196869.399999976,4196763.5,4199132.1,1,40,2,
sequence,flow.Sequence,8_1,2024-04-19T14:20:37.541Z,,,,,,,,,,,2472.899999976158,completion,,,,,,,low,high,,,,,,,false,,,,,true,4199237,4199236.399999976,4196758.588,4196869.299999952,4196763.5,4199132.1,1,40,,
trial,html.Screen,8_2_0,2024-04-19T14:20:48.526Z,,,,2,0.0327772618698018,-0.0056908372048728,,0.04,true,hl,11089.900000000373,response,1.3515962101204746,1.15,-1.0999999999999999,-0.8414583575292955,1.3329648584901306,-1.15,high,low,,ISIC_7897925.JPG,,ISIC_0274382.JPG,28,27,false,0.31000000000000016,hl,keypress(j),0,true,4210222.5,4210222,4199131.312,4199237.099999905,4199132.1,4210125.2,1,40,3,
sequence,flow.Sequence,8_2,2024-04-19T14:20:48.527Z,,,,,,,,,,,11089.900000000373,completion,,,,,,,high,low,,,,,,,false,,,,,true,4210223.099999905,4210222,4199131.312,4199237.099999905,4199132.1,4210125.2,1,40,,
trial,html.Screen,8_3_0,2024-04-19T14:20:57.022Z,,,,2,-0.0060918352854008,0.029032683404407,,0.04,false,ll,8592.299999999814,response,-1.02958055269592,1.15,-1.0999999999999999,-1.159278377691306,1.2829648584901305,-1.15,low,low,,ISIC_8436194.JPG,,ISIC_0027190.JPG,28,29,false,0.11,hh,keypress(i),0,true,4218717.799999952,4218717.5,4210116.234,4210223.299999952,4210125.2,4218625.3,1,40,4,
sequence,flow.Sequence,8_3,2024-04-19T14:20:57.022Z,,,,,,,,,,,8592.299999999814,completion,,,,,,,low,low,,,,,,,false,,,,,true,4218718.399999976,4218717.5,4210116.234,4210223.299999952,4210125.2,4218625.3,1,40,,
trial,html.Screen,8_4_0,2024-04-19T14:20:59.622Z,,,,2,0.0327772618698018,-0.0056908372048728,,0.04,true,lh,2692.7000000001863,response,-1.2609895831255231,1.15,-1.15,1.0687377724194886,1.2329648584901305,-1.15,low,high,,ISIC_7897925.JPG,,ISIC_1367610.JPG,28,28,false,0.31000000000000016,lh,keypress(e),0,true,4221318.299999952,4221318,4218625.3,4218718.599999905,4218625.3,4221217,1,40,5,
sequence,flow.Sequence,8_4,2024-04-19T14:20:59.623Z,,,,,,,,,,,2692.7000000001863,completion,,,,,,,low,high,,,,,,,false,,,,,true,4221318.899999976,4221318,4218625.3,4218718.599999905,4218625.3,4221217,1,40,,
trial,html.Screen,8_5_0,2024-04-19T14:21:05.557Z,,,,2,0.0086413421586899,0.0360184993500958,,0.04,false,hh,6036.399999976158,response,1.0581281450494728,1.15,-1.15,1.133169116569424,1.1829648584901304,-1.15,high,high,,ISIC_0010767.JPG,,ISIC_5490352.JPG,28,30,false,0.15000000000000002,hl,keypress(j),0,true,4227253.6999999285,4227253.399999976,4221200.6,4221319.1999999285,4221217,4227155.8,1,40,6,
sequence,flow.Sequence,8_5,2024-04-19T14:21:05.558Z,,,,,,,,,,,6036.399999976158,completion,,,,,,,high,high,,,,,,,false,,,,,true,4227254.1999999285,4227253.399999976,4221200.6,4221319.1999999285,4221217,4227155.8,1,40,,
trial,html.Screen,8_6_0,2024-04-19T14:21:13.238Z,,,,2,-0.0050679133050021,-0.0174815595031679,,0.04,true,hh,7777.899999928661,response,1.0008138976134489,1.0134329587344808,-1.15,1.292636741787064,1.1829648584901304,-1.15,high,high,,ISIC_9848743.JPG,,ISIC_6000407.JPG,28,26,false,0.12,hh,keypress(i),0,true,4234934.099999905,4234933.6999999285,4227134.47,4227254.399999976,4227155.8,4234828.3,1,40,7,
sequence,flow.Sequence,8_6,2024-04-19T14:21:13.238Z,,,,,,,,,,,7777.899999928661,completion,,,,,,,high,high,,,,,,,false,,,,,true,4234934.599999905,4234933.6999999285,4227134.47,4227254.399999976,4227155.8,4234828.3,1,40,,
trial,html.Screen,8_7_0,2024-04-19T14:21:19.237Z,,,,2,0.0327772618698018,-0.0056908372048728,,0.04,false,hh,6105.099999976344,response,1.0885984639975343,1.0134329587344808,-1.15,1.2042618719491294,1.1829648584901304,-1.15,high,high,,ISIC_7897925.JPG,,ISIC_0012740.JPG,28,26,false,0.12,hl,keypress(j),0,true,4240933.6999999285,4240933.399999976,4234822.734,4234934.6999999285,4234828.3,4240833.2,1,40,8,
sequence,flow.Sequence,8_7,2024-04-19T14:21:19.238Z,,,,,,,,,,,6105.099999976344,completion,,,,,,,high,high,,,,,,,false,,,,,true,4240934.1999999285,4240933.399999976,4234822.734,4234934.599999905,4234828.3,4240833.2,1,40,,
trial,html.Screen,8_8_0,2024-04-19T14:21:28.599Z,,,,2,-0.0350697500805515,-0.0166617848231997,,0.04,true,hl,9461.09999995213,response,0.9039158082670506,1.1406176028922992,-1.15,-1.0517562064343149,1.1829648584901304,-1.15,high,low,,ISIC_0024423.JPG,,ISIC_0015411.JPG,28,27,false,0.31000000000000016,hl,keypress(j),0,true,4250294.799999952,4250294.299999952,4240829.2,4240934.399999976,4240833.2,4250191.4,1,40,9,
sequence,flow.Sequence,8_8,2024-04-19T14:21:28.599Z,,,,,,,,,,,9461.09999995213,completion,,,,,,,high,low,,,,,,,false,,,,,true,4250295.299999952,4250294.299999952,4240829.2,4240934.1999999285,4240833.2,4250191.4,1,40,,
trial,html.Screen,8_9_0,2024-04-19T14:21:36.422Z,,,,2,-0.0077673378094614,-0.0021810768579373,,0.04,false,ll,7926.19999990426,response,-1.0698162624196283,1.1406176028922992,-1.15,-1.0648460966097275,1.1829648584901304,-1.15,low,low,,ISIC_0067621.JPG,,ISIC_0030552.JPG,28,25,false,0.11,hh,keypress(i),0,true,4258118,4258117.599999905,4250183.966,4250295.599999905,4250191.4,4258014.1,1,40,10,
sequence,flow.Sequence,8_9,2024-04-19T14:21:36.422Z,,,,,,,,,,,7926.19999990426,completion,,,,,,,low,low,,,,,,,false,,,,,true,4258118.5,4258117.599999905,4250183.966,4250295.5,4250191.4,4258014.1,1,40,,
trial,html.Screen,8_10_0,2024-04-19T14:21:47.262Z,,,,2,-0.0060918352854008,0.029032683404407,,0.04,true,hl,10943.699999952689,response,1.1224745971429997,1.1406176028922992,-1.15,-0.8423270217438888,1.1829648584901304,-1.15,high,low,,ISIC_8436194.JPG,,ISIC_0057032.JPG,28,27,false,0.31000000000000016,hl,keypress(j),0,true,4268958.099999905,4268957.799999952,4258008.394,4258118.6999999285,4258014.1,4268856.4,1,40,11,
sequence,flow.Sequence,8_10,2024-04-19T14:21:47.262Z,,,,,,,,,,,10943.699999952689,completion,,,,,,,high,low,,,,,,,false,,,,,true,4268958.799999952,4268957.799999952,4258008.394,4258118.599999905,4258014.1,4268856.4,1,40,,
trial,html.Screen,8_11_0,2024-04-19T14:22:03.222Z,,,,2,0.010035581303589,-0.0100711721396864,,0.04,false,ll,16061.299999928102,response,-1.0474638406367112,1.0906176028922991,-1.15,-1.2142897533079478,1.1829648584901304,-1.15,low,low,,ISIC_0030592.JPG,,ISIC_0025277.JPG,28,25,false,0.11,hl,keypress(j),0,true,4284918.099999905,4284917.6999999285,4268848.14,4268958.899999976,4268856.4,4284820,1,40,12,
sequence,flow.Sequence,8_11,2024-04-19T14:22:03.222Z,,,,,,,,,,,16061.299999928102,completion,,,,,,,low,low,,,,,,,false,,,,,true,4284918.599999905,4284917.6999999285,4268848.14,4268958.899999976,4268856.4,4284820,1,40,,
trial,html.Screen,8_12_0,2024-04-19T14:22:07.765Z,,,,2,-0.012020985739544,0.0126097407389903,,0.04,false,hh,4641.199999928474,response,1.1305948371148624,1.0906176028922991,-1.15,1.2802709447034604,1.1829648584901304,-0.9783083875259182,high,high,,ISIC_0069379.JPG,,ISIC_5648111.JPG,28,31,false,0.14,lh,keypress(e),0,true,4289461.5,4289461.1999999285,4284803,4284918.799999952,4284820,4289356.7,1,40,13,
sequence,flow.Sequence,8_12,2024-04-19T14:22:07.766Z,,,,,,,,,,,4641.199999928474,completion,,,,,,,high,high,,,,,,,false,,,,,true,4289462,4289461.1999999285,4284803,4284918.799999952,4284820,4289356.7,1,40,,
trial,html.Screen,8_13_0,2024-04-19T14:22:10.699Z,,,,2,0.0189295602385628,0.0128812415435153,,0.04,true,lh,3038.499999928288,response,-1.0345332538240786,1.1406176028922992,-1.15,1.4719115945084815,1.1829648584901304,-0.9783083875259182,low,high,,ISIC_0010372.JPG,,ISIC_0192490.JPG,28,27,false,0.29000000000000015,lh,keypress(e),0,true,4292395.299999952,4292395.1999999285,4289353.758,4289462.399999976,4289356.7,4292292.4,1,40,14,
sequence,flow.Sequence,8_13,2024-04-19T14:22:10.699Z,,,,,,,,,,,3038.499999928288,completion,,,,,,,low,high,,,,,,,false,,,,,true,4292395.399999976,4292395.1999999285,4289353.758,4289462.299999952,4289356.7,4292292.4,1,40,,
trial,html.Screen,8_14_0,2024-04-19T14:22:12.397Z,,,,2,0.0199897690678184,0.0312486875504497,,0.04,true,lh,1800.9999999757856,response,-1.155796217969438,1.1406176028922992,-1.15,1.1646564121743912,1.1329648584901304,-0.9783083875259182,low,high,,ISIC_5482426.JPG,,ISIC_2685523.JPG,28,26,false,0.28000000000000014,lh,keypress(e),0,true,4294093.6999999285,4294093.399999976,4292290.89,4292395.5,4292292.4,4293993.9,1,40,15,
sequence,flow.Sequence,8_14,2024-04-19T14:22:12.398Z,,,,,,,,,,,1800.9999999757856,completion,,,,,,,low,high,,,,,,,false,,,,,true,4294094.1999999285,4294093.399999976,4292290.89,4292395.5,4292292.4,4293993.9,1,40,,
trial,html.Screen,8_15_0,2024-04-19T14:22:23.916Z,,,,2,-0.0060934073440827,-0.0279108145883031,,0.04,false,hh,11617.899999951944,response,1.204229955025689,1.1406176028922992,-1.0999999999999999,1.0874249761617445,1.1329648584901304,-0.9783083875259182,high,high,,ISIC_0032604.JPG,,ISIC_0056930.JPG,28,28,false,0.14,ll,keypress(f),0,true,4305611.899999976,4305611.799999952,4293977.4,4294094.5,4293993.9,4305503.3,1,40,16,
sequence,flow.Sequence,8_15,2024-04-19T14:22:23.916Z,,,,,,,,,,,11617.899999951944,completion,,,,,,,high,high,,,,,,,false,,,,,true,4305612,4305611.799999952,4293977.4,4294094.399999976,4293993.9,4305503.3,1,40,,
trial,html.Screen,8_16_0,2024-04-19T14:22:25.773Z,,,,2,-0.0166849894750452,0.0371614812368835,,0.04,false,hh,1965.8999999286607,response,1.0901635293704552,1.1906176028922992,-1.0999999999999999,1.0348352814358883,1.1829648584901304,-0.9783083875259182,high,high,,ISIC_6231450.JPG,,ISIC_7583134.JPG,28,26,false,0.15000000000000002,lh,keypress(e),0,true,4307469.599999905,4307469.1999999285,4305494.58,4305612,4305503.3,4307373.2,1,40,17,
sequence,flow.Sequence,8_16,2024-04-19T14:22:25.774Z,,,,,,,,,,,1965.8999999286607,completion,,,,,,,high,high,,,,,,,false,,,,,true,4307470.099999905,4307469.1999999285,4305494.58,4305612,4305503.3,4307373.2,1,40,,
trial,html.Screen,8_17_0,2024-04-19T14:22:28.469Z,,,,2,-0.0158987717472563,-0.0292472192292015,,0.04,true,lh,2792.199999975972,response,-0.9566823908868002,1.1906176028922992,-1.0999999999999999,0.9602125665128364,1.1829648584901304,-0.9783083875259182,low,high,,ISIC_1366765.JPG,,ISIC_0056784.JPG,28,27,false,0.2600000000000001,lh,keypress(e),0,true,4310165.6999999285,4310165.399999976,4307354.466,4307470.399999976,4307373.2,4310057.3,1,40,18,
sequence,flow.Sequence,8_17,2024-04-19T14:22:28.470Z,,,,,,,,,,,2792.199999975972,completion,,,,,,,low,high,,,,,,,false,,,,,true,4310166.299999952,4310165.399999976,4307354.466,4307470.299999952,4307373.2,4310057.3,1,40,,
trial,html.Screen,8_18_0,2024-04-19T14:22:30.782Z,,,,2,-0.0350697500805515,-0.0166617848231997,,0.04,false,hl,2420.299999904819,response,1.1501717278509027,1.1906176028922992,-1.0999999999999999,-0.8228936373136835,1.1329648584901304,-0.9783083875259182,high,low,,ISIC_0024423.JPG,,ISIC_8398000.JPG,28,25,false,0.2500000000000001,hh,keypress(i),0,true,4312478,4312477.599999905,4310056.426,4310166.399999976,4310057.3,4312375.8,1,40,19,
sequence,flow.Sequence,8_18,2024-04-19T14:22:30.782Z,,,,,,,,,,,2420.299999904819,completion,,,,,,,high,low,,,,,,,false,,,,,true,4312478.599999905,4312477.599999905,4310056.426,4310166.399999976,4310057.3,4312375.8,1,40,,
trial,html.Screen,8_19_0,2024-04-19T14:22:35.830Z,,,,2,0.0321039635696159,0.020496766286318,,0.04,true,hl,5150.200000000186,response,0.9464722688210522,1.1906176028922992,-1.0999999999999999,-0.7779875773283346,1.1329648584901304,-1.0283083875259182,high,low,,ISIC_0058063.JPG,,ISIC_5926550.JPG,28,30,false,0.29000000000000015,hl,keypress(j),0,true,4317526.299999952,4317526,4312358.9,4312478.899999976,4312375.8,4317413.3,1,40,20,
sequence,flow.Sequence,8_19,2024-04-19T14:22:35.831Z,,,,,,,,,,,5150.200000000186,completion,,,,,,,high,low,,,,,,,false,,,,,true,4317526.899999976,4317526,4312358.9,4312478.799999952,4312375.8,4317413.3,1,40,,
trial,html.Screen,8_20_0,2024-04-19T14:22:40.899Z,,,,2,-0.0077673378094614,-0.0021810768579373,,0.04,false,ll,5182.099999976344,response,-1.0561331896671369,1.1406176028922992,-1.0999999999999999,-1.026183861508091,1.1329648584901304,-1.0283083875259182,low,low,,ISIC_0067621.JPG,,ISIC_0026595.JPG,28,33,false,0.1,hl,keypress(j),0,true,4322595.599999905,4322595.399999976,4317409.772,4317527.099999905,4317413.3,4322484,1,40,21,
sequence,flow.Sequence,8_20,2024-04-19T14:22:40.899Z,,,,,,,,,,,5182.099999976344,completion,,,,,,,low,low,,,,,,,false,,,,,true,4322595.6999999285,4322595.399999976,4317409.772,4317527,4317413.3,4322484,1,40,,
trial,html.Screen,8_21_0,2024-04-19T14:22:50.070Z,,,,2,0.0321039635696159,0.020496766286318,,0.04,false,hl,9282.099999904633,response,1.1264523937924051,1.1406176028922992,-1.15,-0.729579583367798,1.1329648584901304,-0.8520857194182128,high,low,,ISIC_0058063.JPG,,ISIC_0032095.JPG,28,26,false,0.20000000000000007,ll,keypress(f),0,true,4331766.6999999285,4331766.099999905,4322480.904,4322595.6999999285,4322484,4331658.4,1,40,22,
sequence,flow.Sequence,8_21,2024-04-19T14:22:50.071Z,,,,,,,,,,,9282.099999904633,completion,,,,,,,high,low,,,,,,,false,,,,,true,4331767.399999976,4331766.099999905,4322480.904,4322595.6999999285,4322484,4331658.4,1,40,,
trial,html.Screen,8_22_0,2024-04-19T14:22:53.381Z,,,,2,-0.012810673904807,0.00400964452501,,0.04,true,ll,3418.9999999757856,response,-1.2268290566215505,1.1906176028922992,-1.15,-0.8279360932806596,1.1329648584901304,-0.8520857194182128,low,low,,ISIC_0064656.JPG,,ISIC_0064240.JPG,28,25,false,0.1,ll,keypress(f),0,true,4335077.6999999285,4335077.399999976,4331651.44,4331767.6999999285,4331658.4,4334977.8,1,40,23,
sequence,flow.Sequence,8_22,2024-04-19T14:22:53.382Z,,,,,,,,,,,3418.9999999757856,completion,,,,,,,low,low,,,,,,,false,,,,,true,4335078.1999999285,4335077.399999976,4331651.44,4331767.599999905,4331658.4,4334977.8,1,40,,
trial,html.Screen,8_23_0,2024-04-19T14:22:59.340Z,,,,2,-0.0077673378094614,-0.0021810768579373,,0.04,true,hl,6058.599999976344,response,1.3411487193830047,1.1906176028922992,-1.15,-1.198640448317381,1.1329648584901304,-0.9773825749511051,high,low,,ISIC_0067621.JPG,,ISIC_3093026.JPG,28,25,false,0.2500000000000001,hl,keypress(j),0,true,4341036.6999999285,4341036.399999976,4334961.3,4335078.399999976,4334977.8,4340932.6,1,40,24,
sequence,flow.Sequence,8_23,2024-04-19T14:22:59.341Z,,,,,,,,,,,6058.599999976344,completion,,,,,,,high,low,,,,,,,false,,,,,true,4341037,4341036.399999976,4334961.3,4335078.399999976,4334977.8,4340932.6,1,40,,
trial,html.Screen,8_24_0,2024-04-19T14:23:09.447Z,,,,2,-0.0060918352854008,0.029032683404407,,0.04,true,hl,10210.29999997653,response,1.2018448523268856,1.1906176028922992,-1.15,-0.8157731190790072,1.1329648584901304,-0.9773825749511051,high,low,,ISIC_8436194.JPG,,ISIC_7662993.JPG,28,25,false,0.2500000000000001,hl,keypress(j),0,true,4351143.299999952,4351142.899999976,4340928.602,4341037.099999905,4340932.6,4351041,1,40,25,
sequence,flow.Sequence,8_24,2024-04-19T14:23:09.448Z,,,,,,,,,,,10210.29999997653,completion,,,,,,,high,low,,,,,,,false,,,,,true,4351144,4351142.899999976,4340928.602,4341037.099999905,4340932.6,4351041,1,40,,
trial,html.Screen,8_25_0,2024-04-19T14:23:13.118Z,,,,2,-0.00126575685933,-0.0325046559638838,,0.04,false,lh,3772.5,response,-1.0748728054622358,1.1406176028922992,-1.15,1.2840853987892311,1.1329648584901304,-0.9572067836981939,low,high,,ISIC_5682259.JPG,,ISIC_0059219.JPG,28,26,false,0.28000000000000014,ll,keypress(f),0,true,4354813.799999952,4354813.5,4351033.236,4351144.1999999285,4351041,4354710.7,1,40,26,
sequence,flow.Sequence,8_25,2024-04-19T14:23:13.118Z,,,,,,,,,,,3772.5,completion,,,,,,,low,high,,,,,,,false,,,,,true,4354814.399999976,4354813.5,4351033.236,4351144.1999999285,4351041,4354710.7,1,40,,
trial,html.Screen,8_26_0,2024-04-19T14:23:15.237Z,,,,2,-0.0057914759495055,0.018500200317654,,0.04,false,hh,2222.699999975972,response,1.1305948371148624,1.1406176028922992,-1.0867566268898083,1.2802709447034604,1.1829648584901304,-0.9572067836981939,high,high,,ISIC_0058723.JPG,,ISIC_5648111.JPG,28,26,false,0.14,lh,keypress(e),0,true,4356933.799999952,4356933.399999976,4354708.56,4354814.599999905,4354710.7,4356829.2,1,40,27,
sequence,flow.Sequence,8_26,2024-04-19T14:23:15.238Z,,,,,,,,,,,2222.699999975972,completion,,,,,,,high,high,,,,,,,false,,,,,true,4356934.1999999285,4356933.399999976,4354708.56,4354814.5,4354710.7,4356829.2,1,40,,
trial,html.Screen,8_27_0,2024-04-19T14:23:25.614Z,,,,2,0.0086413421586899,0.0360184993500958,,0.04,false,hh,10480.399999904446,response,1.1990772227054871,1.1906176028922992,-1.0867566268898083,1.1224329926844498,1.1829648584901304,-0.9572067836981939,high,high,,ISIC_0010767.JPG,,ISIC_3425388.JPG,28,26,false,0.15000000000000002,lh,keypress(e),0,true,4367310,4367309.599999905,4356828.422,4356934.299999952,4356829.2,4367204.4,1,40,28,
sequence,flow.Sequence,8_27,2024-04-19T14:23:25.614Z,,,,,,,,,,,10480.399999904446,completion,,,,,,,high,high,,,,,,,false,,,,,true,4367310.599999905,4367309.599999905,4356828.422,4356934.299999952,4356829.2,4367204.4,1,40,,
trial,html.Screen,8_28_0,2024-04-19T14:23:33.750Z,,,,2,0.0086413421586899,0.0360184993500958,,0.04,true,hh,8241.099999999627,response,1.1802887330422154,1.1906176028922992,-1.0867566268898083,1.0224375154810723,1.151351968693955,-0.9572067836981939,high,high,,ISIC_0010767.JPG,,ISIC_9225640.JPG,28,26,false,0.14,hh,keypress(i),0,true,4375445.899999976,4375445.5,4367196.282,4367310.799999952,4367204.4,4375344.6,1,40,29,
sequence,flow.Sequence,8_28,2024-04-19T14:23:33.750Z,,,,,,,,,,,8241.099999999627,completion,,,,,,,high,high,,,,,,,false,,,,,true,4375446.5,4375445.5,4367196.282,4367310.6999999285,4367204.4,4375344.6,1,40,,
trial,html.Screen,8_29_0,2024-04-19T14:23:40.942Z,,,,2,-0.0057914759495055,0.018500200317654,,0.04,false,ll,7292.9000000003725,response,-1.0561331896671369,1.1906176028922992,-1.0867566268898083,-1.026183861508091,1.151351968693955,-0.9572067836981939,low,low,,ISIC_0058723.JPG,,ISIC_0026595.JPG,28,43,false,0.1,hl,keypress(j),0,true,4382637.799999952,4382637.5,4375327.8,4375446.6999999285,4375344.6,4382533.9,1,40,30,
sequence,flow.Sequence,8_29,2024-04-19T14:23:40.942Z,,,,,,,,,,,7292.9000000003725,completion,,,,,,,low,low,,,,,,,false,,,,,true,4382638.299999952,4382637.5,4375327.8,4375446.599999905,4375344.6,4382533.9,1,40,,
trial,html.Screen,8_30_0,2024-04-19T14:23:47.798Z,,,,2,-0.0060934073440827,-0.0279108145883031,,0.04,true,ll,6959.69999990426,response,-1.0765208267927882,1.1906176028922992,-1.1367566268898084,-0.8606651260669556,1.151351968693955,-0.9572067836981939,low,low,,ISIC_0032604.JPG,,ISIC_5313574.JPG,28,30,false,0.1,ll,keypress(f),0,true,4389494,4389493.599999905,4382528.452,4382638.5,4382533.9,4389389.3,1,40,31,
sequence,flow.Sequence,8_30,2024-04-19T14:23:47.798Z,,,,,,,,,,,6959.69999990426,completion,,,,,,,low,low,,,,,,,false,,,,,true,4389494.599999905,4389493.599999905,4382528.452,4382638.399999976,4382533.9,4389389.3,1,40,,
trial,html.Screen,8_31_0,2024-04-19T14:23:57.677Z,,,,2,-0.0071892445601978,0.0246015408628738,,0.04,false,lh,9983.89999992866,response,-0.9212323139676136,1.1906176028922992,-1.1367566268898084,0.9882196642247332,1.151351968693955,-0.9185929764298718,low,high,,ISIC_0014133.JPG,,ISIC_0014255.JPG,28,26,false,0.27000000000000013,ll,keypress(f),0,true,4399373.5,4399373.1999999285,4389384.366,4389494.799999952,4389389.3,4399264.2,1,40,32,
sequence,flow.Sequence,8_31,2024-04-19T14:23:57.678Z,,,,,,,,,,,9983.89999992866,completion,,,,,,,low,high,,,,,,,false,,,,,true,4399373.899999976,4399373.1999999285,4389384.366,4389494.6999999285,4389389.3,4399264.2,1,40,,
trial,html.Screen,8_32_0,2024-04-19T14:24:00.598Z,,,,2,-0.0023664502831079,-0.0252784582169994,,0.04,true,lh,3029.499999928288,response,-1.0822170028935367,1.1906176028922992,-0.9488765703802009,1.1654796154432183,1.151351968693955,-0.9185929764298718,low,high,,ISIC_4156010.JPG,,ISIC_7288818.JPG,28,28,false,0.21000000000000008,lh,keypress(e),0,true,4402294,4402293.6999999285,4399256.502,4399374.1999999285,4399264.2,4402183.3,1,40,33,
sequence,flow.Sequence,8_32,2024-04-19T14:24:00.598Z,,,,,,,,,,,3029.499999928288,completion,,,,,,,low,high,,,,,,,false,,,,,true,4402294.599999905,4402293.6999999285,4399256.502,4399374.099999905,4399264.2,4402183.3,1,40,,
trial,html.Screen,8_33_0,2024-04-19T14:24:09.110Z,,,,2,-0.00126575685933,-0.0325046559638838,,0.04,false,hl,8622.599999976344,response,1.2018448523268856,1.1906176028922992,-0.9488765703802009,-0.8157731190790072,1.151351968693955,-0.9185929764298718,high,low,,ISIC_5682259.JPG,,ISIC_7662993.JPG,28,26,false,0.2300000000000001,ll,keypress(f),0,true,4410806.399999976,4410805.899999976,4402181.79,4402294.899999976,4402183.3,4410707,1,40,34,
sequence,flow.Sequence,8_33,2024-04-19T14:24:09.111Z,,,,,,,,,,,8622.599999976344,completion,,,,,,,high,low,,,,,,,false,,,,,true,4410806.899999976,4410805.899999976,4402181.79,4402294.799999952,4402183.3,4410707,1,40,,
trial,html.Screen,8_34_0,2024-04-19T14:24:11.613Z,,,,2,-0.0060934073440827,-0.0279108145883031,,0.04,true,lh,2602.0999999046326,response,-0.7468996036626098,1.1906176028922992,-0.9488765703802009,1.0079605779898853,1.151351968693955,-0.9185929764298718,low,high,,ISIC_0032604.JPG,,ISIC_5335139.JPG,28,28,false,0.21000000000000008,lh,keypress(e),0,true,4413309.399999976,4413309.099999905,4410700.5,4410807.099999905,4410707,4413209.3,1,40,35,
sequence,flow.Sequence,8_34,2024-04-19T14:24:11.614Z,,,,,,,,,,,2602.0999999046326,completion,,,,,,,low,high,,,,,,,false,,,,,true,4413309.899999976,4413309.099999905,4410700.5,4410807.099999905,4410707,4413209.3,1,40,,
trial,html.Screen,8_35_0,2024-04-19T14:24:17.118Z,,,,2,-0.00126575685933,-0.0325046559638838,,0.04,false,hl,5604.200000000186,response,1.1224745971429997,1.1906176028922992,-0.8988765703802009,-0.8423270217438888,1.101351968693955,-0.9185929764298718,high,low,,ISIC_5682259.JPG,,ISIC_0057032.JPG,28,26,false,0.2300000000000001,hh,keypress(i),0,true,4418813.899999976,4418813.5,4413192.6,4413310.099999905,4413209.3,4418713.8,1,40,36,
sequence,flow.Sequence,8_35,2024-04-19T14:24:17.118Z,,,,,,,,,,,5604.200000000186,completion,,,,,,,high,low,,,,,,,false,,,,,true,4418814.399999976,4418813.5,4413192.6,4413310,4413209.3,4418713.8,1,40,,
trial,html.Screen,8_36_0,2024-04-19T14:24:23.237Z,,,,2,-0.0050679133050021,-0.0174815595031679,,0.04,true,ll,6219.599999976344,response,-0.9210502980092926,1.1906176028922992,-0.8988765703802009,-0.9643734217956152,1.101351968693955,-0.9685929764298719,low,low,,ISIC_9848743.JPG,,ISIC_0033876.JPG,28,42,false,0.1,ll,keypress(f),0,true,4424933.6999999285,4424933.399999976,4418697,4418814.599999905,4418713.8,4424836.2,1,40,37,
sequence,flow.Sequence,8_36,2024-04-19T14:24:23.238Z,,,,,,,,,,,6219.599999976344,completion,,,,,,,low,low,,,,,,,false,,,,,true,4424934.099999905,4424933.399999976,4418697,4418814.5,4418713.8,4424836.2,1,40,,
trial,html.Screen,8_37_0,2024-04-19T14:24:28.931Z,,,,2,0.0086413421586899,0.0360184993500958,,0.04,true,ll,5791.09999995213,response,-0.8121377641994781,1.1906176028922992,-0.8988765703802009,-0.9325200951609898,1.101351968693955,-0.9685929764298719,low,low,,ISIC_0010767.JPG,,ISIC_9363106.JPG,28,42,false,0.1,ll,keypress(f),0,true,4430627.399999976,4430627.299999952,4424814.43,4424934.299999952,4424836.2,4430523.7,1,40,38,
sequence,flow.Sequence,8_37,2024-04-19T14:24:28.931Z,,,,,,,,,,,5791.09999995213,completion,,,,,,,low,low,,,,,,,false,,,,,true,4430627.599999905,4430627.299999952,4424814.43,4424934.299999952,4424836.2,4430523.7,1,40,,
trial,html.Screen,8_38_0,2024-04-19T14:24:34.110Z,,,,2,-0.0158987717472563,-0.0292472192292015,,0.04,false,ll,5281.999999928288,response,-0.8471355550006346,1.1906176028922992,-0.8984467584783025,-0.9005344308932209,1.101351968693955,-0.8984467584783025,low,low,,ISIC_1366765.JPG,,ISIC_0025744.JPG,28,55,false,0.1,hh,keypress(i),0,true,4435806,4435805.6999999285,4430506.8,4430627.599999905,4430523.7,4435694.2,1,40,39,
sequence,flow.Sequence,8_38,2024-04-19T14:24:34.110Z,,,,,,,,,,,5281.999999928288,completion,,,,,,,low,low,,,,,,,false,,,,,true,4435806.399999976,4435805.6999999285,4430506.8,4430627.599999905,4430523.7,4435694.2,1,40,,
trial,html.Screen,8_39_0,2024-04-19T14:24:36.574Z,,,,2,0.0365981355399771,0.0162670920008846,,0.04,false,hh,2575.199999975972,response,1.1604734171556077,1.1906176028922992,-0.9484467584783025,1.0789312625280616,1.101351968693955,-0.9484467584783025,high,high,,ISIC_0982855.JPG,,ISIC_3950753.JPG,28,27,false,0.13,lh,keypress(e),0,true,4438269.799999952,4438269.399999976,4435690.766,4435806.599999905,4435694.2,4438163,1,40,40,
sequence,flow.Sequence,8_39,2024-04-19T14:24:36.574Z,,,,,,,,,,,2575.199999975972,completion,,,,,,,high,high,,,,,,,false,,,,,true,4438270.299999952,4438269.399999976,4435690.766,4435806.599999905,4435694.2,4438163,1,40,,
stair_loop,flow.Loop,8,2024-04-19T14:24:36.574Z,,,,,,,,,,,248711.59999997634,completion,,,,,,,,,,,,,,,false,,,,,true,4438270.599999905,4438269.399999976,4189541.128,4189659.5999999046,4189557.8,4438163,1,40,,
exp_instructions,html.Screen,9,2024-04-19T14:25:04.475Z,,,,,,,,,,,28008.099999904633,response,,,,,,,,,,,,,,,,,continue,keypress(Space),,,4466171.599999905,4466171.099999905,4438146.6,4438270.6999999285,4438163,4466069.3,,,,
trial,html.Screen,10_0_0,2024-04-19T14:25:15.524Z,,,,1,-0.012020985739544,0.0126097407389903,,0.04,false,hl,11150.299999904819,response,1.0003671514840182,1.1806176028922992,-1.0430346350288329,-0.8992716557663581,1.1364971246124251,-0.9403765015209713,high,low,,ISIC_0069379.JPG,9,ISIC_0061749.JPG,28,26,false,0.2400000000000001,lh,keypress(e),0,false,4477219.799999952,4477219.599999905,4466061.884,4466171.799999952,4466069.3,4477111.9,5,600,1,
break,html.Screen,10_0_1,2024-04-19T14:25:15.524Z,,,,,,,,,,,NaN,,,,,,,,high,low,,,,,,,false,,,,,false,4477220.299999952,4477220.099999905,,4477219.799999952,,4477111.9,5,600,,
break_continue,html.Screen,10_0_2,2024-04-19T14:25:15.524Z,,,,,,,,,,,NaN,,,,,,,,high,low,,,,,,,false,,,,,false,4477220.5,4477220.5,,4477220.399999976,,4477111.9,5,600,,
sequence,flow.Sequence,10_0,2024-04-19T14:25:15.524Z,,,,,,,,,,,11151.200000000186,completion,,,,,,,high,low,,,,,,,false,,,,,false,4477220.6999999285,4477220.5,4466061.884,4466171.799999952,4466069.3,4477111.9,5,600,,
trial,html.Screen,10_1_0,2024-04-19T14:25:21.781Z,,,,1,-0.0158987717472563,-0.0292472192292015,,0.04,true,hh,6365.299999928102,response,1.1513073368404492,1.1806176028922992,-1.0430346350288329,1.0485268550965705,1.1364971246124251,-0.9403765015209713,high,high,,ISIC_1366765.JPG,10,ISIC_0030666.JPG,28,25,false,0.14,hh,keypress(i),0,false,4483477.599999905,4483477.1999999285,4477103.332,4477220.6999999285,4477111.9,4483367.1,5,600,2,
break,html.Screen,10_1_1,2024-04-19T14:25:21.783Z,,,,,,,,,,,NaN,,,,,,,,high,high,,,,,,,false,,,,,false,4483479.1999999285,4483478.599999905,,4483478,,4483367.1,5,600,,
break_continue,html.Screen,10_1_2,2024-04-19T14:25:21.784Z,,,,,,,,,,,NaN,,,,,,,,high,high,,,,,,,false,,,,,false,4483480.1999999285,4483479.799999952,,4483479.5,,4483367.1,5,600,,
sequence,flow.Sequence,10_1,2024-04-19T14:25:21.784Z,,,,,,,,,,,6367.899999951944,completion,,,,,,,high,high,,,,,,,false,,,,,false,4483480.399999976,4483479.799999952,4477103.332,4477220.6999999285,4477111.9,4483367.1,5,600,,
trial,html.Screen,10_2_0,2024-04-19T14:25:24.878Z,,,,1,-0.0060934073440827,-0.0279108145883031,,0.04,true,hl,3206.499999905005,response,1.1264523937924051,1.1806176028922992,-1.0430346350288329,-0.729579583367798,1.1364971246124251,-0.9403765015209713,high,low,,ISIC_0032604.JPG,9,ISIC_0032095.JPG,28,26,false,0.2400000000000001,hl,keypress(j),0,false,4486574,4486573.599999905,4483362.69,4483480.6999999285,4483367.1,4486469.7,5,600,3,
break,html.Screen,10_2_1,2024-04-19T14:25:24.879Z,,,,,,,,,,,NaN,,,,,,,,high,low,,,,,,,false,,,,,false,4486575.399999976,4486575,,4486574.399999976,,4486469.7,5,600,,
break_continue,html.Screen,10_2_2,2024-04-19T14:25:24.880Z,,,,,,,,,,,NaN,,,,,,,,high,low,,,,,,,false,,,,,false,4486576.299999952,4486576,,4486575.6999999285,,4486469.7,5,600,,
sequence,flow.Sequence,10_2,2024-04-19T14:25:24.880Z,,,,,,,,,,,3208.9000000003725,completion,,,,,,,high,low,,,,,,,false,,,,,false,4486576.599999905,4486576,4483362.69,4483480.599999905,4483367.1,4486469.7,5,600,,
trial,html.Screen,10_3_0,2024-04-19T14:25:27.782Z,,,,1,-0.0060934073440827,-0.0279108145883031,,0.04,true,ll,3008.199999975972,response,-1.0282189783634048,1.1806176028922992,-1.0430346350288329,-0.9341202222313458,1.1364971246124251,-0.9403765015209713,low,low,,ISIC_0032604.JPG,9,ISIC_0027238.JPG,28,43,false,0.1,ll,keypress(f),0,false,4489478.1999999285,4489477.899999976,4486453.1,4486576.799999952,4486469.7,4489372,5,600,4,
break,html.Screen,10_3_1,2024-04-19T14:25:27.784Z,,,,,,,,,,,NaN,,,,,,,,low,low,,,,,,,false,,,,,false,4489479.799999952,4489479.399999976,,4489478.6999999285,,4489372,5,600,,
break_continue,html.Screen,10_3_2,2024-04-19T14:25:27.784Z,,,,,,,,,,,NaN,,,,,,,,low,low,,,,,,,false,,,,,false,4489480.6999999285,4489480.299999952,,4489480,,4489372,5,600,,
sequence,flow.Sequence,10_3,2024-04-19T14:25:27.785Z,,,,,,,,,,,3010.59999995213,completion,,,,,,,low,low,,,,,,,false,,,,,false,4489480.899999976,4489480.299999952,4486453.1,4486576.6999999285,4486469.7,4489372,5,600,,
trial,html.Screen,10_4_0,2024-04-19T14:25:34.150Z,,,,1,0.010035581303589,-0.0100711721396864,,0.04,false,hl,6473.599999904633,response,1.1501717278509027,1.1806176028922992,-1.0430346350288329,-0.8228936373136835,1.1364971246124251,-0.9403765015209713,high,low,,ISIC_0030592.JPG,8,ISIC_8398000.JPG,28,26,false,0.2400000000000001,lh,keypress(e),0,false,4495846.099999905,4495845.599999905,4489370.424,4489481.1999999285,4489372,4495744.2,5,600,5,
break,html.Screen,10_4_1,2024-04-19T14:25:34.152Z,,,,,,,,,,,NaN,,,,,,,,high,low,,,,,,,false,,,,,false,4495847.899999976,4495847.399999976,,4495846.599999905,,4495744.2,5,600,,
break_continue,html.Screen,10_4_2,2024-04-19T14:25:34.152Z,,,,,,,,,,,NaN,,,,,,,,high,low,,,,,,,false,,,,,false,4495848.599999905,4495848.5,,4495848.099999905,,4495744.2,5,600,,
sequence,flow.Sequence,10_4,2024-04-19T14:25:34.153Z,,,,,,,,,,,6476.5,completion,,,,,,,high,low,,,,,,,false,,,,,false,4495848.6999999285,4495848.5,4489370.424,4489481.099999905,4489372,4495744.2,5,600,,
trial,html.Screen,10_5_0,2024-04-19T14:25:39.190Z,,,,1,-0.0118555311043871,-0.0087774532070196,,0.04,true,ll,5141.59999995213,response,-0.999840720741648,1.1806176028922992,-1.0430346350288329,-0.9031251164933652,1.1364971246124251,-0.9403765015209713,low,low,,ISIC_6488658.JPG,9,ISIC_0058768.JPG,28,43,false,0.1,ll,keypress(f),0,false,4500886.1999999285,4500885.799999952,4495727.2,4495848.799999952,4495744.2,4500781.4,5,600,6,
break,html.Screen,10_5_1,2024-04-19T14:25:39.191Z,,,,,,,,,,,NaN,,,,,,,,low,low,,,,,,,false,,,,,false,4500887.6999999285,4500887.1999999285,,4500886.599999905,,4500781.4,5,600,,
break_continue,html.Screen,10_5_2,2024-04-19T14:25:39.192Z,,,,,,,,,,,NaN,,,,,,,,low,low,,,,,,,false,,,,,false,4500888.5,4500888.099999905,,4500887.799999952,,4500781.4,5,600,,
sequence,flow.Sequence,10_5,2024-04-19T14:25:39.193Z,,,,,,,,,,,5143.899999904446,completion,,,,,,,low,low,,,,,,,false,,,,,false,4500888.6999999285,4500888.099999905,4495727.2,4495848.799999952,4495744.2,4500781.4,5,600,,
trial,html.Screen,10_6_0,2024-04-19T14:25:41.293Z,,,,1,0.0365981355399771,0.0162670920008846,,0.04,true,lh,2207.8999999519438,response,-0.9046170303418553,1.1806176028922992,-1.0430346350288329,1.0063426986460375,1.1364971246124251,-0.9403765015209713,low,high,,ISIC_0982855.JPG,9,ISIC_0055759.JPG,28,27,false,0.2400000000000001,lh,keypress(e),0,false,4502989.599999905,4502989.299999952,4500780.41,4500889,4500781.4,4502883.1,5,600,7,
break,html.Screen,10_6_1,2024-04-19T14:25:41.295Z,,,,,,,,,,,NaN,,,,,,,,low,high,,,,,,,false,,,,,false,4502990.799999952,4502990.399999976,,4502989.899999976,,4502883.1,5,600,,
break_continue,html.Screen,10_6_2,2024-04-19T14:25:41.295Z,,,,,,,,,,,NaN,,,,,,,,low,high,,,,,,,false,,,,,false,4502991.399999976,4502991.1999999285,,4502990.899999976,,4502883.1,5,600,,
sequence,flow.Sequence,10_6,2024-04-19T14:25:41.295Z,,,,,,,,,,,2209.799999928102,completion,,,,,,,low,high,,,,,,,false,,,,,false,4502991.599999905,4502991.1999999285,4500780.41,4500888.899999976,4500781.4,4502883.1,5,600,,
trial,html.Screen,10_7_0,2024-04-19T14:25:47.814Z,,,,1,-0.0166849894750452,0.0371614812368835,,0.04,true,lh,6626.199999952689,response,-1.1592423187534993,1.1806176028922992,-1.0430346350288329,1.067128884093211,1.1364971246124251,-0.9403765015209713,low,high,,ISIC_6231450.JPG,10,ISIC_6854940.JPG,28,27,false,0.2400000000000001,lh,keypress(e),0,false,4509509.799999952,4509509.299999952,4502882.456,4502991.799999952,4502883.1,4509405.2,5,600,8,
break,html.Screen,10_7_1,2024-04-19T14:25:47.815Z,,,,,,,,,,,NaN,,,,,,,,low,high,,,,,,,false,,,,,false,4509511.1999999285,4509510.799999952,,4509510.1999999285,,4509405.2,5,600,,
break_continue,html.Screen,10_7_2,2024-04-19T14:25:47.816Z,,,,,,,,,,,NaN,,,,,,,,low,high,,,,,,,false,,,,,false,4509512.099999905,4509511.799999952,,4509511.399999976,,4509405.2,5,600,,
sequence,flow.Sequence,10_7,2024-04-19T14:25:47.816Z,,,,,,,,,,,6628.699999952689,completion,,,,,,,low,high,,,,,,,false,,,,,false,4509512.399999976,4509511.799999952,4502882.456,4502991.799999952,4502883.1,4509405.2,5,600,,
trial,html.Screen,10_8_0,2024-04-19T14:25:50.198Z,,,,1,0.0367218428225813,-0.0026956749740767,,0.04,true,lh,2488.3999999044463,response,-1.2704198237183777,1.1806176028922992,-1.0430346350288329,1.138121072015301,1.1364971246124251,-0.9403765015209713,low,high,,ISIC_7212271.JPG,10,ISIC_0501843.JPG,28,27,false,0.2400000000000001,lh,keypress(e),0,false,4511894,4511893.599999905,4509402.286,4509512.599999905,4509405.2,4511790.5,5,600,9,
break,html.Screen,10_8_1,2024-04-19T14:25:50.199Z,,,,,,,,,,,NaN,,,,,,,,low,high,,,,,,,false,,,,,false,4511895.399999976,4511894.899999976,,4511894.399999976,,4511790.5,5,600,,
break_continue,html.Screen,10_8_2,2024-04-19T14:25:50.200Z,,,,,,,,,,,NaN,,,,,,,,low,high,,,,,,,false,,,,,false,4511896.1999999285,4511896,,4511895.6999999285,,4511790.5,5,600,,
sequence,flow.Sequence,10_8,2024-04-19T14:25:50.200Z,,,,,,,,,,,2490.7999999998137,completion,,,,,,,low,high,,,,,,,false,,,,,false,4511896.399999976,4511896,4509402.286,4509512.5,4509405.2,4511790.5,5,600,,
trial,html.Screen,10_9_0,2024-04-19T14:25:58.955Z,,,,1,-0.0166849894750452,0.0371614812368835,,0.04,false,hh,8860.599999904633,response,1.1168199061753437,1.1806176028922992,-1.0430346350288329,1.212287319329914,1.1364971246124251,-0.9403765015209713,high,high,,ISIC_6231450.JPG,9,ISIC_5919355.JPG,28,25,false,0.14,lh,keypress(e),0,false,4520651.299999952,4520651.099999905,4511789.726,4511896.6999999285,4511790.5,4520547.7,5,600,10,
break,html.Screen,10_9_1,2024-04-19T14:25:58.955Z,,,,,,,,,,,NaN,,,,,,,,high,high,,,,,,,false,,,,,false,4520651.599999905,4520651.5,,4520651.299999952,,4520547.7,5,600,,
break_continue,html.Screen,10_9_2,2024-04-19T14:25:58.955Z,,,,,,,,,,,NaN,,,,,,,,high,high,,,,,,,false,,,,,false,4520651.6999999285,4520651.599999905,,4520651.599999905,,4520547.7,5,600,,
sequence,flow.Sequence,10_9,2024-04-19T14:25:58.956Z,,,,,,,,,,,8861.099999904633,completion,,,,,,,high,high,,,,,,,false,,,,,false,4520651.6999999285,4520651.599999905,4511789.726,4511896.599999905,4511790.5,4520547.7,5,600,,
trial,html.Screen,10_10_0,2024-04-19T14:26:06.446Z,,,,1,0.0199897690678184,0.0312486875504497,,0.04,false,hl,7594.09999995213,response,1.1224745971429997,1.1806176028922992,-1.0430346350288329,-0.8423270217438888,1.1364971246124251,-0.9403765015209713,high,low,,ISIC_5482426.JPG,9,ISIC_0057032.JPG,28,26,false,0.2400000000000001,ll,keypress(f),0,false,4528142.1999999285,4528141.799999952,4520530.9,4520651.799999952,4520547.7,4528037.3,5,600,11,
break,html.Screen,10_10_1,2024-04-19T14:26:06.447Z,,,,,,,,,,,NaN,,,,,,,,high,low,,,,,,,false,,,,,false,4528143.599999905,4528143.1999999285,,4528142.6999999285,,4528037.3,5,600,,
break_continue,html.Screen,10_10_2,2024-04-19T14:26:06.448Z,,,,,,,,,,,NaN,,,,,,,,high,low,,,,,,,false,,,,,false,4528144.399999976,4528144.1999999285,,4528143.799999952,,4528037.3,5,600,,
sequence,flow.Sequence,10_10,2024-04-19T14:26:06.449Z,,,,,,,,,,,7596.499999928288,completion,,,,,,,high,low,,,,,,,false,,,,,false,4528144.6999999285,4528144.1999999285,4520530.9,4520651.799999952,4520547.7,4528037.3,5,600,,
trial,html.Screen,10_11_0,2024-04-19T14:26:17.614Z,,,,1,0.0189295602385628,0.0128812415435153,,0.04,true,hl,11272.599999976344,response,1.225025174430573,1.1806176028922992,-1.0430346350288329,-0.8422679054456499,1.1364971246124251,-0.9403765015209713,high,low,,ISIC_0010372.JPG,9,ISIC_7503950.JPG,28,26,false,0.2400000000000001,hl,keypress(j),0,false,4539310.399999976,4539309.899999976,4528031.65,4528144.899999976,4528037.3,4539196.6,5,600,12,
break,html.Screen,10_11_1,2024-04-19T14:26:17.616Z,,,,,,,,,,,NaN,,,,,,,,high,low,,,,,,,false,,,,,false,4539311.799999952,4539311.399999976,,4539310.799999952,,4539196.6,5,600,,
break_continue,html.Screen,10_11_2,2024-04-19T14:26:17.616Z,,,,,,,,,,,NaN,,,,,,,,high,low,,,,,,,false,,,,,false,4539312.599999905,4539312.299999952,,4539312.099999905,,4539196.6,5,600,,
sequence,flow.Sequence,10_11,2024-04-19T14:26:17.617Z,,,,,,,,,,,11274.999999952503,completion,,,,,,,high,low,,,,,,,false,,,,,false,4539312.899999976,4539312.299999952,4528031.65,4528144.799999952,4528037.3,4539196.6,5,600,,
trial,html.Screen,10_12_0,2024-04-19T14:26:21.198Z,,,,1,0.0321039635696159,0.020496766286318,,0.04,false,hh,3697.099999928847,response,1.3045229691102764,1.1806176028922992,-1.0430346350288329,1.1781544075681951,1.1364971246124251,-0.9403765015209713,high,high,,ISIC_0058063.JPG,9,ISIC_6148533.JPG,28,25,false,0.14,ll,keypress(f),0,false,4542894.099999905,4542893.6999999285,4539195.72,4539313.1999999285,4539196.6,4542782.8,5,600,13,
break,html.Screen,10_12_1,2024-04-19T14:26:21.199Z,,,,,,,,,,,NaN,,,,,,,,high,high,,,,,,,false,,,,,false,4542895.599999905,4542895.1999999285,,4542894.599999905,,4542782.8,5,600,,
break_continue,html.Screen,10_12_2,2024-04-19T14:26:21.200Z,,,,,,,,,,,NaN,,,,,,,,high,high,,,,,,,false,,,,,false,4542896.5,4542896.1999999285,,4542895.899999976,,4542782.8,5,600,,
sequence,flow.Sequence,10_12,2024-04-19T14:26:21.201Z,,,,,,,,,,,3699.599999928847,completion,,,,,,,high,high,,,,,,,false,,,,,false,4542896.799999952,4542896.1999999285,4539195.72,4539313.099999905,4539196.6,4542782.8,5,600,,
trial,html.Screen,10_13_0,2024-04-19T14:26:27.029Z,,,,1,-0.0077673378094614,-0.0021810768579373,,0.04,false,ll,5942.299999904819,response,-1.073353722471336,1.1806176028922992,-1.0430346350288329,-0.9464043043104888,1.1364971246124251,-0.9403765015209713,low,low,,ISIC_0067621.JPG,9,ISIC_0055293.JPG,28,43,false,0.1,hl,keypress(j),0,false,4548725.5,4548725.099999905,4542780.63,4542897,4542782.8,4548620.9,5,600,14,
break,html.Screen,10_13_1,2024-04-19T14:26:27.031Z,,,,,,,,,,,NaN,,,,,,,,low,low,,,,,,,false,,,,,false,4548726.799999952,4548726.399999976,,4548725.799999952,,4548620.9,5,600,,
break_continue,html.Screen,10_13_2,2024-04-19T14:26:27.031Z,,,,,,,,,,,NaN,,,,,,,,low,low,,,,,,,false,,,,,false,4548727.5,4548727.299999952,,4548727,,4548620.9,5,600,,
sequence,flow.Sequence,10_13,2024-04-19T14:26:27.032Z,,,,,,,,,,,5944.499999952503,completion,,,,,,,low,low,,,,,,,false,,,,,false,4548727.799999952,4548727.299999952,4542780.63,4542897,4542782.8,4548620.9,5,600,,
trial,html.Screen,10_14_0,2024-04-19T14:26:31.542Z,,,,1,-0.012810673904807,0.00400964452501,,0.04,true,ll,4617.0999999996275,response,-1.056384093543893,1.1806176028922992,-1.0430346350288329,-0.9175933839600456,1.1364971246124251,-0.9403765015209713,low,low,,ISIC_0064656.JPG,9,ISIC_0064247.JPG,28,43,false,0.1,ll,keypress(f),0,false,4553238.299999952,4553238,4548617.04,4548727.899999976,4548620.9,4553124.7,5,600,15,
break,html.Screen,10_14_1,2024-04-19T14:26:31.544Z,,,,,,,,,,,NaN,,,,,,,,low,low,,,,,,,false,,,,,false,4553239.799999952,4553239.299999952,,4553238.799999952,,4553124.7,5,600,,
break_continue,html.Screen,10_14_2,2024-04-19T14:26:31.545Z,,,,,,,,,,,NaN,,,,,,,,low,low,,,,,,,false,,,,,false,4553240.6999999285,4553240.399999976,,4553240.099999905,,4553124.7,5,600,,
sequence,flow.Sequence,10_14,2024-04-19T14:26:31.545Z,,,,,,,,,,,4619.499999975786,completion,,,,,,,low,low,,,,,,,false,,,,,false,4553241,4553240.399999976,4548617.04,4548727.899999976,4548620.9,4553124.7,5,600,,
trial,html.Screen,10_15_0,2024-04-19T14:26:38.959Z,,,,1,0.0321039635696159,0.020496766286318,,0.04,true,ll,7529.499999928288,response,-0.9735583105865782,1.1806176028922992,-1.0430346350288329,-0.8683758859171238,1.1364971246124251,-0.9403765015209713,low,low,,ISIC_0058063.JPG,9,ISIC_0065204.JPG,28,43,false,0.1,ll,keypress(f),0,false,4560654.6999999285,4560654.1999999285,4553124.652,4553241.1999999285,4553124.7,4560547.5,5,600,16,
break,html.Screen,10_15_1,2024-04-19T14:26:38.960Z,,,,,,,,,,,NaN,,,,,,,,low,low,,,,,,,false,,,,,false,4560656.5,4560656,,4560655.1999999285,,4560547.5,5,600,,
break_continue,html.Screen,10_15_2,2024-04-19T14:26:38.962Z,,,,,,,,,,,NaN,,,,,,,,low,low,,,,,,,false,,,,,false,4560657.6999999285,4560657.399999976,,4560657,,4560547.5,5,600,,
sequence,flow.Sequence,10_15,2024-04-19T14:26:38.962Z,,,,,,,,,,,7532.699999975972,completion,,,,,,,low,low,,,,,,,false,,,,,false,4560658.1999999285,4560657.399999976,4553124.652,4553241.099999905,4553124.7,4560547.5,5,600,,
trial,html.Screen,10_16_0,2024-04-19T14:26:43.406Z,,,,1,0.0365981355399771,0.0162670920008846,,0.04,false,ll,4554.099999904633,response,-1.1399925754091549,1.1806176028922992,-1.0430346350288329,-0.92577667404992,1.1364971246124251,-0.9403765015209713,low,low,,ISIC_0982855.JPG,8,ISIC_7331345.JPG,28,43,false,0.1,lh,keypress(e),0,false,4565102,4565101.599999905,4560546.022,4560658.5,4560547.5,4565001.1,5,600,17,
break,html.Screen,10_16_1,2024-04-19T14:26:43.407Z,,,,,,,,,,,NaN,,,,,,,,low,low,,,,,,,false,,,,,false,4565103.5,4565103.099999905,,4565102.5,,4565001.1,5,600,,
break_continue,html.Screen,10_16_2,2024-04-19T14:26:43.408Z,,,,,,,,,,,NaN,,,,,,,,low,low,,,,,,,false,,,,,false,4565104.299999952,4565104.099999905,,4565103.6999999285,,4565001.1,5,600,,
sequence,flow.Sequence,10_16,2024-04-19T14:26:43.409Z,,,,,,,,,,,4556.599999904633,completion,,,,,,,low,low,,,,,,,false,,,,,false,4565104.6999999285,4565104.099999905,4560546.022,4560658.299999952,4560547.5,4565001.1,5,600,,
trial,html.Screen,10_17_0,2024-04-19T14:26:50.363Z,,,,1,-0.012020985739544,0.0126097407389903,,0.04,true,lh,7058.199999952689,response,-0.9225524349657857,1.1806176028922992,-1.0430346350288329,0.929746784178986,1.1364971246124251,-0.9403765015209713,low,high,,ISIC_0069379.JPG,9,ISIC_0011077.JPG,28,27,false,0.2400000000000001,lh,keypress(e),0,false,4572059.399999976,4572059.299999952,4564999.824,4565104.899999976,4565001.1,4571956.8,5,600,18,
break,html.Screen,10_17_1,2024-04-19T14:26:50.364Z,,,,,,,,,,,NaN,,,,,,,,low,high,,,,,,,false,,,,,false,4572059.799999952,4572059.6999999285,,4572059.5,,4571956.8,5,600,,
break_continue,html.Screen,10_17_2,2024-04-19T14:26:50.364Z,,,,,,,,,,,NaN,,,,,,,,low,high,,,,,,,false,,,,,false,4572060,4572060,,4572059.899999976,,4571956.8,5,600,,
sequence,flow.Sequence,10_17,2024-04-19T14:26:50.364Z,,,,,,,,,,,7058.9000000003725,completion,,,,,,,low,high,,,,,,,false,,,,,false,4572060.099999905,4572060,4564999.824,4565104.899999976,4565001.1,4571956.8,5,600,,
trial,html.Screen,10_18_0,2024-04-19T14:26:54.269Z,,,,1,-0.0158987717472563,-0.0292472192292015,,0.04,true,hh,4007.9999999525025,response,1.0885984639975343,1.1806176028922992,-1.0430346350288329,1.2042618719491294,1.1364971246124251,-0.9403765015209713,high,high,,ISIC_1366765.JPG,9,ISIC_0012740.JPG,28,25,false,0.14,hh,keypress(i),0,false,4575965,4575964.799999952,4571940.4,4572060.1999999285,4571956.8,4575860.1,5,600,19,
break,html.Screen,10_18_1,2024-04-19T14:26:54.270Z,,,,,,,,,,,NaN,,,,,,,,high,high,,,,,,,false,,,,,false,4575965.899999976,4575965.599999905,,4575965.299999952,,4575860.1,5,600,,
break_continue,html.Screen,10_18_2,2024-04-19T14:26:54.270Z,,,,,,,,,,,NaN,,,,,,,,high,high,,,,,,,false,,,,,false,4575966.399999976,4575966.1999999285,,4575966,,4575860.1,5,600,,
sequence,flow.Sequence,10_18,2024-04-19T14:26:54.270Z,,,,,,,,,,,4009.3999999286607,completion,,,,,,,high,high,,,,,,,false,,,,,false,4575966.599999905,4575966.1999999285,4571940.4,4572060.1999999285,4571956.8,4575860.1,5,600,,
trial,html.Screen,10_19_0,2024-04-19T14:27:06.238Z,,,,1,0.0367218428225813,-0.0026956749740767,,0.04,false,hh,12073.999999905005,response,1.0730492496332733,1.1806176028922992,-1.0430346350288329,1.0252626598876022,1.1364971246124251,-0.9403765015209713,high,high,,ISIC_7212271.JPG,9,ISIC_0007029.JPG,28,25,false,0.14,hl,keypress(j),0,false,4587934.5,4587934.099999905,4575843.7,4575966.6999999285,4575860.1,4587820,5,600,20,
break,html.Screen,10_19_1,2024-04-19T14:27:06.240Z,,,,,,,,,,,NaN,,,,,,,,high,high,,,,,,,false,,,,,false,4587935.899999976,4587935.5,,4587934.799999952,,4587820,5,600,,
break_continue,html.Screen,10_19_2,2024-04-19T14:27:06.241Z,,,,,,,,,,,NaN,,,,,,,,high,high,,,,,,,false,,,,,false,4587936.799999952,4587936.5,,4587936.1999999285,,4587820,5,600,,
sequence,flow.Sequence,10_19,2024-04-19T14:27:06.241Z,,,,,,,,,,,12076.400000000373,completion,,,,,,,high,high,,,,,,,false,,,,,false,4587937.099999905,4587936.5,4575843.7,4575966.6999999285,4575860.1,4587820,5,600,,
trial,html.Screen,10_20_0,2024-04-19T14:27:12.620Z,,,,1,0.0051046740562181,-0.0178832721027728,,0.04,false,hl,6495.799999952316,response,1.3757843415838396,1.1806176028922992,-1.0430346350288329,-0.8251853990642339,1.1364971246124251,-0.9403765015209713,high,low,,ISIC_9545819.JPG,9,ISIC_0026619.JPG,28,26,false,0.2400000000000001,ll,keypress(f),0,false,4594315.899999976,4594315.799999952,4587818.388,4587937.299999952,4587820,4594208.6,5,600,21,
break,html.Screen,10_20_1,2024-04-19T14:27:12.620Z,,,,,,,,,,,NaN,,,,,,,,high,low,,,,,,,false,,,,,false,4594316.299999952,4594316.1999999285,,4594316,,4594208.6,5,600,,
break_continue,html.Screen,10_20_2,2024-04-19T14:27:12.620Z,,,,,,,,,,,NaN,,,,,,,,high,low,,,,,,,false,,,,,false,4594316.5,4594316.5,,4594316.399999976,,4594208.6,5,600,,
sequence,flow.Sequence,10_20,2024-04-19T14:27:12.620Z,,,,,,,,,,,6496.5,completion,,,,,,,high,low,,,,,,,false,,,,,false,4594316.599999905,4594316.5,4587818.388,4587937.299999952,4587820,4594208.6,5,600,,
trial,html.Screen,10_21_0,2024-04-19T14:27:23.619Z,,,,1,0.0127320821962457,-0.0315308940184827,,0.04,false,ll,11106.499999905005,response,-0.9850572151440374,1.1806176028922992,-1.0430346350288329,-1.028720908260899,1.1364971246124251,-0.9403765015209713,low,low,,ISIC_8156101.JPG,8,ISIC_0068993.JPG,28,43,false,0.1,hl,keypress(j),0,false,4605315.1999999285,4605315.099999905,4594192,4594316.599999905,4594208.6,4605200.9,5,600,22,
break,html.Screen,10_21_1,2024-04-19T14:27:23.619Z,,,,,,,,,,,NaN,,,,,,,,low,low,,,,,,,false,,,,,false,4605315.599999905,4605315.5,,4605315.399999976,,4605200.9,5,600,,
break_continue,html.Screen,10_21_2,2024-04-19T14:27:23.619Z,,,,,,,,,,,NaN,,,,,,,,low,low,,,,,,,false,,,,,false,4605315.799999952,4605315.6999999285,,4605315.599999905,,4605200.9,5,600,,
sequence,flow.Sequence,10_21,2024-04-19T14:27:23.620Z,,,,,,,,,,,11107.099999928847,completion,,,,,,,low,low,,,,,,,false,,,,,false,4605315.899999976,4605315.6999999285,4594192,4594316.599999905,4594208.6,4605200.9,5,600,,
trial,html.Screen,10_22_0,2024-04-19T14:27:29.229Z,,,,1,-0.0060918352854008,0.029032683404407,,0.04,false,lh,5724.399999951944,response,-1.0264463986917702,1.1806176028922992,-1.0430346350288329,1.171271535505083,1.1364971246124251,-0.9403765015209713,low,high,,ISIC_8436194.JPG,8,ISIC_7889838.JPG,28,27,false,0.2400000000000001,hh,keypress(i),0,false,4610925.6999999285,4610925.299999952,4605200.326,4605315.899999976,4605200.9,4610822.3,5,600,23,
break,html.Screen,10_22_1,2024-04-19T14:27:29.231Z,,,,,,,,,,,NaN,,,,,,,,low,high,,,,,,,false,,,,,false,4610927,4610926.6999999285,,4610926.099999905,,4610822.3,5,600,,
break_continue,html.Screen,10_22_2,2024-04-19T14:27:29.231Z,,,,,,,,,,,NaN,,,,,,,,low,high,,,,,,,false,,,,,false,4610927.799999952,4610927.5,,4610927.1999999285,,4610822.3,5,600,,
sequence,flow.Sequence,10_22,2024-04-19T14:27:29.232Z,,,,,,,,,,,5726.5999999996275,completion,,,,,,,low,high,,,,,,,false,,,,,false,4610928,4610927.5,4605200.326,4605315.899999976,4605200.9,4610822.3,5,600,,
trial,html.Screen,10_23_0,2024-04-19T14:27:34.238Z,,,,1,0.0063515208248796,0.0194177605767913,,0.04,true,hh,5111.499999952503,response,1.1513073368404492,1.1806176028922992,-1.0430346350288329,1.0485268550965705,1.1364971246124251,-0.9403765015209713,high,high,,ISIC_5281908.JPG,9,ISIC_0030666.JPG,28,25,false,0.14,hh,keypress(i),0,false,4615934.1999999285,4615933.799999952,4610818.682,4610928.299999952,4610822.3,4615826.6,5,600,24,
break,html.Screen,10_23_1,2024-04-19T14:27:34.239Z,,,,,,,,,,,NaN,,,,,,,,high,high,,,,,,,false,,,,,false,4615935.6999999285,4615935.299999952,,4615934.6999999285,,4615826.6,5,600,,
break_continue,html.Screen,10_23_2,2024-04-19T14:27:34.240Z,,,,,,,,,,,NaN,,,,,,,,high,high,,,,,,,false,,,,,false,4615936.599999905,4615936.399999976,,4615935.899999976,,4615826.6,5,600,,
sequence,flow.Sequence,10_23,2024-04-19T14:27:34.241Z,,,,,,,,,,,5114.099999976344,completion,,,,,,,high,high,,,,,,,false,,,,,false,4615936.899999976,4615936.399999976,4610818.682,4610928.099999905,4610822.3,4615826.6,5,600,,
trial,html.Screen,10_24_0,2024-04-19T14:27:48.622Z,,,,1,-0.012810673904807,0.00400964452501,,0.04,false,hl,14491.499999905005,response,0.9464722688210522,1.1806176028922992,-1.0430346350288329,-0.7779875773283346,1.1364971246124251,-0.9403765015209713,high,low,,ISIC_0064656.JPG,9,ISIC_5926550.JPG,28,26,false,0.2400000000000001,lh,keypress(e),0,false,4630318.5,4630318.099999905,4615826.174,4615937.099999905,4615826.6,4630205.2,5,600,25,
break,html.Screen,10_24_1,2024-04-19T14:27:48.624Z,,,,,,,,,,,NaN,,,,,,,,high,low,,,,,,,false,,,,,false,4630320,4630319.599999905,,4630319,,4630205.2,5,600,,
break_continue,html.Screen,10_24_2,2024-04-19T14:27:48.624Z,,,,,,,,,,,NaN,,,,,,,,high,low,,,,,,,false,,,,,false,4630320.899999976,4630320.5,,4630320.1999999285,,4630205.2,5,600,,
sequence,flow.Sequence,10_24,2024-04-19T14:27:48.625Z,,,,,,,,,,,14493.900000000373,completion,,,,,,,high,low,,,,,,,false,,,,,false,4630321.1999999285,4630320.5,4615826.174,4615937.099999905,4615826.6,4630205.2,5,600,,
trial,html.Screen,10_25_0,2024-04-19T14:27:56.029Z,,,,1,-0.0377791839943904,0.0227626648172468,,0.04,false,hl,7519.999999928288,response,1.1890109863264902,1.1806176028922992,-1.0430346350288329,-0.8867825318561365,1.1364971246124251,-0.9403765015209713,high,low,,ISIC_7167479.JPG,8,ISIC_0072576.JPG,28,26,false,0.2400000000000001,ll,keypress(f),0,false,4637725.5,4637725.1999999285,4630201.424,4630321.399999976,4630205.2,4637611.2,5,600,26,
break,html.Screen,10_25_1,2024-04-19T14:27:56.030Z,,,,,,,,,,,NaN,,,,,,,,high,low,,,,,,,false,,,,,false,4637726.6999999285,4637726.299999952,,4637725.799999952,,4637611.2,5,600,,
break_continue,html.Screen,10_25_2,2024-04-19T14:27:56.031Z,,,,,,,,,,,NaN,,,,,,,,high,low,,,,,,,false,,,,,false,4637727.399999976,4637727.1999999285,,4637726.899999976,,4637611.2,5,600,,
sequence,flow.Sequence,10_25,2024-04-19T14:27:56.031Z,,,,,,,,,,,7521.999999928288,completion,,,,,,,high,low,,,,,,,false,,,,,false,4637727.599999905,4637727.1999999285,4630201.424,4630321.299999952,4630205.2,4637611.2,5,600,,
trial,html.Screen,10_26_0,2024-04-19T14:27:59.822Z,,,,1,0.0365981355399771,0.0162670920008846,,0.04,true,ll,3906.999999928288,response,-1.086780249085418,1.1806176028922992,-1.0430346350288329,-0.8982771817382743,1.1364971246124251,-0.9403765015209713,low,low,,ISIC_0982855.JPG,9,ISIC_0057821.JPG,28,43,false,0.1,ll,keypress(f),0,false,4641518.599999905,4641518.1999999285,4637605.944,4637727.799999952,4637611.2,4641414.6,5,600,27,
break,html.Screen,10_26_1,2024-04-19T14:27:59.824Z,,,,,,,,,,,NaN,,,,,,,,low,low,,,,,,,false,,,,,false,4641520,4641519.6999999285,,4641519,,4641414.6,5,600,,
break_continue,html.Screen,10_26_2,2024-04-19T14:27:59.825Z,,,,,,,,,,,NaN,,,,,,,,low,low,,,,,,,false,,,,,false,4641520.899999976,4641520.6999999285,,4641520.299999952,,4641414.6,5,600,,
sequence,flow.Sequence,10_26,2024-04-19T14:27:59.825Z,,,,,,,,,,,3909.499999928288,completion,,,,,,,low,low,,,,,,,false,,,,,false,4641521.299999952,4641520.6999999285,4637605.944,4637727.6999999285,4637611.2,4641414.6,5,600,,
trial,html.Screen,10_27_0,2024-04-19T14:28:03.790Z,,,,1,0.0189295602385628,0.0128812415435153,,0.04,true,ll,4071.099999928847,response,-1.086780249085418,1.1806176028922992,-1.0430346350288329,-0.8982771817382743,1.1364971246124251,-0.9403765015209713,low,low,,ISIC_0010372.JPG,8,ISIC_0057821.JPG,28,43,false,0.1,ll,keypress(f),0,false,4645486.099999905,4645485.6999999285,4641397.8,4641521.399999976,4641414.6,4645384.5,5,600,28,
break,html.Screen,10_27_1,2024-04-19T14:28:03.791Z,,,,,,,,,,,NaN,,,,,,,,low,low,,,,,,,false,,,,,false,4645487.5,4645487.099999905,,4645486.399999976,,4645384.5,5,600,,
break_continue,html.Screen,10_27_2,2024-04-19T14:28:03.792Z,,,,,,,,,,,NaN,,,,,,,,low,low,,,,,,,false,,,,,false,4645488.5,4645488.1999999285,,4645487.799999952,,4645384.5,5,600,,
sequence,flow.Sequence,10_27,2024-04-19T14:28:03.792Z,,,,,,,,,,,4073.599999928847,completion,,,,,,,low,low,,,,,,,false,,,,,false,4645488.6999999285,4645488.1999999285,4641397.8,4641521.399999976,4641414.6,4645384.5,5,600,,
trial,html.Screen,10_28_0,2024-04-19T14:28:06.366Z,,,,1,-0.00126575685933,-0.0325046559638838,,0.04,false,hh,2677.1999999284744,response,1.1642596483638106,1.1806176028922992,-1.0430346350288329,1.091507924157762,1.1364971246124251,-0.9403765015209713,high,high,,ISIC_5682259.JPG,9,ISIC_0765584.JPG,28,25,false,0.14,lh,keypress(e),0,false,4648062.099999905,4648061.6999999285,4645367.8,4645489,4645384.5,4647953,5,600,29,
break,html.Screen,10_28_1,2024-04-19T14:28:06.367Z,,,,,,,,,,,NaN,,,,,,,,high,high,,,,,,,false,,,,,false,4648063.5,4648063,,4648062.399999976,,4647953,5,600,,
break_continue,html.Screen,10_28_2,2024-04-19T14:28:06.368Z,,,,,,,,,,,NaN,,,,,,,,high,high,,,,,,,false,,,,,false,4648064.399999976,4648064.099999905,,4648063.799999952,,4647953,5,600,,
sequence,flow.Sequence,10_28,2024-04-19T14:28:06.368Z,,,,,,,,,,,2679.5999999046326,completion,,,,,,,high,high,,,,,,,false,,,,,false,4648064.6999999285,4648064.099999905,4645367.8,4645488.899999976,4645384.5,4647953,5,600,,
trial,html.Screen,10_29_0,2024-04-19T14:28:12.894Z,,,,1,-0.012810673904807,0.00400964452501,,0.04,false,hl,6637,response,0.9445114955578736,1.1806176028922992,-1.0430346350288329,-1.0054210059625863,1.1364971246124251,-0.9403765015209713,high,low,,ISIC_0064656.JPG,9,ISIC_0033807.JPG,28,26,false,0.2400000000000001,ll,keypress(f),0,false,4654590.299999952,4654590,4647952.952,4648065,4647953,4654492.4,5,600,30,
break,html.Screen,10_29_1,2024-04-19T14:28:12.895Z,,,,,,,,,,,NaN,,,,,,,,high,low,,,,,,,false,,,,,false,4654591.799999952,4654591.299999952,,4654590.6999999285,,4654492.4,5,600,,
break_continue,html.Screen,10_29_2,2024-04-19T14:28:12.896Z,,,,,,,,,,,NaN,,,,,,,,high,low,,,,,,,false,,,,,false,4654592.799999952,4654592.399999976,,4654592.099999905,,4654492.4,5,600,,
sequence,flow.Sequence,10_29,2024-04-19T14:28:12.897Z,,,,,,,,,,,6639.399999976158,completion,,,,,,,high,low,,,,,,,false,,,,,false,4654593.099999905,4654592.399999976,4647952.952,4648064.899999976,4647953,4654492.4,5,600,,
trial,html.Screen,10_30_0,2024-04-19T14:28:24.598Z,,,,1,-0.00126575685933,-0.0325046559638838,,0.04,true,hl,11801.69999990426,response,1.1343164084491792,1.1806176028922992,-1.0430346350288329,-0.7599392888539781,1.1364971246124251,-0.9403765015209713,high,low,,ISIC_5682259.JPG,10,ISIC_0032265.JPG,28,26,false,0.2400000000000001,hl,keypress(j),0,false,4666294.5,4666294.099999905,4654489.21,4654593.299999952,4654492.4,4666184.7,5,600,31,
break,html.Screen,10_30_1,2024-04-19T14:28:24.600Z,,,,,,,,,,,NaN,,,,,,,,high,low,,,,,,,false,,,,,false,4666296.099999905,4666295.5,,4666294.899999976,,4666184.7,5,600,,
break_continue,html.Screen,10_30_2,2024-04-19T14:28:24.601Z,,,,,,,,,,,NaN,,,,,,,,high,low,,,,,,,false,,,,,false,4666296.899999976,4666296.599999905,,4666296.1999999285,,4666184.7,5,600,,
sequence,flow.Sequence,10_30,2024-04-19T14:28:24.601Z,,,,,,,,,,,11804.19999990426,completion,,,,,,,high,low,,,,,,,false,,,,,false,4666297.1999999285,4666296.599999905,4654489.21,4654593.299999952,4654492.4,4666184.7,5,600,,
trial,html.Screen,10_31_0,2024-04-19T14:28:35.870Z,,,,1,-0.0023664502831079,-0.0252784582169994,,0.04,false,hh,11381.199999975972,response,1.1510001454240106,1.1806176028922992,-1.0430346350288329,1.132540312667795,1.1364971246124251,-0.9403765015209713,high,high,,ISIC_4156010.JPG,9,ISIC_0009959.JPG,28,25,false,0.14,lh,keypress(e),0,false,4677566.1999999285,4677565.899999976,4666183.332,4666297.399999976,4666184.7,4677460.7,5,600,32,
break,html.Screen,10_31_1,2024-04-19T14:28:35.872Z,,,,,,,,,,,NaN,,,,,,,,high,high,,,,,,,false,,,,,false,4677567.599999905,4677567.1999999285,,4677566.599999905,,4677460.7,5,600,,
break_continue,html.Screen,10_31_2,2024-04-19T14:28:35.872Z,,,,,,,,,,,NaN,,,,,,,,high,high,,,,,,,false,,,,,false,4677568.5,4677568.299999952,,4677567.899999976,,4677460.7,5,600,,
sequence,flow.Sequence,10_31,2024-04-19T14:28:35.873Z,,,,,,,,,,,11383.59999995213,completion,,,,,,,high,high,,,,,,,false,,,,,false,4677568.799999952,4677568.299999952,4666183.332,4666297.399999976,4666184.7,4677460.7,5,600,,
trial,html.Screen,10_32_0,2024-04-19T14:28:41.158Z,,,,1,-0.0350697500805515,-0.0166617848231997,,0.04,true,ll,5392.699999975972,response,-0.9738365957110542,1.1806176028922992,-1.0430346350288329,-0.9145475604754156,1.1364971246124251,-0.9403765015209713,low,low,,ISIC_0024423.JPG,9,ISIC_3435596.JPG,28,43,false,0.1,ll,keypress(f),0,false,4682853.6999999285,4682853.399999976,4677444.1,4677569,4677460.7,4682748.4,5,600,33,
break,html.Screen,10_32_1,2024-04-19T14:28:41.159Z,,,,,,,,,,,NaN,,,,,,,,low,low,,,,,,,false,,,,,false,4682854.799999952,4682854.5,,4682854,,4682748.4,5,600,,
break_continue,html.Screen,10_32_2,2024-04-19T14:28:41.159Z,,,,,,,,,,,NaN,,,,,,,,low,low,,,,,,,false,,,,,false,4682855.399999976,4682855.1999999285,,4682855,,4682748.4,5,600,,
sequence,flow.Sequence,10_32,2024-04-19T14:28:41.159Z,,,,,,,,,,,5394.499999928288,completion,,,,,,,low,low,,,,,,,false,,,,,false,4682855.599999905,4682855.1999999285,4677444.1,4677568.899999976,4677460.7,4682748.4,5,600,,
trial,html.Screen,10_33_0,2024-04-19T14:28:46.678Z,,,,1,-0.0118555311043871,-0.0087774532070196,,0.04,true,ll,5625.499999975786,response,-1.0088070132449485,1.1806176028922992,-1.0430346350288329,-0.9026684221154396,1.1364971246124251,-0.9403765015209713,low,low,,ISIC_6488658.JPG,8,ISIC_0059314.JPG,28,43,false,0.1,ll,keypress(f),0,false,4688374.1999999285,4688373.899999976,4682731.7,4682855.6999999285,4682748.4,4688269.6,5,600,34,
break,html.Screen,10_33_1,2024-04-19T14:28:46.679Z,,,,,,,,,,,NaN,,,,,,,,low,low,,,,,,,false,,,,,false,4688375.1999999285,4688374.899999976,,4688374.399999976,,4688269.6,5,600,,
break_continue,html.Screen,10_33_2,2024-04-19T14:28:46.680Z,,,,,,,,,,,NaN,,,,,,,,low,low,,,,,,,false,,,,,false,4688375.799999952,4688375.5,,4688375.299999952,,4688269.6,5,600,,
sequence,flow.Sequence,10_33,2024-04-19T14:28:46.680Z,,,,,,,,,,,5627.0999999996275,completion,,,,,,,low,low,,,,,,,false,,,,,false,4688375.899999976,4688375.5,4682731.7,4682855.6999999285,4682748.4,4688269.6,5,600,,
trial,html.Screen,10_34_0,2024-04-19T14:28:58.655Z,,,,1,0.0127320821962457,-0.0315308940184827,,0.04,false,ll,12080.599999928847,response,-1.0103956367534752,1.1806176028922992,-1.0430346350288329,-0.9950817758087226,1.1364971246124251,-0.9403765015209713,low,low,,ISIC_8156101.JPG,8,ISIC_0025267.JPG,28,43,false,0.1,hh,keypress(i),0,false,4700350.599999905,4700350.1999999285,4688253,4688376,4688269.6,4700246.1,5,600,35,
break,html.Screen,10_34_1,2024-04-19T14:28:58.656Z,,,,,,,,,,,NaN,,,,,,,,low,low,,,,,,,false,,,,,false,4700352.099999905,4700351.6999999285,,4700351.099999905,,4700246.1,5,600,,
break_continue,html.Screen,10_34_2,2024-04-19T14:28:58.657Z,,,,,,,,,,,NaN,,,,,,,,low,low,,,,,,,false,,,,,false,4700352.899999976,4700352.599999905,,4700352.299999952,,4700246.1,5,600,,
sequence,flow.Sequence,10_34,2024-04-19T14:28:58.657Z,,,,,,,,,,,12082.999999905005,completion,,,,,,,low,low,,,,,,,false,,,,,false,4700353.1999999285,4700352.599999905,4688253,4688376,4688269.6,4700246.1,5,600,,
trial,html.Screen,10_35_0,2024-04-19T14:29:01.038Z,,,,1,-0.0071892445601978,0.0246015408628738,,0.04,false,hh,2487.599999928847,response,1.0831477774866454,1.1806176028922992,-1.0430346350288329,1.0347343776726454,1.1364971246124251,-0.9403765015209713,high,high,,ISIC_0014133.JPG,9,ISIC_9475559.JPG,28,25,false,0.14,lh,keypress(e),0,false,4702734.099999905,4702733.6999999285,4700229.5,4700353.5,4700246.1,4702631.5,5,600,36,
break,html.Screen,10_35_1,2024-04-19T14:29:01.039Z,,,,,,,,,,,NaN,,,,,,,,high,high,,,,,,,false,,,,,false,4702735.5,4702735,,4702734.399999976,,4702631.5,5,600,,
break_continue,html.Screen,10_35_2,2024-04-19T14:29:01.040Z,,,,,,,,,,,NaN,,,,,,,,high,high,,,,,,,false,,,,,false,4702736.399999976,4702736.099999905,,4702735.6999999285,,4702631.5,5,600,,
sequence,flow.Sequence,10_35,2024-04-19T14:29:01.041Z,,,,,,,,,,,2489.999999905005,completion,,,,,,,high,high,,,,,,,false,,,,,false,4702736.799999952,4702736.099999905,4700229.5,4700353.399999976,4700246.1,4702631.5,5,600,,
trial,html.Screen,10_36_0,2024-04-19T14:29:06.603Z,,,,1,-0.0077673378094614,-0.0021810768579373,,0.04,true,hl,5667.699999928474,response,1.00615481805876,1.1806176028922992,-1.0430346350288329,-0.8428903771195875,1.1364971246124251,-0.9403765015209713,high,low,,ISIC_0067621.JPG,9,ISIC_0069970.JPG,28,26,false,0.2400000000000001,hl,keypress(j),0,false,4708299.299999952,4708299.1999999285,4702630.478,4702737,4702631.5,4708186,5,600,37,
break,html.Screen,10_36_1,2024-04-19T14:29:06.604Z,,,,,,,,,,,NaN,,,,,,,,high,low,,,,,,,false,,,,,false,4708299.6999999285,4708299.6999999285,,4708299.399999976,,4708186,5,600,,
break_continue,html.Screen,10_36_2,2024-04-19T14:29:06.604Z,,,,,,,,,,,NaN,,,,,,,,high,low,,,,,,,false,,,,,false,4708299.899999976,4708299.799999952,,4708299.799999952,,4708186,5,600,,
sequence,flow.Sequence,10_36,2024-04-19T14:29:06.604Z,,,,,,,,,,,5668.299999952316,completion,,,,,,,high,low,,,,,,,false,,,,,false,4708300,4708299.799999952,4702630.478,4702737,4702631.5,4708186,5,600,,
trial,html.Screen,10_37_0,2024-04-19T14:29:08.726Z,,,,1,0.0127320821962457,-0.0315308940184827,,0.04,true,lh,2235.399999976158,response,-0.8561946552009824,1.1806176028922992,-1.0430346350288329,0.9282171889213044,1.1364971246124251,-0.9403765015209713,low,high,,ISIC_8156101.JPG,9,ISIC_3065032.JPG,28,27,false,0.2400000000000001,lh,keypress(e),0,false,4710421.899999976,4710421.399999976,4708182.518,4708300,4708186,4710321.396,5,600,38,
break,html.Screen,10_37_1,2024-04-19T14:29:08.727Z,,,,,,,,,,,NaN,,,,,,,,low,high,,,,,,,false,,,,,false,4710423.1999999285,4710422.899999976,,4710422.1999999285,,4710321.396,5,600,,
break_continue,html.Screen,10_37_2,2024-04-19T14:29:08.728Z,,,,,,,,,,,NaN,,,,,,,,low,high,,,,,,,false,,,,,false,4710424,4710423.6999999285,,4710423.399999976,,4710321.396,5,600,,
sequence,flow.Sequence,10_37,2024-04-19T14:29:08.728Z,,,,,,,,,,,2237.6999999284744,completion,,,,,,,low,high,,,,,,,false,,,,,false,4710424.299999952,4710423.6999999285,4708182.518,4708300,4708186,4710321.396,5,600,,
