sender,sender_type,sender_id,timestamp,meta,,age,blockNo,c1,c2,condition,control_tolerance,correct,correctResponse,duration,ended_on,f1,f1_high,f1_low,f2,f2_high,f2_low,feature_level1,feature_level2,gender,img_left,img_reveal,img_right,n_control_images,n_target_images,practice,range_tolerance,response,response_action,selection_duration,staircase,time_commit,time_end,time_render,time_run,time_show,time_switch,total_blocks,total_trials,trialNo,url
informed_consent,html.Screen,0,2023-11-20T17:38:17.229Z,"{""labjs_version"":""20.2.4"",""labjs_build"":{""flavor"":""development"",""commit"":""f5b4a49f956347addd546a832a3327688c2c0fef""},""location"":""https://labjs.felixhenninger.com/api/labjs_preview/index.html"",""userAgent"":""Mozilla/5.0 (Windows NT 10.0; Win64; x64) AppleWebKit/537.36 (KHTML, like Gecko) Chrome/119.0.0.0 Safari/537.36"",""platform"":""Win32"",""language"":""en-US"",""locale"":""en-US"",""timeZone"":""America/Chicago"",""timezoneOffset"":360,""screen_width"":1920,""screen_height"":1080,""scroll_width"":945,""scroll_height"":918,""window_innerWidth"":945,""window_innerHeight"":966,""devicePixelRatio"":1}",,,,,,,,,,58298.812999904636,response,,,,,,,,,,,,,,,,,consent,click button,,,58876.199999928474,58869.09999990463,553.631,545.3999999761581,570.287,58888.232,,,,{}
Demography form,html.Form,1,2023-11-20T17:38:25.957Z,,,19,,,,,,,,8715.767999999996,form submission,,,,,,,,,female,,,,,,,,,,,,67604.19999992847,67604,58853.548,58876.39999997616,58888.232,67603.557,,,,
Welcome,html.Screen,2,2023-11-20T17:38:52.839Z,,,,,,,"[""bor"",""col""]",,,,26881.742999952316,response,,,,,,,,,,,,,,,,,continue,click button,,,94486.09999990463,94485.29999995232,67587.053,67604.29999995232,67603.557,94503.926,,,,
demo_instructions,html.Screen,3,2023-11-20T17:39:37.375Z,,,,,,,,,,,44517.47399997615,response,,,,,,,,,,,,,,,,,continue,click button,,,139022.19999992847,139021.39999997616,94470.616,94486.29999995232,94503.926,139036.916,,,,
trial,html.Screen,4_0_0,2023-11-20T17:39:48.872Z,,,,0,-1.071312313440387,-1.0935391476164529,,,true,hh,11481.683999904635,response,1.2253191093367526,1.2,-1.2,1.241905252673026,1.2,-1.2,high,high,,ISIC_0063680.JPG,,ISIC_1195689.JPG,,25,true,0.14,hh,keypress(i),100,false,150518.79999995232,150518.59999990463,139020.172,139022.39999997616,139036.916,150536.87,1,16,1,
sequence,flow.Sequence,4_0,2023-11-20T17:39:48.872Z,,,,,,,,,,,11481.683999904635,completion,,,,,,,high,high,,,,,,,true,,,,,false,150518.89999997616,150518.59999990463,139020.172,139022.39999997616,139036.916,150536.87,1,16,,
trial,html.Screen,4_1_0,2023-11-20T17:40:02.477Z,,,,0,-1.236306205926646,-1.116612676102794,,,true,hh,13587.329999928479,response,1.1409143352872226,1.2,-1.2,1.1323007949069106,1.2,-1.2,high,high,,ISIC_0054341.JPG,,ISIC_0030291.JPG,,25,true,0.14,hh,keypress(i),100,false,164124.39999997616,164124.19999992847,150520.134,150519,150536.87,164153.705,1,16,2,
sequence,flow.Sequence,4_1,2023-11-20T17:40:02.477Z,,,,,,,,,,,13587.329999928479,completion,,,,,,,high,high,,,,,,,true,,,,,false,164124.59999990463,164124.19999992847,150520.134,150519,150536.87,164153.705,1,16,,
trial,html.Screen,4_2_0,2023-11-20T17:40:14.322Z,,,,0,-1.136677654701082,-1.2647850993872314,,,true,hh,11815.494999928487,response,1.109799097093339,1.2,-1.2,1.091507924157762,1.2,-1.2,high,high,,ISIC_0015436.JPG,,ISIC_0765584.JPG,,25,true,0.14,hh,keypress(i),100,false,175969.29999995232,175969.19999992847,164137.036,164124.59999990463,164153.705,175987.068,1,16,3,
sequence,flow.Sequence,4_2,2023-11-20T17:40:14.322Z,,,,,,,,,,,11815.494999928487,completion,,,,,,,high,high,,,,,,,true,,,,,false,175969.5,175969.19999992847,164137.036,164124.59999990463,164153.705,175987.068,1,16,,
trial,html.Screen,4_3_0,2023-11-20T17:40:18.679Z,,,,0,-1.0915173513546716,-1.266840220031473,,,true,hh,4338.831999976159,response,1.1989130276493527,1.2,-1.2,1.2666195460149832,1.2,-1.2,high,high,,ISIC_8241457.JPG,,ISIC_0031705.JPG,,25,true,0.14,hh,keypress(i),100,false,180326.09999990463,180325.89999997616,175970.117,175969.5,175987.068,180353.434,1,16,4,
sequence,flow.Sequence,4_3,2023-11-20T17:40:18.679Z,,,,,,,,,,,4338.831999976159,completion,,,,,,,high,high,,,,,,,true,,,,,false,180326.19999992847,180325.89999997616,175970.117,175969.5,175987.068,180353.434,1,16,,
trial,html.Screen,4_4_0,2023-11-20T17:40:41.853Z,,,,0,1.2946277435220357,1.255157480204324,,,true,ll,23146.06599999999,response,-1.0849202097813322,1.2,-1.2,-1.0851127310415287,1.2,-1.2,low,low,,ISIC_1870309.JPG,,ISIC_0010289.JPG,,30,true,0.13,ll,keypress(f),100,false,203499.69999992847,203499.5,180336.788,180326.19999992847,180353.434,203520.073,1,16,5,
sequence,flow.Sequence,4_4,2023-11-20T17:40:41.853Z,,,,,,,,,,,23146.06599999999,completion,,,,,,,low,low,,,,,,,true,,,,,false,203499.79999995232,203499.5,180336.788,180326.19999992847,180353.434,203520.073,1,16,,
trial,html.Screen,4_5_0,2023-11-20T17:40:51.201Z,,,,0,1.274417010249866,1.0725495669014795,,,true,ll,9327.526999904629,response,-1.0849202097813322,1.2,-1.2,-1.0851127310415287,1.2,-1.2,low,low,,ISIC_8849004.JPG,,ISIC_0010289.JPG,,40,true,0.14,ll,keypress(f),100,false,212847.79999995232,212847.59999990463,203503.422,203499.89999997616,203520.073,212870.057,1,16,6,
sequence,flow.Sequence,4_5,2023-11-20T17:40:51.201Z,,,,,,,,,,,9327.526999904629,completion,,,,,,,low,low,,,,,,,true,,,,,false,212847.89999997616,212847.59999990463,203503.422,203499.79999995232,203520.073,212870.057,1,16,,
trial,html.Screen,4_6_0,2023-11-20T17:41:05.973Z,,,,0,1.2246024683501224,1.2904526351590244,,,true,ll,14749.842999976157,response,-1.0915173513546716,1.2,-1.2,-1.266840220031473,1.2,-1.2,low,low,,ISIC_4730066.JPG,,ISIC_8241457.JPG,,40,true,0.14,ll,keypress(f),100,false,227620.09999990463,227619.89999997616,212853.581,212848,212870.057,227636.912,1,16,7,
sequence,flow.Sequence,4_6,2023-11-20T17:41:05.974Z,,,,,,,,,,,14749.842999976157,completion,,,,,,,low,low,,,,,,,true,,,,,false,227620.39999997616,227619.89999997616,212853.581,212848,212870.057,227636.912,1,16,,
trial,html.Screen,4_7_0,2023-11-20T17:41:30.106Z,,,,0,1.1870093485714288,1.3339880978442629,,,true,ll,24115.987999976147,response,-1.2194553326562725,1.2,-1.2,-1.2381726989215684,1.2,-1.2,low,low,,ISIC_8592235.JPG,,ISIC_0068975.JPG,,40,true,0.14,ll,keypress(f),100,false,251753,251752.89999997616,227620.06,227620.5,227636.912,251770.003,1,16,8,
sequence,flow.Sequence,4_7,2023-11-20T17:41:30.106Z,,,,,,,,,,,24115.987999976147,completion,,,,,,,low,low,,,,,,,true,,,,,false,251753.19999992847,251752.89999997616,227620.06,227620.39999997616,227636.912,251770.003,1,16,,
trial,html.Screen,4_8_0,2023-11-20T17:41:43.709Z,,,,0,1.2578167348825195,-0.8371819698254004,,,true,lh,13585.096999904636,response,-1.0685314915436992,1.2,-1.2,0.8203833713472237,1.2,-1.2,low,high,,ISIC_9613570.JPG,,ISIC_0029374.JPG,,27,true,0.40000000000000024,lh,keypress(e),100,false,265355.39999997616,265355.09999990463,251753.356,251753.29999995232,251770.003,265386.675,1,16,9,
sequence,flow.Sequence,4_8,2023-11-20T17:41:43.709Z,,,,,,,,,,,13585.096999904636,completion,,,,,,,low,high,,,,,,,true,,,,,false,265355.59999990463,265355.09999990463,251753.356,251753.29999995232,251770.003,265386.675,1,16,,
trial,html.Screen,4_9_0,2023-11-20T17:41:48.890Z,,,,0,0.9653573371180936,-0.854766800381037,,,true,lh,5149.524999928486,response,-0.8500530224490773,1.2,-1.2,1.0893360711742854,1.2,-1.2,low,high,,ISIC_9640145.JPG,,ISIC_2998367.JPG,,40,true,0.4500000000000003,lh,keypress(e),100,false,270536.2999999523,270536.1999999285,265370.068,265355.59999990463,265386.675,270553.281,1,16,10,
sequence,flow.Sequence,4_9,2023-11-20T17:41:48.890Z,,,,,,,,,,,5149.524999928486,completion,,,,,,,low,high,,,,,,,true,,,,,false,270536.59999990463,270536.1999999285,265370.068,265355.59999990463,265386.675,270553.281,1,16,,
trial,html.Screen,4_10_0,2023-11-20T17:41:55.094Z,,,,0,1.058275612142778,-0.7824898568540655,,,true,lh,6187.718999999983,response,-0.9198276163642348,1.2,-1.2,0.7754915110667046,1.2,-1.2,low,high,,ISIC_4906385.JPG,,ISIC_7840728.JPG,,40,true,0.4500000000000003,lh,keypress(e),100,false,276741.09999990463,276741,270536.657,270536.59999990463,270553.281,276769.959,1,16,11,
sequence,flow.Sequence,4_10,2023-11-20T17:41:55.094Z,,,,,,,,,,,6187.718999999983,completion,,,,,,,low,high,,,,,,,true,,,,,false,276741.2999999523,276741,270536.657,270536.59999990463,270553.281,276769.959,1,16,,
trial,html.Screen,4_11_0,2023-11-20T17:42:06.881Z,,,,0,0.7518277461369444,-1.3860759020802074,,,true,lh,11757.840999952343,response,-1.0116417541846066,1.2,-1.2,1.033442916947398,1.2,-1.2,low,high,,ISIC_7967397.JPG,,ISIC_0031389.JPG,,40,true,0.4500000000000003,lh,keypress(e),100,false,288527.89999997616,288527.7999999523,276753.506,276741.2999999523,276769.959,288553.521,1,16,12,
sequence,flow.Sequence,4_11,2023-11-20T17:42:06.881Z,,,,,,,,,,,11757.840999952343,completion,,,,,,,low,high,,,,,,,true,,,,,false,288528.09999990463,288527.7999999523,276753.506,276741.2999999523,276769.959,288553.521,1,16,,
trial,html.Screen,4_12_0,2023-11-20T17:42:15.774Z,,,,0,-0.90812608370647,1.2720026872926935,,,true,hl,8867.178999928467,response,0.8513427412482127,1.2,-1.2,-0.9295303568095064,1.2,-1.2,high,low,,ISIC_0450295.JPG,,ISIC_0034164.JPG,,26,true,0.4500000000000003,hl,keypress(j),100,false,297420.89999997616,297420.6999999285,288536.649,288528.1999999285,288553.521,297436.808,1,16,13,
sequence,flow.Sequence,4_12,2023-11-20T17:42:15.774Z,,,,,,,,,,,8867.178999928467,completion,,,,,,,high,low,,,,,,,true,,,,,false,297421.09999990463,297420.6999999285,288536.649,288528.09999990463,288553.521,297436.808,1,16,,
trial,html.Screen,4_13_0,2023-11-20T17:42:31.899Z,,,,0,-1.0788024398087033,0.9911875460374616,,,true,hl,16108.791999904613,response,0.7883321712536753,1.2,-1.2,-1.0011430756825364,1.2,-1.2,high,low,,ISIC_5951430.JPG,,ISIC_9828853.JPG,,26,true,0.4500000000000003,hl,keypress(j),100,false,313545.7999999523,313545.59999990463,297420.423,297421.09999990463,297436.808,313570.177,1,16,14,
sequence,flow.Sequence,4_13,2023-11-20T17:42:31.899Z,,,,,,,,,,,16108.791999904613,completion,,,,,,,high,low,,,,,,,true,,,,,false,313545.89999997616,313545.59999990463,297420.423,297421.09999990463,297436.808,313570.177,1,16,,
trial,html.Screen,4_14_0,2023-11-20T17:42:41.161Z,,,,0,-0.9662688541319592,0.929746784178986,,,true,hl,9237.322999999975,response,0.989300717252516,1.2,-1.2,-0.7908280206937478,1.2,-1.2,high,low,,ISIC_0011077.JPG,,ISIC_6416533.JPG,,26,true,0.4500000000000003,hl,keypress(j),100,false,322807.7999999523,322807.5,313553.286,313546,313570.177,322836.746,1,16,15,
sequence,flow.Sequence,4_14,2023-11-20T17:42:41.161Z,,,,,,,,,,,9237.322999999975,completion,,,,,,,high,low,,,,,,,true,,,,,false,322808,322807.5,313553.286,313546,313570.177,322836.746,1,16,,
trial,html.Screen,4_15_0,2023-11-20T17:42:46.518Z,,,,0,-1.0153439398566937,0.93001438372942,,,true,hl,5328.053999952332,response,1.058275612142778,1.2,-1.2,-0.7824898568540655,1.2,-1.2,high,low,,ISIC_8211214.JPG,,ISIC_4906385.JPG,,26,true,0.4500000000000003,hl,keypress(j),100,false,328165,328164.7999999523,322819.923,322808,322836.746,328186.754,1,16,16,
sequence,flow.Sequence,4_15,2023-11-20T17:42:46.518Z,,,,,,,,,,,5328.053999952332,completion,,,,,,,high,low,,,,,,,true,,,,,false,328165.1999999285,328164.7999999523,322819.923,322808,322836.746,328186.754,1,16,,
demonstration_loop,flow.Loop,4,2023-11-20T17:42:46.518Z,,,,,,,,,,,189127.88399995232,completion,,,,,,,,,,,,,,,true,,,,,false,328165.2999999523,328164.7999999523,139020.172,139022.29999995232,139036.916,328186.754,1,16,,
practice_instructions,html.Screen,5,2023-11-20T17:43:15.412Z,,,,,,,,,,,28866.245999999985,response,,,,,,,,,,,,,,,,,continue,click button,,,357059.1999999285,357053,328169.925,328165.2999999523,328186.754,357069.862,,,,
trial,html.Screen,6_0_0,2023-11-20T17:43:28.744Z,,,,1,1.2541318165695772,1.085289936617366,,,true,ll,13320.837999928452,response,-1.0849202097813322,1.2,-1.2,-1.0851127310415287,1.2,-1.2,low,low,,ISIC_4277207.JPG,,ISIC_0010289.JPG,,30,true,0.13,ll,keypress(f),0,false,370390.7999999523,370390.6999999285,357053.384,357059.2999999523,357069.862,370403.187,1,40,1,
sequence,flow.Sequence,6_0,2023-11-20T17:43:28.744Z,,,,,,,,,,,13320.837999928452,completion,,,,,,,low,low,,,,,,,true,,,,,false,370390.89999997616,370390.6999999285,357053.384,357059.2999999523,357069.862,370403.187,1,40,,
trial,html.Screen,6_1_0,2023-11-20T17:43:42.855Z,,,,1,1.058275612142778,-0.7824898568540655,,,true,lh,14098.912999904656,response,-1.0153439398566937,1.2,-1.2,0.93001438372942,1.2,-1.2,low,high,,ISIC_4906385.JPG,,ISIC_8211214.JPG,,27,true,0.40000000000000024,lh,keypress(e),0,false,384502.1999999285,384502.09999990463,370386.305,370390.89999997616,370403.187,384520.28,1,40,2,
sequence,flow.Sequence,6_1,2023-11-20T17:43:42.856Z,,,,,,,,,,,14098.912999904656,completion,,,,,,,low,high,,,,,,,true,,,,,false,384502.2999999523,384502.09999990463,370386.305,370390.89999997616,370403.187,384520.28,1,40,,
trial,html.Screen,6_2_0,2023-11-20T17:43:47.832Z,,,,1,-1.0915173513546716,-1.266840220031473,,,true,hh,4958.219999999972,response,1.2219550761700546,1.2,-1.2,1.2809901875733454,1.2,-1.2,high,high,,ISIC_8241457.JPG,,ISIC_6463417.JPG,,265,true,0.4500000000000003,hh,keypress(i),0,false,389478.59999990463,389478.5,384486.024,384502.2999999523,384520.28,389486.508,1,40,3,
sequence,flow.Sequence,6_2,2023-11-20T17:43:47.832Z,,,,,,,,,,,4958.219999999972,completion,,,,,,,high,high,,,,,,,true,,,,,false,389478.6999999285,389478.5,384486.024,384502.2999999523,384520.28,389486.508,1,40,,
trial,html.Screen,6_3_0,2023-11-20T17:43:53.608Z,,,,1,1.3246728710248594,1.1527736000922424,,,true,ll,5768.291999952344,response,-1.2749714218614645,1.2,-1.2,-1.1578619398362149,1.2,-1.2,low,low,,ISIC_6876281.JPG,,ISIC_0024999.JPG,,30,true,0.13,ll,keypress(f),0,false,395255,395254.7999999523,389469.673,389478.6999999285,389486.508,395269.884,1,40,4,
sequence,flow.Sequence,6_3,2023-11-20T17:43:53.608Z,,,,,,,,,,,5768.291999952344,completion,,,,,,,low,low,,,,,,,true,,,,,false,395255.09999990463,395254.7999999523,389469.673,389478.6999999285,389486.508,395269.884,1,40,,
trial,html.Screen,6_4_0,2023-11-20T17:43:58.071Z,,,,1,-1.0685314915436992,0.8203833713472237,,,true,hl,4448.11599999998,response,1.0887164761389951,1.2,-1.2,-1.5357518752548716,1.2,-1.2,high,low,,ISIC_0029374.JPG,,ISIC_0028127.JPG,,26,true,0.4500000000000003,hl,keypress(j),0,false,399718.09999990463,399718,395252.985,395255.09999990463,395269.884,399719.825,1,40,5,
sequence,flow.Sequence,6_4,2023-11-20T17:43:58.072Z,,,,,,,,,,,4448.11599999998,completion,,,,,,,high,low,,,,,,,true,,,,,false,399718.1999999285,399718,395252.985,395255.09999990463,395269.884,399719.825,1,40,,
trial,html.Screen,6_5_0,2023-11-20T17:44:06.744Z,,,,1,1.1684835186766898,1.2921331918483707,,,true,ll,8670.874999928463,response,-0.944080179100643,1.2,-1.2,-1.4799102861694644,1.2,-1.2,low,low,,ISIC_5920470.JPG,,ISIC_0059336.JPG,,288,true,0.40000000000000024,ll,keypress(f),0,false,408390.6999999285,408390.6999999285,399703.014,399718.1999999285,399719.825,408403.139,1,40,6,
sequence,flow.Sequence,6_5,2023-11-20T17:44:06.744Z,,,,,,,,,,,8670.874999928463,completion,,,,,,,low,low,,,,,,,true,,,,,false,408390.7999999523,408390.6999999285,399703.014,399718.1999999285,399719.825,408403.139,1,40,,
trial,html.Screen,6_6_0,2023-11-20T17:44:22.741Z,,,,1,-1.0153439398566937,0.93001438372942,,,,,16016.804000000004,timeout,1.0369885917487718,1.2,-1.2,-0.8486937878412699,1.2,-1.2,high,low,,ISIC_8211214.JPG,,ISIC_6917681.JPG,,26,true,0.4500000000000003,,,0,false,424387.2999999523,424387.09999990463,408386.436,408390.7999999523,408403.139,424419.943,1,40,7,
sequence,flow.Sequence,6_6,2023-11-20T17:44:22.741Z,,,,,,,,,,,15983.960999904608,completion,,,,,,,high,low,,,,,,,true,,,,,false,424387.39999997616,424387.09999990463,408386.436,408390.7999999523,408403.139,424419.943,1,40,,
trial,html.Screen,6_7_0,2023-11-20T17:44:28.136Z,,,,1,1.274752206258116,1.2988509166163749,,,true,ll,5362.856999952288,response,-0.9985175466432205,1.2,-1.2,-1.1132725606321277,1.2,-1.2,low,low,,ISIC_6704623.JPG,,ISIC_0034002.JPG,,288,true,0.40000000000000024,ll,keypress(f),0,false,429782.89999997616,429782.7999999523,424403.38,424387.39999997616,424419.943,429786.457,1,40,8,
sequence,flow.Sequence,6_7,2023-11-20T17:44:28.136Z,,,,,,,,,,,5362.856999952288,completion,,,,,,,low,low,,,,,,,true,,,,,false,429783,429782.7999999523,424403.38,424387.39999997616,424419.943,429786.457,1,40,,
trial,html.Screen,6_8_0,2023-11-20T17:44:32.968Z,,,,1,0.8830264383952469,-0.8635562538060516,,,true,lh,4828.043000000005,response,-0.8544507134472948,1.2,-1.2,0.9244388608707323,1.2,-1.2,low,high,,ISIC_0032258.JPG,,ISIC_3565564.JPG,,27,true,0.40000000000000024,lh,keypress(e),0,false,434614.6999999285,434614.5,429769.625,429783,429786.457,434619.779,1,40,9,
sequence,flow.Sequence,6_8,2023-11-20T17:44:32.968Z,,,,,,,,,,,4828.043000000005,completion,,,,,,,low,high,,,,,,,true,,,,,false,434614.6999999285,434614.5,429769.625,429783,429786.457,434619.779,1,40,,
trial,html.Screen,6_9_0,2023-11-20T17:44:38.440Z,,,,1,-0.8067116931297591,1.215898074058027,,,true,hl,5466.72100000002,response,1.2578167348825195,1.2,-1.2,-0.8371819698254004,1.2,-1.2,high,low,,ISIC_1457687.JPG,,ISIC_9613570.JPG,,26,true,0.4500000000000003,hl,keypress(j),0,false,440086.59999990463,440086.5,434603.043,434614.7999999523,434619.779,440103.346,1,40,10,
sequence,flow.Sequence,6_9,2023-11-20T17:44:38.440Z,,,,,,,,,,,5466.72100000002,completion,,,,,,,high,low,,,,,,,true,,,,,false,440086.6999999285,440086.5,434603.043,434614.7999999523,434619.779,440103.346,1,40,,
trial,html.Screen,6_10_0,2023-11-20T17:44:42.872Z,,,,1,-1.1392972253022884,-1.208510423375335,,,true,hh,4415.053999976139,response,0.9798314852960236,1.2,-1.2,1.167024525807191,1.2,-1.2,high,high,,ISIC_0046526.JPG,,ISIC_4341261.JPG,,203,true,0.40000000000000024,hh,keypress(i),0,false,444518.59999990463,444518.39999997616,440086.334,440086.6999999285,440103.346,444536.93,1,40,11,
sequence,flow.Sequence,6_10,2023-11-20T17:44:42.872Z,,,,,,,,,,,4415.053999976139,completion,,,,,,,high,high,,,,,,,true,,,,,false,444518.59999990463,444518.39999997616,440086.334,440086.6999999285,440103.346,444536.93,1,40,,
trial,html.Screen,6_11_0,2023-11-20T17:44:46.456Z,,,,1,-1.266079261381142,-1.312161506160336,,,true,hh,3565.6699999046396,response,1.2541318165695772,1.2,-1.2,1.085289936617366,1.2,-1.2,high,high,,ISIC_0065449.JPG,,ISIC_4277207.JPG,,25,true,0.14,hh,keypress(i),0,false,448102.6999999285,448102.59999990463,444503.122,444518.6999999285,444536.93,448136.481,1,40,12,
sequence,flow.Sequence,6_11,2023-11-20T17:44:46.456Z,,,,,,,,,,,3565.6699999046396,completion,,,,,,,high,high,,,,,,,true,,,,,false,448102.7999999523,448102.59999990463,444503.122,444518.6999999285,444536.93,448136.481,1,40,,
trial,html.Screen,6_12_0,2023-11-20T17:44:50.056Z,,,,1,1.0329549150636406,-1.01584100839286,,,true,lh,3566.018999999971,response,-0.9089402323867112,1.2,-1.2,0.8034544077281132,1.2,-1.2,low,high,,ISIC_0054670.JPG,,ISIC_3585381.JPG,,27,true,0.40000000000000024,lh,keypress(e),0,false,451702.6999999285,451702.5,448119.777,448102.7999999523,448136.481,451736.435,1,40,13,
sequence,flow.Sequence,6_12,2023-11-20T17:44:50.056Z,,,,,,,,,,,3566.018999999971,completion,,,,,,,low,high,,,,,,,true,,,,,false,451702.7999999523,451702.5,448119.777,448102.7999999523,448136.481,451736.435,1,40,,
trial,html.Screen,6_13_0,2023-11-20T17:44:52.840Z,,,,1,-0.8500530224490773,1.0893360711742854,,,true,hl,2750.0650000000023,response,0.8719231363109603,1.2,-1.2,-0.7704280220140033,1.2,-1.2,high,low,,ISIC_2998367.JPG,,ISIC_0029453.JPG,,26,true,0.4500000000000003,hl,keypress(j),0,false,454486.59999990463,454486.5,451719.967,451702.7999999523,451736.435,454503.225,1,40,14,
sequence,flow.Sequence,6_13,2023-11-20T17:44:52.840Z,,,,,,,,,,,2750.0650000000023,completion,,,,,,,high,low,,,,,,,true,,,,,false,454486.6999999285,454486.5,451719.967,451702.7999999523,451736.435,454503.225,1,40,,
trial,html.Screen,6_14_0,2023-11-20T17:44:56.328Z,,,,1,1.1843968275545205,1.2828739728067764,,,false,ll,3471.2750000000233,response,-0.8753377219848621,1.2,-1.2,-1.157912599481825,1.2,-1.2,low,low,,ISIC_0002901.JPG,,ISIC_0026272.JPG,,288,true,0.40000000000000024,lh,keypress(e),0,false,457974.6999999285,457974.5,454486.387,454486.6999999285,454503.225,457986.698,1,40,15,
sequence,flow.Sequence,6_14,2023-11-20T17:44:56.328Z,,,,,,,,,,,3471.2750000000233,completion,,,,,,,low,low,,,,,,,true,,,,,false,457974.7999999523,457974.5,454486.387,454486.6999999285,454503.225,457986.698,1,40,,
trial,html.Screen,6_15_0,2023-11-20T17:44:58.744Z,,,,1,-1.1441767540243375,-1.0949087392471728,,,true,hh,2403.802000000025,response,1.0943527860463682,1.2,-1.2,1.124481746658104,1.2,-1.2,high,high,,ISIC_0054146.JPG,,ISIC_0438136.JPG,,25,true,0.14,hh,keypress(i),0,false,460390.59999990463,460390.5,457970.098,457974.7999999523,457986.698,460403.083,1,40,16,
sequence,flow.Sequence,6_15,2023-11-20T17:44:58.744Z,,,,,,,,,,,2403.802000000025,completion,,,,,,,high,high,,,,,,,true,,,,,false,460390.6999999285,460390.5,457970.098,457974.7999999523,457986.698,460403.083,1,40,,
trial,html.Screen,6_16_0,2023-11-20T17:45:03.031Z,,,,1,1.2054195059663604,-0.7760611240296147,,,true,lh,4275.016999904648,response,-1.2020012168275056,1.2,-1.2,0.923753102263735,1.2,-1.2,low,high,,ISIC_8712559.JPG,,ISIC_0000022.JPG,,27,true,0.40000000000000024,lh,keypress(e),0,false,464678.1999999285,464678.09999990463,460386.532,460390.7999999523,460403.083,464686.502,1,40,17,
sequence,flow.Sequence,6_16,2023-11-20T17:45:03.032Z,,,,,,,,,,,4275.016999904648,completion,,,,,,,low,high,,,,,,,true,,,,,false,464678.1999999285,464678.09999990463,460386.532,460390.7999999523,460403.083,464686.502,1,40,,
trial,html.Screen,6_17_0,2023-11-20T17:45:07.304Z,,,,1,1.274752206258116,1.2988509166163749,,,true,ll,4263.697999928496,response,-1.0108177579726572,1.2,-1.2,-1.2740443651890667,1.2,-1.2,low,low,,ISIC_6704623.JPG,,ISIC_0010295.JPG,,359,true,0.4500000000000003,ll,keypress(f),0,false,468950.2999999523,468950.1999999285,464669.754,464678.1999999285,464686.502,468953.081,1,40,18,
sequence,flow.Sequence,6_17,2023-11-20T17:45:07.304Z,,,,,,,,,,,4263.697999928496,completion,,,,,,,low,low,,,,,,,true,,,,,false,468950.5,468950.1999999285,464669.754,464678.1999999285,464686.502,468953.081,1,40,,
trial,html.Screen,6_18_0,2023-11-20T17:45:12.360Z,,,,1,1.1843968275545205,1.2828739728067764,,,true,ll,5053.418999999994,response,-1.1936751736668425,1.2,-1.2,-1.2584308630745344,1.2,-1.2,low,low,,ISIC_0002901.JPG,,ISIC_0061265.JPG,,40,true,0.14,ll,keypress(f),0,false,474006.59999990463,474006.5,468936.737,468950.5,468953.081,474019.727,1,40,19,
sequence,flow.Sequence,6_18,2023-11-20T17:45:12.360Z,,,,,,,,,,,5053.418999999994,completion,,,,,,,low,low,,,,,,,true,,,,,false,474006.59999990463,474006.5,468936.737,468950.5,468953.081,474019.727,1,40,,
trial,html.Screen,6_19_0,2023-11-20T17:45:17.751Z,,,,1,-0.9662688541319592,0.929746784178986,,,true,hl,5378.072999952303,response,0.989300717252516,1.2,-1.2,-0.7908280206937478,1.2,-1.2,high,low,,ISIC_0011077.JPG,,ISIC_6416533.JPG,,26,true,0.4500000000000003,hl,keypress(j),0,false,479398,479397.7999999523,474003.155,474006.6999999285,474019.727,479403.085,1,40,20,
sequence,flow.Sequence,6_19,2023-11-20T17:45:17.751Z,,,,,,,,,,,5378.072999952303,completion,,,,,,,high,low,,,,,,,true,,,,,false,479398,479397.7999999523,474003.155,474006.6999999285,474019.727,479403.085,1,40,,
trial,html.Screen,6_20_0,2023-11-20T17:45:21.144Z,,,,1,-1.1441767540243375,-1.0949087392471728,,,true,hh,3387.414999999979,response,1.2541318165695772,1.2,-1.2,1.085289936617366,1.2,-1.2,high,high,,ISIC_0054146.JPG,,ISIC_4277207.JPG,,203,true,0.40000000000000024,hh,keypress(i),0,false,482790.59999990463,482790.5,479386.277,479398.09999990463,479403.085,482803.329,1,40,21,
sequence,flow.Sequence,6_20,2023-11-20T17:45:21.144Z,,,,,,,,,,,3387.414999999979,completion,,,,,,,high,high,,,,,,,true,,,,,false,482790.6999999285,482790.5,479386.277,479398.09999990463,479403.085,482803.329,1,40,,
trial,html.Screen,6_21_0,2023-11-20T17:45:24.167Z,,,,1,-1.1302628852630028,-1.288906469447243,,,true,hh,3010.570999976131,response,1.1409143352872226,1.2,-1.2,1.1323007949069106,1.2,-1.2,high,high,,ISIC_0071050.JPG,,ISIC_0030291.JPG,,25,true,0.14,hh,keypress(i),0,false,485814,485813.89999997616,482786.573,482790.7999999523,482803.329,485819.718,1,40,22,
sequence,flow.Sequence,6_21,2023-11-20T17:45:24.167Z,,,,,,,,,,,3010.570999976131,completion,,,,,,,high,high,,,,,,,true,,,,,false,485814.09999990463,485813.89999997616,482786.573,482790.7999999523,482803.329,485819.718,1,40,,
trial,html.Screen,6_22_0,2023-11-20T17:45:26.904Z,,,,1,0.989300717252516,-0.7908280206937478,,,true,lh,2730.7820000000065,response,-0.9138670886161264,1.2,-1.2,0.8414121478342018,1.2,-1.2,low,high,,ISIC_6416533.JPG,,ISIC_6709052.JPG,,27,true,0.40000000000000024,lh,keypress(e),0,false,488550.59999990463,488550.5,485803.246,485814.09999990463,485819.718,488553.069,1,40,23,
sequence,flow.Sequence,6_22,2023-11-20T17:45:26.904Z,,,,,,,,,,,2730.7820000000065,completion,,,,,,,low,high,,,,,,,true,,,,,false,488550.6999999285,488550.5,485803.246,485814.09999990463,485819.718,488553.069,1,40,,
trial,html.Screen,6_23_0,2023-11-20T17:45:29.784Z,,,,1,-1.045301444872812,1.0872560254441277,,,true,hl,2877.4309999999823,response,1.0887164761389951,1.2,-1.2,-1.5357518752548716,1.2,-1.2,high,low,,ISIC_4507700.JPG,,ISIC_0028127.JPG,,26,true,0.4500000000000003,hl,keypress(j),0,false,491430.5,491430.5,488536.341,488550.6999999285,488553.069,491436.376,1,40,24,
sequence,flow.Sequence,6_23,2023-11-20T17:45:29.784Z,,,,,,,,,,,2877.4309999999823,completion,,,,,,,high,low,,,,,,,true,,,,,false,491430.6999999285,491430.5,488536.341,488550.6999999285,488553.069,491436.376,1,40,,
trial,html.Screen,6_24_0,2023-11-20T17:45:31.960Z,,,,1,0.8472024037189965,-0.986370061404882,,,true,lh,2170.023999976169,response,-1.168911077628813,1.2,-1.2,1.2181838235193114,1.2,-1.2,low,high,,ISIC_0054355.JPG,,ISIC_7358691.JPG,,27,true,0.40000000000000024,lh,keypress(e),0,false,493606.5,493606.39999997616,491419.918,491430.6999999285,491436.376,493619.909,1,40,25,
sequence,flow.Sequence,6_24,2023-11-20T17:45:31.960Z,,,,,,,,,,,2170.023999976169,completion,,,,,,,low,high,,,,,,,true,,,,,false,493606.59999990463,493606.39999997616,491419.918,491430.6999999285,491436.376,493619.909,1,40,,
trial,html.Screen,6_25_0,2023-11-20T17:45:34.552Z,,,,1,-1.1117876838408909,-1.2957497771092716,,,true,hh,2578.490999976173,response,1.4645991091283923,1.2,-1.2,1.5459439545394422,1.2,-1.2,high,high,,ISIC_0061915.JPG,,ISIC_7264251.JPG,,265,true,0.4500000000000003,hh,keypress(i),0,false,496198.5,496198.39999997616,493603.461,493606.6999999285,493619.909,496203.034,1,40,26,
sequence,flow.Sequence,6_25,2023-11-20T17:45:34.552Z,,,,,,,,,,,2578.490999976173,completion,,,,,,,high,high,,,,,,,true,,,,,false,496198.59999990463,496198.39999997616,493603.461,493606.6999999285,493619.909,496203.034,1,40,,
trial,html.Screen,6_26_0,2023-11-20T17:45:38.200Z,,,,1,0.8719231363109603,-0.7704280220140033,,,true,lh,3643.1659999284893,response,-1.045301444872812,1.2,-1.2,1.0872560254441277,1.2,-1.2,low,high,,ISIC_0029453.JPG,,ISIC_4507700.JPG,,27,true,0.40000000000000024,lh,keypress(e),0,false,499846.2999999523,499846.1999999285,496186.784,496198.6999999285,496203.034,499853.123,1,40,27,
sequence,flow.Sequence,6_26,2023-11-20T17:45:38.200Z,,,,,,,,,,,3643.1659999284893,completion,,,,,,,low,high,,,,,,,true,,,,,false,499846.39999997616,499846.1999999285,496186.784,496198.6999999285,496203.034,499853.123,1,40,,
trial,html.Screen,6_27_0,2023-11-20T17:45:42.280Z,,,,1,1.109799097093339,1.091507924157762,,,true,ll,4073.2769999761367,response,-1.236306205926646,1.2,-1.2,-1.116612676102794,1.2,-1.2,low,low,,ISIC_0765584.JPG,,ISIC_0054341.JPG,,359,true,0.4500000000000003,ll,keypress(f),0,false,503926.5,503926.39999997616,499836.495,499846.5,499853.123,503936.357,1,40,28,
sequence,flow.Sequence,6_27,2023-11-20T17:45:42.280Z,,,,,,,,,,,4073.2769999761367,completion,,,,,,,low,low,,,,,,,true,,,,,false,503926.5,503926.39999997616,499836.495,499846.5,499853.123,503936.357,1,40,,
trial,html.Screen,6_28_0,2023-11-20T17:45:45.400Z,,,,1,0.9754077946987664,-1.1821868813141057,,,true,lh,3110.04299997614,response,-0.8067116931297591,1.2,-1.2,1.215898074058027,1.2,-1.2,low,high,,ISIC_0024317.JPG,,ISIC_1457687.JPG,,27,true,0.40000000000000024,lh,keypress(e),0,false,507046.5,507046.39999997616,503919.598,503926.59999990463,503936.357,507053.022,1,40,29,
sequence,flow.Sequence,6_28,2023-11-20T17:45:45.400Z,,,,,,,,,,,3110.04299997614,completion,,,,,,,low,high,,,,,,,true,,,,,false,507046.6999999285,507046.39999997616,503919.598,503926.59999990463,503936.357,507053.022,1,40,,
trial,html.Screen,6_29_0,2023-11-20T17:45:49.080Z,,,,1,-0.9244148283103414,0.9712966348713286,,,true,hl,3673.277999952319,response,0.7883321712536753,1.2,-1.2,-1.0011430756825364,1.2,-1.2,high,low,,ISIC_7927525.JPG,,ISIC_9828853.JPG,,26,true,0.4500000000000003,hl,keypress(j),0,false,510726.39999997616,510726.2999999523,507036.45,507046.6999999285,507053.022,510736.53,1,40,30,
sequence,flow.Sequence,6_29,2023-11-20T17:45:49.080Z,,,,,,,,,,,3673.277999952319,completion,,,,,,,high,low,,,,,,,true,,,,,false,510726.5,510726.2999999523,507036.45,507046.6999999285,507053.022,510736.53,1,40,,
trial,html.Screen,6_30_0,2023-11-20T17:45:51.624Z,,,,1,-1.1302628852630028,-1.288906469447243,,,true,hh,2533.86999997613,response,1.085906502329253,1.2,-1.2,0.8769314895018409,1.2,-1.2,high,high,,ISIC_0071050.JPG,,ISIC_2693412.JPG,,203,true,0.40000000000000024,hh,keypress(i),0,false,513270.39999997616,513270.39999997616,510719.655,510726.5,510736.53,513286.564,1,40,31,
sequence,flow.Sequence,6_30,2023-11-20T17:45:51.624Z,,,,,,,,,,,2533.86999997613,completion,,,,,,,high,high,,,,,,,true,,,,,false,513270.5,513270.39999997616,510719.655,510726.5,510736.53,513286.564,1,40,,
trial,html.Screen,6_31_0,2023-11-20T17:45:55.432Z,,,,1,-1.2118207001489876,-1.3164676315545727,,,true,hh,3791.435999999987,response,1.151139267005652,1.2,-1.2,1.0838749490501327,1.2,-1.2,high,high,,ISIC_0066476.JPG,,ISIC_0002566.JPG,,25,true,0.14,hh,keypress(i),0,false,517078.09999990463,517078,513269.859,513270.59999990463,513286.564,517086.373,1,40,32,
sequence,flow.Sequence,6_31,2023-11-20T17:45:55.432Z,,,,,,,,,,,3791.435999999987,completion,,,,,,,high,high,,,,,,,true,,,,,false,517078.2999999523,517078,513269.859,513270.5,513286.564,517086.373,1,40,,
trial,html.Screen,6_32_0,2023-11-20T17:46:00.072Z,,,,1,-0.8307508446051526,1.1707575338936729,,,true,hl,4631.726999904611,response,1.2578167348825195,1.2,-1.2,-0.8371819698254004,1.2,-1.2,high,low,,ISIC_0028606.JPG,,ISIC_9613570.JPG,,26,true,0.4500000000000003,hl,keypress(j),0,false,521718.09999990463,521718.09999990463,517070.025,517078.2999999523,517086.373,521719.699,1,40,33,
sequence,flow.Sequence,6_32,2023-11-20T17:46:00.072Z,,,,,,,,,,,4631.726999904611,completion,,,,,,,high,low,,,,,,,true,,,,,false,521718.2999999523,521718.09999990463,517070.025,517078.2999999523,517086.373,521719.699,1,40,,
trial,html.Screen,6_33_0,2023-11-20T17:46:06.664Z,,,,1,-0.8867328775712738,1.0063426986460375,,,true,hl,6590.600999952294,response,1.0329549150636406,1.2,-1.2,-1.01584100839286,1.2,-1.2,high,low,,ISIC_0055759.JPG,,ISIC_0054670.JPG,,26,true,0.4500000000000003,hl,keypress(j),0,false,528310.3999999762,528310.2999999523,521702.915,521718.2999999523,521719.699,528319.837,1,40,34,
sequence,flow.Sequence,6_33,2023-11-20T17:46:06.664Z,,,,,,,,,,,6590.600999952294,completion,,,,,,,high,low,,,,,,,true,,,,,false,528310.5,528310.2999999523,521702.915,521718.2999999523,521719.699,528319.837,1,40,,
trial,html.Screen,6_34_0,2023-11-20T17:46:08.199Z,,,,1,1.1843968275545205,1.2828739728067764,,,true,ll,1526.0629999761004,response,-0.9237335170200494,1.2,-1.2,-1.123796693704591,1.2,-1.2,low,low,,ISIC_0002901.JPG,,ISIC_0029652.JPG,,288,true,0.40000000000000024,ll,keypress(f),0,false,529846,529845.8999999762,528303.254,528310.5,528319.837,529853.154,1,40,35,
sequence,flow.Sequence,6_34,2023-11-20T17:46:08.200Z,,,,,,,,,,,1526.0629999761004,completion,,,,,,,low,low,,,,,,,true,,,,,false,529846.0999999046,529845.8999999762,528303.254,528310.5,528319.837,529853.154,1,40,,
trial,html.Screen,6_35_0,2023-11-20T17:46:10.472Z,,,,1,1.1684835186766898,1.2921331918483707,,,true,ll,2265.045999928494,response,-1.1048559518249943,1.2,-1.2,-1.2252457981338687,1.2,-1.2,low,low,,ISIC_5920470.JPG,,ISIC_0060817.JPG,,40,true,0.14,ll,keypress(f),0,false,532118.2999999523,532118.1999999285,529836.341,529846.1999999285,529853.154,532137.704,1,40,36,
sequence,flow.Sequence,6_35,2023-11-20T17:46:10.472Z,,,,,,,,,,,2265.045999928494,completion,,,,,,,low,low,,,,,,,true,,,,,false,532118.3999999762,532118.1999999285,529836.341,529846.1999999285,529853.154,532137.704,1,40,,
trial,html.Screen,6_36_0,2023-11-20T17:46:13.528Z,,,,1,0.8513427412482127,-0.9295303568095064,,,true,lh,3036.4959999284474,response,-1.2020012168275056,1.2,-1.2,0.923753102263735,1.2,-1.2,low,high,,ISIC_0034164.JPG,,ISIC_0000022.JPG,,27,true,0.40000000000000024,lh,keypress(e),0,false,535174.2999999523,535174.1999999285,532103.235,532118.5,532137.704,535186.474,1,40,37,
sequence,flow.Sequence,6_36,2023-11-20T17:46:13.528Z,,,,,,,,,,,3036.4959999284474,completion,,,,,,,low,high,,,,,,,true,,,,,false,535174.3999999762,535174.1999999285,532103.235,532118.3999999762,532137.704,535186.474,1,40,,
trial,html.Screen,6_37_0,2023-11-20T17:46:15.816Z,,,,1,-1.0773466327271526,-1.1601445610079184,,,true,hh,2276.0259999999544,response,0.8778738400881212,1.2,-1.2,0.8629033386879579,1.2,-1.2,high,high,,ISIC_0055169.JPG,,ISIC_5607702.JPG,,265,true,0.4500000000000003,hh,keypress(i),0,false,537462.5999999046,537462.5,535169.804,535174.5,535186.474,537469.677,1,40,38,
sequence,flow.Sequence,6_37,2023-11-20T17:46:15.816Z,,,,,,,,,,,2276.0259999999544,completion,,,,,,,high,high,,,,,,,true,,,,,false,537462.6999999285,537462.5,535169.804,535174.3999999762,535186.474,537469.677,1,40,,
trial,html.Screen,6_38_0,2023-11-20T17:46:17.912Z,,,,1,1.2054195059663604,-0.7760611240296147,,,true,lh,2088.722999976133,response,-0.8987343013179191,1.2,-1.2,0.8149073454566363,1.2,-1.2,low,high,,ISIC_8712559.JPG,,ISIC_0472513.JPG,,27,true,0.40000000000000024,lh,keypress(e),0,false,539558.5,539558.3999999762,537453.134,537462.7999999523,537469.677,539569.757,1,40,39,
sequence,flow.Sequence,6_38,2023-11-20T17:46:17.912Z,,,,,,,,,,,2088.722999976133,completion,,,,,,,low,high,,,,,,,true,,,,,false,539558.6999999285,539558.3999999762,537453.134,537462.6999999285,537469.677,539569.757,1,40,,
trial,html.Screen,6_39_0,2023-11-20T17:46:20.536Z,,,,1,-1.2646773654288392,0.952963803634235,,,true,hl,2612.542999952333,response,0.7883321712536753,1.2,-1.2,-1.0011430756825364,1.2,-1.2,high,low,,ISIC_1996356.JPG,,ISIC_9828853.JPG,,26,true,0.4500000000000003,hl,keypress(j),0,false,542182.2999999523,542182.2999999523,539553.119,539558.6999999285,539569.757,542186.317,1,40,40,
sequence,flow.Sequence,6_39,2023-11-20T17:46:20.536Z,,,,,,,,,,,2612.542999952333,completion,,,,,,,high,low,,,,,,,true,,,,,false,542182.3999999762,542182.2999999523,539553.119,539558.6999999285,539569.757,542186.317,1,40,,
practice_loop,flow.Loop,6,2023-11-20T17:46:20.536Z,,,,,,,,,,,185112.4379999523,completion,,,,,,,,,,,,,,,true,,,,,false,542182.5,542182.2999999523,357053.384,357059.2999999523,357069.862,542186.317,1,40,,
stair_instructions,html.Screen,7,2023-11-20T17:46:41.439Z,,,,,,,,,,,20898.58299997612,response,,,,,,,,,,,,,,,,,continue,click button,,,563085.5,563084.8999999762,542169.862,542182.5,542186.317,563103.461,,,,
trial,html.Screen,8_0_0,2023-11-20T17:46:48.168Z,,,,2,-0.0199950873045219,-0.0172506388509166,,0.04,false,lh,6710.738999928464,response,-0.9617893983965208,1.2,-1.2,0.9453006131304652,1.2,-1.2,low,high,,ISIC_0029906.JPG,,ISIC_4229473.JPG,28,27,false,0.40000000000000024,ll,keypress(f),0,true,569814.2999999523,569814.1999999285,563069.915,563085.6999999285,563103.461,569819.647,1,40,1,
sequence,flow.Sequence,8_0,2023-11-20T17:46:48.168Z,,,,,,,,,,,6710.738999928464,completion,,,,,,,low,high,,,,,,,false,,,,,true,569814.5,569814.1999999285,563069.915,563085.6999999285,563103.461,569819.647,1,40,,
trial,html.Screen,8_1_0,2023-11-20T17:46:53.672Z,,,,2,0.0076984477620101,0.0069458408496562,,0.04,false,hh,5498.853000000003,response,1.0107375180488247,1.15,-1.15,1.2079382542709534,1.2,-1.15,high,high,,ISIC_0000434.JPG,,ISIC_0025602.JPG,28,25,false,0.14,lh,keypress(e),0,true,575318.6999999285,575318.5,569802.959,569814.5,569819.647,575336.811,1,40,2,
sequence,flow.Sequence,8_1,2023-11-20T17:46:53.672Z,,,,,,,,,,,5498.853000000003,completion,,,,,,,high,high,,,,,,,false,,,,,true,575318.6999999285,575318.5,569802.959,569814.5,569819.647,575336.811,1,40,,
trial,html.Screen,8_2_0,2023-11-20T17:46:57.688Z,,,,2,0.0283578106329894,-0.0088840758711548,,0.04,false,lh,3997.3889999284875,response,-1.168911077628813,1.15,-1.15,1.2181838235193114,1.15,-1.15,low,high,,ISIC_0060707.JPG,,ISIC_7358691.JPG,28,26,false,0.3500000000000002,hh,keypress(i),0,true,579334.1999999285,579334.1999999285,575302.968,575318.7999999523,575336.811,579336.28,1,40,3,
sequence,flow.Sequence,8_2,2023-11-20T17:46:57.688Z,,,,,,,,,,,3997.3889999284875,completion,,,,,,,low,high,,,,,,,false,,,,,true,579334.3999999762,579334.1999999285,575302.968,575318.6999999285,575336.811,579336.28,1,40,,
trial,html.Screen,8_3_0,2023-11-20T17:47:03.128Z,,,,2,-0.0065172941585523,0.0118857043117315,,0.04,true,hl,5438.219999999972,response,1.0329549150636406,1.15,-1.15,-1.01584100839286,1.1630610388951323,-1.15,high,low,,ISIC_6119202.JPG,,ISIC_0054670.JPG,28,26,false,0.40000000000000024,hl,keypress(j),0,true,584774.5999999046,584774.5,579319.679,579334.3999999762,579336.28,584786.303,1,40,4,
sequence,flow.Sequence,8_3,2023-11-20T17:47:03.128Z,,,,,,,,,,,5438.219999999972,completion,,,,,,,high,low,,,,,,,false,,,,,true,584774.6999999285,584774.5,579319.679,579334.3999999762,579336.28,584786.303,1,40,,
trial,html.Screen,8_4_0,2023-11-20T17:47:07.224Z,,,,2,0.0308384937406319,-0.0038396364323947,,0.04,false,hl,4084.1970000000438,response,1.199471562817528,1.15,-1.15,-0.8631260534979347,1.1630610388951323,-1.15,high,low,,ISIC_0029825.JPG,,ISIC_0030754.JPG,28,26,false,0.40000000000000024,ll,keypress(f),0,true,588870.5999999046,588870.5,584769.699,584774.6999999285,584786.303,588886.53,1,40,5,
sequence,flow.Sequence,8_4,2023-11-20T17:47:07.224Z,,,,,,,,,,,4084.1970000000438,completion,,,,,,,high,low,,,,,,,false,,,,,true,588870.6999999285,588870.5,584769.699,584774.6999999285,584786.303,588886.53,1,40,,
trial,html.Screen,8_5_0,2023-11-20T17:47:10.695Z,,,,2,-0.0241900387072296,0.0339955304424736,,0.04,true,ll,3455.2699999522883,response,-1.23040890403733,1.15,-1.15,-0.8471646801526567,1.1630610388951323,-0.8894835309453972,low,low,,ISIC_0010789.JPG,,ISIC_0010140.JPG,28,25,false,0.11,ll,keypress(f),0,true,592341.8999999762,592341.7999999523,588869.949,588870.6999999285,588886.53,592353.109,1,40,6,
sequence,flow.Sequence,8_5,2023-11-20T17:47:10.695Z,,,,,,,,,,,3455.2699999522883,completion,,,,,,,low,low,,,,,,,false,,,,,true,592342,592341.7999999523,588869.949,588870.6999999285,588886.53,592353.109,1,40,,
trial,html.Screen,8_6_0,2023-11-20T17:47:14.728Z,,,,2,-0.0388334549081915,0.0303399972963369,,0.04,true,hl,4021.1909999522613,response,0.989300717252516,1.15,-1.15,-0.7908280206937478,1.1630610388951323,-0.8894835309453972,high,low,,ISIC_4961708.JPG,,ISIC_6416533.JPG,28,26,false,0.27000000000000013,hl,keypress(j),0,true,596374.3999999762,596374.2999999523,592336.599,592342.0999999046,592353.109,596386.264,1,40,7,
sequence,flow.Sequence,8_6,2023-11-20T17:47:14.728Z,,,,,,,,,,,4021.1909999522613,completion,,,,,,,high,low,,,,,,,false,,,,,true,596374.5,596374.2999999523,592336.599,592342.0999999046,592353.109,596386.264,1,40,,
trial,html.Screen,8_7_0,2023-11-20T17:47:18.872Z,,,,2,0.0044063257337227,0.0172548282859886,,0.04,true,ll,4132.2360000000335,response,-1.0712988318327483,1.15,-1.15,-0.813758249035235,1.1630610388951323,-0.8394835309453972,low,low,,ISIC_7413786.JPG,,ISIC_5762714.JPG,28,25,false,0.1,ll,keypress(f),0,true,600518.5999999046,600518.5,596369.495,596374.5,596386.264,600537.188,1,40,8,
sequence,flow.Sequence,8_7,2023-11-20T17:47:18.872Z,,,,,,,,,,,4132.2360000000335,completion,,,,,,,low,low,,,,,,,false,,,,,true,600518.6999999285,600518.5,596369.495,596374.5,596386.264,600537.188,1,40,,
trial,html.Screen,8_8_0,2023-11-20T17:47:26.264Z,,,,2,0.0220026381002083,-0.0170756452911772,,0.04,false,ll,7373.011999928509,response,-0.9602936946729488,1.15,-0.8925285404339915,-0.747034716272411,1.1630610388951323,-0.8394835309453972,low,low,,ISIC_5347806.JPG,,ISIC_0205127.JPG,28,51,false,0.1,lh,keypress(e),0,true,607910.2999999523,607910.1999999285,600503.255,600518.6999999285,600537.188,607919.79,1,40,9,
sequence,flow.Sequence,8_8,2023-11-20T17:47:26.264Z,,,,,,,,,,,7373.011999928509,completion,,,,,,,low,low,,,,,,,false,,,,,true,607910.3999999762,607910.1999999285,600503.255,600518.6999999285,600537.188,607919.79,1,40,,
trial,html.Screen,8_9_0,2023-11-20T17:47:30.264Z,,,,2,0.0286056110007553,0.036125199756515,,0.04,true,ll,3990.509999952279,response,-0.9141489890697224,1.15,-0.8925285404339915,-0.8021439579962121,1.1630610388951323,-0.8894835309453972,low,low,,ISIC_6535558.JPG,,ISIC_0025491.JPG,28,50,false,0.1,ll,keypress(f),0,true,611910.3999999762,611910.2999999523,607902.912,607910.3999999762,607919.79,611919.753,1,40,10,
sequence,flow.Sequence,8_9,2023-11-20T17:47:30.264Z,,,,,,,,,,,3990.509999952279,completion,,,,,,,low,low,,,,,,,false,,,,,true,611910.3999999762,611910.2999999523,607902.912,607910.3999999762,607919.79,611919.753,1,40,,
trial,html.Screen,8_10_0,2023-11-20T17:47:35.080Z,,,,2,-0.0109416414475118,-0.005246498750811,,0.04,true,hh,4806.54699995229,response,1.109799097093339,1.15,-0.8081464735329672,1.091507924157762,1.1630610388951323,-0.8894835309453972,high,high,,ISIC_0064279.JPG,,ISIC_0765584.JPG,28,26,false,0.14,hh,keypress(i),0,true,616726.5,616726.2999999523,611903.055,611910.3999999762,611919.753,616736.354,1,40,11,
sequence,flow.Sequence,8_10,2023-11-20T17:47:35.080Z,,,,,,,,,,,4806.54699995229,completion,,,,,,,high,high,,,,,,,false,,,,,true,616726.5,616726.2999999523,611903.055,611910.3999999762,611919.753,616736.354,1,40,,
trial,html.Screen,8_11_0,2023-11-20T17:47:37.657Z,,,,2,-0.0109416414475118,-0.005246498750811,,0.04,true,hh,2566.7459999045823,response,1.109799097093339,1.0506535106255506,-0.8081464735329672,1.091507924157762,1.1630610388951323,-0.8894835309453972,high,high,,ISIC_0064279.JPG,,ISIC_0765584.JPG,28,26,false,0.14,hh,keypress(i),0,true,619303.0999999046,619303.0999999046,616719.688,616726.5,616736.354,619320.011,1,40,12,
sequence,flow.Sequence,8_11,2023-11-20T17:47:37.657Z,,,,,,,,,,,2566.7459999045823,completion,,,,,,,high,high,,,,,,,false,,,,,true,619303.1999999285,619303.0999999046,616719.688,616726.5,616736.354,619320.011,1,40,,
trial,html.Screen,8_12_0,2023-11-20T17:47:40.680Z,,,,2,0.0283578106329894,-0.0088840758711548,,0.04,false,lh,3006.0889999045758,response,-0.9662688541319592,1.0506535106255506,-0.8081464735329672,0.929746784178986,1.0506535106255506,-0.8894835309453972,low,high,,ISIC_0060707.JPG,,ISIC_0011077.JPG,28,27,false,0.17000000000000004,ll,keypress(f),0,true,622326.1999999285,622326.0999999046,619303.049,619303.2999999523,619320.011,622336.414,1,40,13,
sequence,flow.Sequence,8_12,2023-11-20T17:47:40.680Z,,,,,,,,,,,3006.0889999045758,completion,,,,,,,low,high,,,,,,,false,,,,,true,622326.2999999523,622326.0999999046,619303.049,619303.2999999523,619320.011,622336.414,1,40,,
trial,html.Screen,8_13_0,2023-11-20T17:47:50.648Z,,,,2,0.0009714874637896,-0.0174815595031679,,0.04,true,ll,9957.885999952327,response,-0.8679614460736003,1.0506535106255506,-0.8081464735329672,-0.9273061036826674,1.1006535106255506,-0.8894835309453972,low,low,,ISIC_9848743.JPG,,ISIC_9955163.JPG,28,53,false,0.1,ll,keypress(f),0,true,632294.3999999762,632294.2999999523,622319.945,622326.3999999762,622336.414,632302.881,1,40,14,
sequence,flow.Sequence,8_13,2023-11-20T17:47:50.648Z,,,,,,,,,,,9957.885999952327,completion,,,,,,,low,low,,,,,,,false,,,,,true,632294.5999999046,632294.2999999523,622319.945,622326.2999999523,622336.414,632302.881,1,40,,
trial,html.Screen,8_14_0,2023-11-20T17:47:54.136Z,,,,2,-0.0164027439304477,0.0082910758715273,,0.04,false,lh,3479.7189999045804,response,-0.90812608370647,1.0506535106255506,-0.8967874789073133,1.2720026872926935,1.1006535106255506,-0.8967874789073133,low,high,,ISIC_7381224.JPG,,ISIC_0450295.JPG,28,26,false,0.2300000000000001,ll,keypress(f),0,true,635782.7999999523,635782.5999999046,632286.096,632294.5999999046,632302.881,635786.239,1,40,15,
sequence,flow.Sequence,8_14,2023-11-20T17:47:54.136Z,,,,,,,,,,,3479.7189999045804,completion,,,,,,,low,high,,,,,,,false,,,,,true,635782.7999999523,635782.5999999046,632286.096,632294.5999999046,632302.881,635786.239,1,40,,
trial,html.Screen,8_15_0,2023-11-20T17:47:58.199Z,,,,2,-0.001445457736793,-0.0165307427449982,,0.04,false,hh,4058.9609999285312,response,1.0161855018674797,1.0506535106255506,-0.8967874789073133,1.1331366334676347,1.1506535106255507,-0.8967874789073133,high,high,,ISIC_0027350.JPG,,ISIC_3521671.JPG,28,29,false,0.14,lh,keypress(e),0,true,639845.2999999523,639845.1999999285,635769.761,635782.8999999762,635786.239,639852.878,1,40,16,
sequence,flow.Sequence,8_15,2023-11-20T17:47:58.199Z,,,,,,,,,,,4058.9609999285312,completion,,,,,,,high,high,,,,,,,false,,,,,true,639845.3999999762,639845.1999999285,635769.761,635782.8999999762,635786.239,639852.878,1,40,,
trial,html.Screen,8_16_0,2023-11-20T17:48:03.592Z,,,,2,0.0258224118104549,-0.0029364553353019,,0.04,false,hl,5385.42199995229,response,0.9237241143561707,1.1006535106255506,-0.8967874789073133,-0.7102087839245512,1.1506535106255507,-0.8967874789073133,high,low,,ISIC_8325226.JPG,,ISIC_0058661.JPG,28,25,false,0.2500000000000001,hh,keypress(i),0,true,645238.2999999523,645238.2999999523,639836.567,639845.3999999762,639852.878,645252.875,1,40,17,
sequence,flow.Sequence,8_16,2023-11-20T17:48:03.592Z,,,,,,,,,,,5385.42199995229,completion,,,,,,,high,low,,,,,,,false,,,,,true,645238.3999999762,645238.2999999523,639836.567,639845.3999999762,639852.878,645252.875,1,40,,
trial,html.Screen,8_17_0,2023-11-20T17:48:07.063Z,,,,2,0.0367706518941078,-0.0161069838272154,,0.04,false,lh,3456.9249999523163,response,-0.9617893983965208,1.1006535106255506,-0.8967874789073133,0.9453006131304652,1.1506535106255507,-0.9467874789073133,low,high,,ISIC_0033419.JPG,,ISIC_4229473.JPG,28,32,false,0.2500000000000001,ll,keypress(f),0,true,648709.8999999762,648709.7999999523,645236.021,645238.5,645252.875,648719.721,1,40,18,
sequence,flow.Sequence,8_17,2023-11-20T17:48:07.064Z,,,,,,,,,,,3456.9249999523163,completion,,,,,,,low,high,,,,,,,false,,,,,true,648710,648709.7999999523,645236.021,645238.5,645252.875,648719.721,1,40,,
trial,html.Screen,8_18_0,2023-11-20T17:48:12.904Z,,,,2,-0.0388181790775959,0.0049623405709465,,0.04,false,lh,5830.378999904613,response,-0.6284406742939498,1.1006535106255506,-0.8467874789073132,0.9882196642247332,1.1506535106255507,-0.9467874789073133,low,high,,ISIC_0061880.JPG,,ISIC_0014255.JPG,28,27,false,0.2300000000000001,ll,keypress(f),0,true,654550.1999999285,654550.0999999046,648702.954,648710.0999999046,648719.721,654552.856,1,40,19,
sequence,flow.Sequence,8_18,2023-11-20T17:48:12.904Z,,,,,,,,,,,5830.378999904613,completion,,,,,,,low,high,,,,,,,false,,,,,true,654550.2999999523,654550.0999999046,648702.954,648710.0999999046,648719.721,654552.856,1,40,,
trial,html.Screen,8_19_0,2023-11-20T17:48:18.583Z,,,,2,0.0257631352671967,0.0202837002774028,,0.04,false,lh,5676.943999952287,response,-0.8500530224490773,1.1006535106255506,-0.8467874789073132,1.0893360711742854,1.1506535106255507,-0.9467874789073133,low,high,,ISIC_0032797.JPG,,ISIC_2998367.JPG,28,27,false,0.2300000000000001,hh,keypress(i),0,true,660230,660229.7999999523,654536.269,654550.3999999762,654552.856,660236.159,1,40,20,
sequence,flow.Sequence,8_19,2023-11-20T17:48:18.584Z,,,,,,,,,,,5676.943999952287,completion,,,,,,,low,high,,,,,,,false,,,,,true,660230,660229.7999999523,654536.269,654550.3999999762,654552.856,660236.159,1,40,,
trial,html.Screen,8_20_0,2023-11-20T17:48:22.504Z,,,,2,0.0200295718112167,0.0155559071275806,,0.04,true,ll,3914.0409999284893,response,-0.7983870329622347,1.1006535106255506,-0.8967874789073133,-1.044985095430835,1.1506535106255507,-0.9467874789073133,low,low,,ISIC_0061343.JPG,,ISIC_0032372.JPG,28,48,false,0.1,ll,keypress(f),0,true,664150.2999999523,664150.1999999285,660219.521,660230,660236.159,664152.841,1,40,21,
sequence,flow.Sequence,8_20,2023-11-20T17:48:22.504Z,,,,,,,,,,,3914.0409999284893,completion,,,,,,,low,low,,,,,,,false,,,,,true,664150.3999999762,664150.1999999285,660219.521,660230,660236.159,664152.841,1,40,,
trial,html.Screen,8_21_0,2023-11-20T17:48:27.560Z,,,,2,0.0076984477620101,0.0069458408496562,,0.04,true,ll,5053.258999904618,response,-0.8312425167370745,1.1006535106255506,-0.8967874789073133,-0.9376491160549733,1.1506535106255507,-0.9467874789073133,low,low,,ISIC_0000434.JPG,,ISIC_4834687.JPG,28,48,false,0.1,ll,keypress(f),0,true,669206.2999999523,669206.0999999046,664136.03,664150.5,664152.841,669219.693,1,40,22,
sequence,flow.Sequence,8_21,2023-11-20T17:48:27.560Z,,,,,,,,,,,5053.258999904618,completion,,,,,,,low,low,,,,,,,false,,,,,true,669206.2999999523,669206.0999999046,664136.03,664150.5,664152.841,669219.693,1,40,,
trial,html.Screen,8_22_0,2023-11-20T17:48:33.512Z,,,,2,-0.0199950873045219,-0.0172506388509166,,0.04,false,hl,5938.80700000003,response,0.8828738626295417,1.1006535106255506,-0.9413171057429042,-0.8288177599439582,1.1506535106255507,-0.9413171057429042,high,low,,ISIC_0029906.JPG,,ISIC_0056041.JPG,28,26,false,0.2600000000000001,lh,keypress(e),0,true,675158.5,675158.5,669202.97,669206.3999999762,669219.693,675169.498,1,40,23,
sequence,flow.Sequence,8_22,2023-11-20T17:48:33.512Z,,,,,,,,,,,5938.80700000003,completion,,,,,,,high,low,,,,,,,false,,,,,true,675158.5999999046,675158.5,669202.97,669206.3999999762,669219.693,675169.498,1,40,,
trial,html.Screen,8_23_0,2023-11-20T17:48:45.144Z,,,,2,-0.0065172941585523,0.0118857043117315,,0.04,false,hl,11620.701999928453,response,1.203269031614007,1.1506535106255507,-0.9413171057429042,-0.6961047103031557,1.1506535106255507,-0.9913171057429042,high,low,,ISIC_6119202.JPG,,ISIC_0002639.JPG,28,25,false,0.30000000000000016,hh,keypress(i),0,true,686790.2999999523,686790.1999999285,675152.784,675158.6999999285,675169.498,686803.014,1,40,24,
sequence,flow.Sequence,8_23,2023-11-20T17:48:45.144Z,,,,,,,,,,,11620.701999928453,completion,,,,,,,high,low,,,,,,,false,,,,,true,686790.3999999762,686790.1999999285,675152.784,675158.6999999285,675169.498,686803.014,1,40,,
trial,html.Screen,8_24_0,2023-11-20T17:48:49.624Z,,,,2,0.0286056110007553,0.036125199756515,,0.04,false,hh,4467.085999904666,response,1.2253191093367526,1.1506535106255507,-0.9413171057429042,1.241905252673026,1.1506535106255507,-1.0413171057429043,high,high,,ISIC_6535558.JPG,,ISIC_1195689.JPG,28,28,false,0.14,ll,keypress(f),0,true,691270.1999999285,691270.0999999046,686786.007,686790.3999999762,686803.014,691286.404,1,40,25,
sequence,flow.Sequence,8_24,2023-11-20T17:48:49.624Z,,,,,,,,,,,4467.085999904666,completion,,,,,,,high,high,,,,,,,false,,,,,true,691270.2999999523,691270.0999999046,686786.007,686790.3999999762,686803.014,691286.404,1,40,,
trial,html.Screen,8_25_0,2023-11-20T17:48:53.480Z,,,,2,0.0257631352671967,0.0202837002774028,,0.04,true,hh,3839.795999928494,response,1.2724293858920366,1.1506535106255507,-0.9413171057429042,1.149360738769835,1.1506535106255507,-1.0413171057429043,high,high,,ISIC_0032797.JPG,,ISIC_1264725.JPG,28,28,false,0.14,hh,keypress(i),0,true,695126.2999999523,695126.1999999285,691269.623,691270.3999999762,691286.404,695136.32,1,40,26,
sequence,flow.Sequence,8_25,2023-11-20T17:48:53.480Z,,,,,,,,,,,3839.795999928494,completion,,,,,,,high,high,,,,,,,false,,,,,true,695126.3999999762,695126.1999999285,691269.623,691270.2999999523,691286.404,695136.32,1,40,,
trial,html.Screen,8_26_0,2023-11-20T17:48:57.048Z,,,,2,-0.0074667911845194,0.018500200317654,,0.04,true,ll,3557.9799999523675,response,-0.9294281370493894,1.1506535106255507,-0.9413171057429042,-1.1327283202367815,1.1506535106255507,-1.0413171057429043,low,low,,ISIC_0058723.JPG,,ISIC_0072953.JPG,28,34,false,0.1,ll,keypress(f),0,true,698694.3999999762,698694.2999999523,695119.585,695126.3999999762,695136.32,698702.797,1,40,27,
sequence,flow.Sequence,8_26,2023-11-20T17:48:57.048Z,,,,,,,,,,,3557.9799999523675,completion,,,,,,,low,low,,,,,,,false,,,,,true,698694.5,698694.2999999523,695119.585,695126.3999999762,695136.32,698702.797,1,40,,
trial,html.Screen,8_27_0,2023-11-20T17:49:04.840Z,,,,2,0.0258224118104549,-0.0029364553353019,,0.04,false,hl,7783.302999904612,response,1.2578167348825195,1.1506535106255507,-0.9413171057429042,-0.8371819698254004,1.1506535106255507,-1.0413171057429043,high,low,,ISIC_8325226.JPG,,ISIC_9613570.JPG,28,27,false,0.3400000000000002,hh,keypress(i),0,true,706486.1999999285,706486.0999999046,698686.066,698694.5,698702.797,706503.056,1,40,28,
sequence,flow.Sequence,8_27,2023-11-20T17:49:04.840Z,,,,,,,,,,,7783.302999904612,completion,,,,,,,high,low,,,,,,,false,,,,,true,706486.3999999762,706486.0999999046,698686.066,698694.5,698702.797,706503.056,1,40,,
trial,html.Screen,8_28_0,2023-11-20T17:49:09.351Z,,,,2,0.0076984477620101,0.0069458408496562,,0.04,true,hh,4494.444000000018,response,1.0777929856705222,1.1006535106255506,-0.9413171057429042,1.0139833925057518,1.1506535106255507,-1.0913171057429043,high,high,,ISIC_0000434.JPG,,ISIC_6171084.JPG,28,28,false,0.14,hh,keypress(i),0,true,710997.5999999046,710997.5,706486.105,706486.3999999762,706503.056,711002.838,1,40,29,
sequence,flow.Sequence,8_28,2023-11-20T17:49:09.351Z,,,,,,,,,,,4494.444000000018,completion,,,,,,,high,high,,,,,,,false,,,,,true,710997.6999999285,710997.5,706486.105,706486.3999999762,706503.056,711002.838,1,40,,
trial,html.Screen,8_29_0,2023-11-20T17:49:14.824Z,,,,2,-0.0198696495649504,0.0387952353063878,,0.04,false,hh,5467.561999976169,response,1.0325421457475312,1.1006535106255506,-0.9413171057429042,1.0219157566370058,0.9958881890881368,-1.0913171057429043,high,high,,ISIC_6735970.JPG,,ISIC_5336548.JPG,28,25,false,0.1,hl,keypress(j),0,true,716470.5,716470.3999999762,710986.431,710997.7999999523,711002.838,716486.114,1,40,30,
sequence,flow.Sequence,8_29,2023-11-20T17:49:14.824Z,,,,,,,,,,,5467.561999976169,completion,,,,,,,high,high,,,,,,,false,,,,,true,716470.5999999046,716470.3999999762,710986.431,710997.6999999285,711002.838,716486.114,1,40,,
trial,html.Screen,8_30_0,2023-11-20T17:49:17.448Z,,,,2,-0.001445457736793,-0.0165307427449982,,0.04,false,hl,2608.185999952373,response,0.7518277461369444,1.0051675657090267,-0.9413171057429042,-1.3860759020802074,1.0458881890881369,-1.0913171057429043,high,low,,ISIC_0027350.JPG,,ISIC_7967397.JPG,28,29,false,0.31000000000000016,ll,keypress(f),0,true,719094.3999999762,719094.2999999523,716469.479,716470.5999999046,716486.114,719102.963,1,40,31,
sequence,flow.Sequence,8_30,2023-11-20T17:49:17.448Z,,,,,,,,,,,2608.185999952373,completion,,,,,,,high,low,,,,,,,false,,,,,true,719094.3999999762,719094.2999999523,716469.479,716470.5999999046,716486.114,719102.963,1,40,,
trial,html.Screen,8_31_0,2023-11-20T17:49:21.144Z,,,,2,-0.0374659946425444,-0.0086043094957617,,0.04,false,lh,3687.1369999046437,response,-1.045301444872812,1.0551675657090267,-0.9413171057429042,1.0872560254441277,1.0458881890881369,-1.0913171057429043,low,high,,ISIC_0033051.JPG,,ISIC_4507700.JPG,28,26,false,0.2300000000000001,ll,keypress(f),0,true,722790.1999999285,722790.0999999046,719085.991,719094.5,719102.963,722803.039,1,40,32,
sequence,flow.Sequence,8_31,2023-11-20T17:49:21.144Z,,,,,,,,,,,3687.1369999046437,completion,,,,,,,low,high,,,,,,,false,,,,,true,722790.2999999523,722790.0999999046,719085.991,719094.5,719102.963,722803.039,1,40,,
trial,html.Screen,8_32_0,2023-11-20T17:49:23.400Z,,,,2,-0.0074667911845194,0.018500200317654,,0.04,true,ll,2243.060999904643,response,-1.082709423673037,1.0551675657090267,-1.1656886734765097,-1.1184338818466155,1.095888189088137,-1.0913171057429043,low,low,,ISIC_0058723.JPG,,ISIC_0058666.JPG,28,33,false,0.11,ll,keypress(f),0,true,725046.1999999285,725046.0999999046,722786.27,722790.3999999762,722803.039,725052.767,1,40,33,
sequence,flow.Sequence,8_32,2023-11-20T17:49:23.400Z,,,,,,,,,,,2243.060999904643,completion,,,,,,,low,low,,,,,,,false,,,,,true,725046.2999999523,725046.0999999046,722786.27,722790.3999999762,722803.039,725052.767,1,40,,
trial,html.Screen,8_33_0,2023-11-20T17:49:27.048Z,,,,2,-0.0241900387072296,0.0339955304424736,,0.04,true,hl,3641.432999928482,response,0.989300717252516,1.0551675657090267,-1.1656886734765097,-0.7908280206937478,1.095888189088137,-1.0505716527598261,high,low,,ISIC_0010789.JPG,,ISIC_6416533.JPG,28,25,false,0.31000000000000016,hl,keypress(j),0,true,728694.1999999285,728694.1999999285,725036.249,725046.3999999762,725052.767,728702.788,1,40,34,
sequence,flow.Sequence,8_33,2023-11-20T17:49:27.048Z,,,,,,,,,,,3641.432999928482,completion,,,,,,,high,low,,,,,,,false,,,,,true,728694.3999999762,728694.1999999285,725036.249,725046.3999999762,725052.767,728702.788,1,40,,
trial,html.Screen,8_34_0,2023-11-20T17:49:30.839Z,,,,2,-0.0088741920055285,-0.0058246074740588,,0.04,true,hl,3782.2120000000577,response,0.8830264383952469,1.0551675657090267,-1.1656886734765097,-0.8635562538060516,1.095888189088137,-1.0505716527598261,high,low,,ISIC_4136663.JPG,,ISIC_0032258.JPG,28,25,false,0.31000000000000016,hl,keypress(j),0,true,732485.0999999046,732485,728685.978,728694.3999999762,728702.788,732504.101,1,40,35,
sequence,flow.Sequence,8_34,2023-11-20T17:49:30.839Z,,,,,,,,,,,3782.2120000000577,completion,,,,,,,high,low,,,,,,,false,,,,,true,732485.1999999285,732485,728685.978,728694.3999999762,728702.788,732504.101,1,40,,
trial,html.Screen,8_35_0,2023-11-20T17:49:33.480Z,,,,2,-0.0088741920055285,-0.0058246074740588,,0.04,false,lh,2622.298999976134,response,-1.2594580992890123,1.0051675657090267,-1.1656886734765097,0.8833175387485132,1.095888189088137,-0.7771921372498997,low,high,,ISIC_4136663.JPG,,ISIC_0011933.JPG,28,27,false,0.3300000000000002,ll,keypress(f),0,true,735126.5,735126.3999999762,732469.643,732485.1999999285,732504.101,735136.099,1,40,36,
sequence,flow.Sequence,8_35,2023-11-20T17:49:33.480Z,,,,,,,,,,,2622.298999976134,completion,,,,,,,low,high,,,,,,,false,,,,,true,735126.5,735126.3999999762,732469.643,732485.1999999285,732504.101,735136.099,1,40,,
trial,html.Screen,8_36_0,2023-11-20T17:49:35.768Z,,,,2,0,-0.0102871556606504,,0.04,true,ll,2278.2009999522706,response,-1.0189634710647173,1.0051675657090267,-0.97514305999138,-0.7310110375972448,1.145888189088137,-0.7771921372498997,low,low,,ISIC_1805163.JPG,,ISIC_0057949.JPG,28,42,false,0.1,ll,keypress(f),0,true,737414.3999999762,737414.2999999523,735119.559,735126.5999999046,735136.099,737419.421,1,40,37,
sequence,flow.Sequence,8_36,2023-11-20T17:49:35.768Z,,,,,,,,,,,2278.2009999522706,completion,,,,,,,low,low,,,,,,,false,,,,,true,737414.3999999762,737414.2999999523,735119.559,735126.5999999046,735136.099,737419.421,1,40,,
trial,html.Screen,8_37_0,2023-11-20T17:49:37.880Z,,,,2,0.0009714874637896,-0.0174815595031679,,0.04,true,hh,2106.7789999285014,response,0.9786113496628154,1.0051675657090267,-0.97514305999138,1.040122402473425,1.145888189088137,-0.7771921372498997,high,high,,ISIC_9848743.JPG,,ISIC_8195528.JPG,28,25,false,0.12,hh,keypress(i),0,true,739526.2999999523,739526.1999999285,737402.736,737414.5,737419.421,739536.356,1,40,38,
sequence,flow.Sequence,8_37,2023-11-20T17:49:37.880Z,,,,,,,,,,,2106.7789999285014,completion,,,,,,,high,high,,,,,,,false,,,,,true,739526.3999999762,739526.1999999285,737402.736,737414.5,737419.421,739536.356,1,40,,
trial,html.Screen,8_38_0,2023-11-20T17:49:42.262Z,,,,2,-0.001445457736793,-0.0165307427449982,,0.04,false,hh,4372.443999952287,response,1.077278111180185,1.0051675657090267,-0.97514305999138,1.1530533996184025,1.145888189088137,-0.7771921372498997,high,high,,ISIC_0027350.JPG,,ISIC_9525136.JPG,28,25,false,0.12,lh,keypress(e),0,true,743908.8999999762,743908.7999999523,739519.629,739526.3999999762,739536.356,743919.363,1,40,39,
sequence,flow.Sequence,8_38,2023-11-20T17:49:42.263Z,,,,,,,,,,,4372.443999952287,completion,,,,,,,high,high,,,,,,,false,,,,,true,743909,743908.7999999523,739519.629,739526.3999999762,739536.356,743919.363,1,40,,
trial,html.Screen,8_39_0,2023-11-20T17:49:46.056Z,,,,2,-0.0164027439304477,0.0082910758715273,,0.04,false,lh,3782.8369999284623,response,-1.2020012168275056,1.0551675657090267,-0.97514305999138,0.923753102263735,1.0465879010459138,-0.7771921372498997,low,high,,ISIC_7381224.JPG,,ISIC_0000022.JPG,28,25,false,0.2300000000000001,ll,keypress(f),0,true,747702.2999999523,747702.1999999285,743902.745,743909.0999999046,743919.363,747719.41,1,40,40,
sequence,flow.Sequence,8_39,2023-11-20T17:49:46.056Z,,,,,,,,,,,3782.8369999284623,completion,,,,,,,low,high,,,,,,,false,,,,,true,747702.3999999762,747702.1999999285,743902.745,743909.0999999046,743919.363,747719.41,1,40,,
stair_loop,flow.Loop,8,2023-11-20T17:49:46.056Z,,,,,,,,,,,184598.73899992846,completion,,,,,,,,,,,,,,,false,,,,,true,747702.5,747702.1999999285,563069.915,563085.6999999285,563103.461,747719.41,1,40,,
exp_instructions,html.Screen,9,2023-11-20T17:49:52.664Z,,,,,,,,,,,6590.1899999046,response,,,,,,,,,,,,,,,,,continue,keypress(Space),,,754309.8999999762,754309.5999999046,747702.732,747702.5,747719.41,754319.525,,,,
trial,html.Screen,10_0_0,2023-11-20T17:49:58.520Z,,,,1,0.0367744112927588,0.0324865661712824,,0.04,false,ll,5846.674999928451,response,-0.9866910776752168,1.0779105381672887,-0.9885036474557616,-0.9730788960408626,1.115567569377862,-0.9717583556377859,low,low,,ISIC_4523565.JPG,9,ISIC_0070003.JPG,28,34,false,0.1,hl,keypress(j),0,false,760166.2999999523,760166.1999999285,754302.507,754310.0999999046,754319.525,760169.407,5,600,1,
break,html.Screen,10_0_1,2023-11-20T17:49:58.520Z,,,,,,,,,,,NaN,,,,,,,,low,low,,,,,,,false,,,,,false,760166.6999999285,760166.5999999046,,760166.3999999762,,760169.407,5,600,,
break_continue,html.Screen,10_0_2,2023-11-20T17:49:58.521Z,,,,,,,,,,,NaN,,,,,,,,low,low,,,,,,,false,,,,,false,760167,760166.7999999523,,760166.7999999523,,760169.407,5,600,,
sequence,flow.Sequence,10_0,2023-11-20T17:49:58.521Z,,,,,,,,,,,5847.274999952293,completion,,,,,,,low,low,,,,,,,false,,,,,false,760167.0999999046,760166.7999999523,754302.507,754310,754319.525,760169.407,5,600,,
trial,html.Screen,10_1_0,2023-11-20T17:50:02.536Z,,,,1,-0.0374659946425444,-0.0086043094957617,,0.04,false,ll,4012.5929999999935,response,-0.9740596249572724,1.0779105381672887,-0.9885036474557616,-0.915332132320829,1.115567569377862,-0.9717583556377859,low,low,,ISIC_0033051.JPG,10,ISIC_9053910.JPG,28,34,false,0.1,lh,keypress(e),0,false,764182.0999999046,764182,760152.994,760167.0999999046,760169.407,764186.095,5,600,2,
break,html.Screen,10_1_1,2023-11-20T17:50:02.536Z,,,,,,,,,,,NaN,,,,,,,,low,low,,,,,,,false,,,,,false,764182.3999999762,764182.3999999762,,764182.2999999523,,764186.095,5,600,,
break_continue,html.Screen,10_1_2,2023-11-20T17:50:02.536Z,,,,,,,,,,,NaN,,,,,,,,low,low,,,,,,,false,,,,,false,764182.5999999046,764182.5999999046,,764182.5,,764186.095,5,600,,
sequence,flow.Sequence,10_1,2023-11-20T17:50:02.536Z,,,,,,,,,,,4013.192999904626,completion,,,,,,,low,low,,,,,,,false,,,,,false,764182.6999999285,764182.5999999046,760152.994,760167.0999999046,760169.407,764186.095,5,600,,
trial,html.Screen,10_2_0,2023-11-20T17:50:05.832Z,,,,1,0.0367706518941078,-0.0161069838272154,,0.04,true,hh,3291.905000000028,response,1.2100527057059796,1.0779105381672887,-0.9885036474557616,1.2159112471537263,1.115567569377862,-0.9717583556377859,high,high,,ISIC_0033419.JPG,9,ISIC_0008055.JPG,28,29,false,0.14,hh,keypress(i),0,false,767478.1999999285,767478,764169.471,764182.7999999523,764186.095,767486.264,5,600,3,
break,html.Screen,10_2_1,2023-11-20T17:50:05.832Z,,,,,,,,,,,NaN,,,,,,,,high,high,,,,,,,false,,,,,false,767478.3999999762,767478.3999999762,,767478.2999999523,,767486.264,5,600,,
break_continue,html.Screen,10_2_2,2023-11-20T17:50:05.832Z,,,,,,,,,,,NaN,,,,,,,,high,high,,,,,,,false,,,,,false,767478.6999999285,767478.5999999046,,767478.5,,767486.264,5,600,,
sequence,flow.Sequence,10_2,2023-11-20T17:50:05.832Z,,,,,,,,,,,3292.5049999046605,completion,,,,,,,high,high,,,,,,,false,,,,,false,767478.6999999285,767478.5999999046,764169.471,764182.7999999523,764186.095,767486.264,5,600,,
trial,html.Screen,10_3_0,2023-11-20T17:50:12.424Z,,,,1,0.0044063257337227,0.0172548282859886,,0.04,false,hh,6583.935999928508,response,1.0257168197307909,1.0779105381672887,-0.9885036474557616,1.0403166496930305,1.115567569377862,-0.9717583556377859,high,high,,ISIC_7413786.JPG,9,ISIC_1690909.JPG,28,29,false,0.14,lh,keypress(e),0,false,774070.2999999523,774070.1999999285,767469.495,767478.7999999523,767486.264,774102.928,5,600,4,
break,html.Screen,10_3_1,2023-11-20T17:50:12.424Z,,,,,,,,,,,NaN,,,,,,,,high,high,,,,,,,false,,,,,false,774070.5999999046,774070.5,,774070.3999999762,,774102.928,5,600,,
break_continue,html.Screen,10_3_2,2023-11-20T17:50:12.424Z,,,,,,,,,,,NaN,,,,,,,,high,high,,,,,,,false,,,,,false,774070.5999999046,774070.5999999046,,774070.5999999046,,774102.928,5,600,,
sequence,flow.Sequence,10_3,2023-11-20T17:50:12.424Z,,,,,,,,,,,6584.335999904666,completion,,,,,,,high,high,,,,,,,false,,,,,false,774070.6999999285,774070.5999999046,767469.495,767478.6999999285,767486.264,774102.928,5,600,,
trial,html.Screen,10_4_0,2023-11-20T17:50:15.432Z,,,,1,0.0009714874637896,-0.0174815595031679,,0.04,true,hh,2975.0720000000438,response,1.1018283884093611,1.0779105381672887,-0.9885036474557616,1.053767307212406,1.115567569377862,-0.9717583556377859,high,high,,ISIC_9848743.JPG,9,ISIC_6785249.JPG,28,29,false,0.14,hh,keypress(i),0,false,777078.0999999046,777078,774086.208,774070.7999999523,774102.928,777086.062,5,600,5,
break,html.Screen,10_4_1,2023-11-20T17:50:15.432Z,,,,,,,,,,,NaN,,,,,,,,high,high,,,,,,,false,,,,,false,777078.3999999762,777078.2999999523,,777078.1999999285,,777086.062,5,600,,
break_continue,html.Screen,10_4_2,2023-11-20T17:50:15.432Z,,,,,,,,,,,NaN,,,,,,,,high,high,,,,,,,false,,,,,false,777078.5999999046,777078.5,,777078.5,,777086.062,5,600,,
sequence,flow.Sequence,10_4,2023-11-20T17:50:15.432Z,,,,,,,,,,,2975.5720000000438,completion,,,,,,,high,high,,,,,,,false,,,,,false,777078.5999999046,777078.5,774086.208,774070.7999999523,774102.928,777086.062,5,600,,
trial,html.Screen,10_5_0,2023-11-20T17:50:21.543Z,,,,1,0.0258224118104549,-0.0029364553353019,,0.04,false,hl,6103.737999952282,response,0.8513427412482127,1.0779105381672887,-0.9885036474557616,-0.9295303568095064,1.115567569377862,-0.9717583556377859,high,low,,ISIC_8325226.JPG,9,ISIC_0034164.JPG,28,25,false,0.27000000000000013,hh,keypress(i),0,false,783189.8999999762,783189.7999999523,777069.471,777078.6999999285,777086.062,783202.689,5,600,6,
break,html.Screen,10_5_1,2023-11-20T17:50:21.544Z,,,,,,,,,,,NaN,,,,,,,,high,low,,,,,,,false,,,,,false,783190.2999999523,783190.1999999285,,783190,,783202.689,5,600,,
break_continue,html.Screen,10_5_2,2023-11-20T17:50:21.544Z,,,,,,,,,,,NaN,,,,,,,,high,low,,,,,,,false,,,,,false,783190.5,783190.3999999762,,783190.2999999523,,783202.689,5,600,,
sequence,flow.Sequence,10_5,2023-11-20T17:50:21.544Z,,,,,,,,,,,6104.337999976124,completion,,,,,,,high,low,,,,,,,false,,,,,false,783190.5,783190.3999999762,777069.471,777078.6999999285,777086.062,783202.689,5,600,,
trial,html.Screen,10_6_0,2023-11-20T17:50:25.111Z,,,,1,0.0076984477620101,0.0069458408496562,,0.04,true,lh,3555.0109999284614,response,-0.7629099401226335,1.0779105381672887,-0.9885036474557616,0.8515956627075536,1.115567569377862,-0.9717583556377859,low,high,,ISIC_0000434.JPG,8,ISIC_0028718.JPG,28,28,false,0.28000000000000014,lh,keypress(e),0,false,786757.7999999523,786757.6999999285,783186.04,783190.5,783202.689,786769.567,5,600,7,
break,html.Screen,10_6_1,2023-11-20T17:50:25.112Z,,,,,,,,,,,NaN,,,,,,,,low,high,,,,,,,false,,,,,false,786758.1999999285,786758.0999999046,,786758,,786769.567,5,600,,
break_continue,html.Screen,10_6_2,2023-11-20T17:50:25.112Z,,,,,,,,,,,NaN,,,,,,,,low,high,,,,,,,false,,,,,false,786758.5,786758.2999999523,,786758.2999999523,,786769.567,5,600,,
sequence,flow.Sequence,10_6,2023-11-20T17:50:25.112Z,,,,,,,,,,,3555.6109999523032,completion,,,,,,,low,high,,,,,,,false,,,,,false,786758.5,786758.2999999523,783186.04,783190.5,783202.689,786769.567,5,600,,
trial,html.Screen,10_7_0,2023-11-20T17:50:27.544Z,,,,1,-0.0074667911845194,0.018500200317654,,0.04,false,hh,2420.432999999961,response,1.1290536173202614,1.0779105381672887,-0.9885036474557616,0.9768663240505168,1.115567569377862,-0.9717583556377859,high,high,,ISIC_0058723.JPG,10,ISIC_2196127.JPG,28,29,false,0.14,lh,keypress(e),0,false,789190.0999999046,789190,786752.607,786758.5,786769.567,789202.888,5,600,8,
break,html.Screen,10_7_1,2023-11-20T17:50:27.544Z,,,,,,,,,,,NaN,,,,,,,,high,high,,,,,,,false,,,,,false,789190.3999999762,789190.2999999523,,789190.1999999285,,789202.888,5,600,,
break_continue,html.Screen,10_7_2,2023-11-20T17:50:27.544Z,,,,,,,,,,,NaN,,,,,,,,high,high,,,,,,,false,,,,,false,789190.5999999046,789190.5,,789190.3999999762,,789202.888,5,600,,
sequence,flow.Sequence,10_7,2023-11-20T17:50:27.544Z,,,,,,,,,,,2420.932999999961,completion,,,,,,,high,high,,,,,,,false,,,,,false,789190.5999999046,789190.5,786752.607,786758.5,786769.567,789202.888,5,600,,
trial,html.Screen,10_8_0,2023-11-20T17:50:30.968Z,,,,1,0.0257631352671967,0.0202837002774028,,0.04,true,ll,3411.211999904597,response,-0.9415126659682582,1.0779105381672887,-0.9885036474557616,-1.0413549203180965,1.115567569377862,-0.9717583556377859,low,low,,ISIC_0032797.JPG,9,ISIC_4398011.JPG,28,34,false,0.1,ll,keypress(f),0,false,792614.1999999285,792614.0999999046,789186.09,789190.5999999046,789202.888,792619.338,5,600,9,
break,html.Screen,10_8_1,2023-11-20T17:50:30.968Z,,,,,,,,,,,NaN,,,,,,,,low,low,,,,,,,false,,,,,false,792614.3999999762,792614.3999999762,,792614.2999999523,,792619.338,5,600,,
break_continue,html.Screen,10_8_2,2023-11-20T17:50:30.968Z,,,,,,,,,,,NaN,,,,,,,,low,low,,,,,,,false,,,,,false,792614.6999999285,792614.5999999046,,792614.5,,792619.338,5,600,,
sequence,flow.Sequence,10_8,2023-11-20T17:50:30.968Z,,,,,,,,,,,3411.711999904597,completion,,,,,,,low,low,,,,,,,false,,,,,false,792614.7999999523,792614.5999999046,789186.09,789190.5999999046,789202.888,792619.338,5,600,,
trial,html.Screen,10_9_0,2023-11-20T17:50:37.736Z,,,,1,0.0009714874637896,-0.0174815595031679,,0.04,true,ll,6762.9619999523275,response,-1.0394767720056428,1.0779105381672887,-0.9885036474557616,-0.9642448420571276,1.115567569377862,-0.9717583556377859,low,low,,ISIC_9848743.JPG,10,ISIC_0032823.JPG,28,34,false,0.1,ll,keypress(f),0,false,799382.2999999523,799382.2999999523,792602.6,792614.7999999523,792619.338,799386.035,5,600,10,
break,html.Screen,10_9_1,2023-11-20T17:50:37.736Z,,,,,,,,,,,NaN,,,,,,,,low,low,,,,,,,false,,,,,false,799382.6999999285,799382.5999999046,,799382.5,,799386.035,5,600,,
break_continue,html.Screen,10_9_2,2023-11-20T17:50:37.736Z,,,,,,,,,,,NaN,,,,,,,,low,low,,,,,,,false,,,,,false,799382.8999999762,799382.7999999523,,799382.6999999285,,799386.035,5,600,,
sequence,flow.Sequence,10_9,2023-11-20T17:50:37.737Z,,,,,,,,,,,6763.4619999523275,completion,,,,,,,low,low,,,,,,,false,,,,,false,799383,799382.7999999523,792602.6,792614.7999999523,792619.338,799386.035,5,600,,
trial,html.Screen,10_10_0,2023-11-20T17:50:40.856Z,,,,1,0.0044063257337227,0.0172548282859886,,0.04,true,ll,3115.9649999999674,response,-0.9657289110900686,1.0779105381672887,-0.9885036474557616,-0.9643331448263084,1.115567569377862,-0.9717583556377859,low,low,,ISIC_7413786.JPG,9,ISIC_0063447.JPG,28,34,false,0.1,ll,keypress(f),0,false,802502,802502,799369.801,799383,799386.035,802519.79,5,600,11,
break,html.Screen,10_10_1,2023-11-20T17:50:40.856Z,,,,,,,,,,,NaN,,,,,,,,low,low,,,,,,,false,,,,,false,802502.2999999523,802502.2999999523,,802502.0999999046,,802519.79,5,600,,
break_continue,html.Screen,10_10_2,2023-11-20T17:50:40.856Z,,,,,,,,,,,NaN,,,,,,,,low,low,,,,,,,false,,,,,false,802502.5,802502.3999999762,,802502.2999999523,,802519.79,5,600,,
sequence,flow.Sequence,10_10,2023-11-20T17:50:40.856Z,,,,,,,,,,,3116.3649999761255,completion,,,,,,,low,low,,,,,,,false,,,,,false,802502.5,802502.3999999762,799369.801,799383,799386.035,802519.79,5,600,,
trial,html.Screen,10_11_0,2023-11-20T17:50:46.408Z,,,,1,-0.001445457736793,-0.0165307427449982,,0.04,true,lh,5534.209999999963,response,-1.2081146885025262,1.0779105381672887,-0.9885036474557616,1.195668832085049,1.115567569377862,-0.9717583556377859,low,high,,ISIC_0027350.JPG,9,ISIC_7369690.JPG,28,28,false,0.28000000000000014,lh,keypress(e),0,false,808054.0999999046,808054,802502.708,802502.5999999046,802519.79,808069.496,5,600,12,
break,html.Screen,10_11_1,2023-11-20T17:50:46.408Z,,,,,,,,,,,NaN,,,,,,,,low,high,,,,,,,false,,,,,false,808054.2999999523,808054.2999999523,,808054.1999999285,,808069.496,5,600,,
break_continue,html.Screen,10_11_2,2023-11-20T17:50:46.408Z,,,,,,,,,,,NaN,,,,,,,,low,high,,,,,,,false,,,,,false,808054.5999999046,808054.5,,808054.3999999762,,808069.496,5,600,,
sequence,flow.Sequence,10_11,2023-11-20T17:50:46.408Z,,,,,,,,,,,5534.709999999963,completion,,,,,,,low,high,,,,,,,false,,,,,false,808054.5999999046,808054.5,802502.708,802502.5999999046,802519.79,808069.496,5,600,,
trial,html.Screen,10_12_0,2023-11-20T17:50:48.840Z,,,,1,0.0308384937406319,-0.0038396364323947,,0.04,true,ll,2416.6039999045897,response,-0.944391889009556,1.0779105381672887,-0.9885036474557616,-1.0361692964751965,1.115567569377862,-0.9717583556377859,low,low,,ISIC_0029825.JPG,9,ISIC_0058676.JPG,28,34,false,0.1,ll,keypress(f),0,false,810486.2999999523,810486.0999999046,808052.69,808054.6999999285,808069.496,810502.688,5,600,13,
break,html.Screen,10_12_1,2023-11-20T17:50:48.840Z,,,,,,,,,,,NaN,,,,,,,,low,low,,,,,,,false,,,,,false,810486.5999999046,810486.5,,810486.3999999762,,810502.688,5,600,,
break_continue,html.Screen,10_12_2,2023-11-20T17:50:48.840Z,,,,,,,,,,,NaN,,,,,,,,low,low,,,,,,,false,,,,,false,810486.8999999762,810486.6999999285,,810486.5999999046,,810502.688,5,600,,
sequence,flow.Sequence,10_12,2023-11-20T17:50:48.841Z,,,,,,,,,,,2417.2039999284316,completion,,,,,,,low,low,,,,,,,false,,,,,false,810487,810486.6999999285,808052.69,808054.6999999285,808069.496,810502.688,5,600,,
trial,html.Screen,10_13_0,2023-11-20T17:50:52.904Z,,,,1,-0.039520186367207,-0.0377961575607372,,0.04,false,hh,4047.1119999523507,response,1.2100527057059796,1.0779105381672887,-0.9885036474557616,1.2159112471537263,1.115567569377862,-0.9717583556377859,high,high,,ISIC_6356149.JPG,9,ISIC_0008055.JPG,28,29,false,0.14,hl,keypress(j),0,false,814550,814549.7999999523,810485.975,810487,810502.688,814552.659,5,600,14,
break,html.Screen,10_13_1,2023-11-20T17:50:52.904Z,,,,,,,,,,,NaN,,,,,,,,high,high,,,,,,,false,,,,,false,814550.1999999285,814550.0999999046,,814550,,814552.659,5,600,,
break_continue,html.Screen,10_13_2,2023-11-20T17:50:52.904Z,,,,,,,,,,,NaN,,,,,,,,high,high,,,,,,,false,,,,,false,814550.5,814550.3999999762,,814550.3999999762,,814552.659,5,600,,
sequence,flow.Sequence,10_13,2023-11-20T17:50:52.904Z,,,,,,,,,,,4047.7119999761926,completion,,,,,,,high,high,,,,,,,false,,,,,false,814550.5999999046,814550.3999999762,810485.975,810487,810502.688,814552.659,5,600,,
trial,html.Screen,10_14_0,2023-11-20T17:50:55.288Z,,,,1,0.0119001144851157,-0.0063430114540141,,0.04,true,ll,2381.4409999046475,response,-0.944391889009556,1.0779105381672887,-0.9885036474557616,-1.0361692964751965,1.115567569377862,-0.9717583556377859,low,low,,ISIC_0003822.JPG,9,ISIC_0058676.JPG,28,34,false,0.1,ll,keypress(f),0,false,816934.2999999523,816934.0999999046,814536.194,814550.5999999046,814552.659,816935.989,5,600,15,
break,html.Screen,10_14_1,2023-11-20T17:50:55.288Z,,,,,,,,,,,NaN,,,,,,,,low,low,,,,,,,false,,,,,false,816934.5999999046,816934.5,,816934.3999999762,,816935.989,5,600,,
break_continue,html.Screen,10_14_2,2023-11-20T17:50:55.288Z,,,,,,,,,,,NaN,,,,,,,,low,low,,,,,,,false,,,,,false,816934.7999999523,816934.7999999523,,816934.6999999285,,816935.989,5,600,,
sequence,flow.Sequence,10_14,2023-11-20T17:50:55.289Z,,,,,,,,,,,2382.140999952331,completion,,,,,,,low,low,,,,,,,false,,,,,false,816934.7999999523,816934.7999999523,814536.194,814550.5999999046,814552.659,816935.989,5,600,,
trial,html.Screen,10_15_0,2023-11-20T17:50:58.488Z,,,,1,0.0286056110007553,0.036125199756515,,0.04,true,hh,3198.1109999046894,response,0.9786113496628154,1.0779105381672887,-0.9885036474557616,1.040122402473425,1.115567569377862,-0.9717583556377859,high,high,,ISIC_6535558.JPG,8,ISIC_8195528.JPG,28,29,false,0.14,hh,keypress(i),0,false,820134.1999999285,820134.0999999046,816919.549,816934.8999999762,816935.989,820135.99,5,600,16,
break,html.Screen,10_15_1,2023-11-20T17:50:58.488Z,,,,,,,,,,,NaN,,,,,,,,high,high,,,,,,,false,,,,,false,820134.5,820134.5,,820134.3999999762,,820135.99,5,600,,
break_continue,html.Screen,10_15_2,2023-11-20T17:50:58.488Z,,,,,,,,,,,NaN,,,,,,,,high,high,,,,,,,false,,,,,false,820134.6999999285,820134.5999999046,,820134.5,,820135.99,5,600,,
sequence,flow.Sequence,10_15,2023-11-20T17:50:58.488Z,,,,,,,,,,,3198.6109999046894,completion,,,,,,,high,high,,,,,,,false,,,,,false,820134.7999999523,820134.5999999046,816919.549,816934.8999999762,816935.989,820135.99,5,600,,
trial,html.Screen,10_16_0,2023-11-20T17:51:02.504Z,,,,1,0.0367706518941078,-0.0161069838272154,,0.04,false,lh,4013.7099999284837,response,-1.2594580992890123,1.0779105381672887,-0.9885036474557616,0.8833175387485132,1.115567569377862,-0.9717583556377859,low,high,,ISIC_0033419.JPG,9,ISIC_0011933.JPG,28,28,false,0.28000000000000014,ll,keypress(f),0,false,824149.8999999762,824149.6999999285,820119.515,820134.8999999762,820135.99,824152.65,5,600,17,
break,html.Screen,10_16_1,2023-11-20T17:51:02.504Z,,,,,,,,,,,NaN,,,,,,,,low,high,,,,,,,false,,,,,false,824150.1999999285,824150.0999999046,,824150,,824152.65,5,600,,
break_continue,html.Screen,10_16_2,2023-11-20T17:51:02.504Z,,,,,,,,,,,NaN,,,,,,,,low,high,,,,,,,false,,,,,false,824150.3999999762,824150.2999999523,,824150.1999999285,,824152.65,5,600,,
sequence,flow.Sequence,10_16,2023-11-20T17:51:02.504Z,,,,,,,,,,,4014.3099999523256,completion,,,,,,,low,high,,,,,,,false,,,,,false,824150.5,824150.2999999523,820119.515,820134.8999999762,820135.99,824152.65,5,600,,
trial,html.Screen,10_17_0,2023-11-20T17:51:05.016Z,,,,1,0.0076984477620101,0.0069458408496562,,0.04,false,hl,2509.3499999999767,response,0.8828738626295417,1.0779105381672887,-0.9885036474557616,-0.8288177599439582,1.115567569377862,-0.9717583556377859,high,low,,ISIC_0000434.JPG,8,ISIC_0056041.JPG,28,25,false,0.27000000000000013,ll,keypress(f),0,false,826662.0999999046,826662,824136.108,824150.5,824152.65,826669.291,5,600,18,
break,html.Screen,10_17_1,2023-11-20T17:51:05.016Z,,,,,,,,,,,NaN,,,,,,,,high,low,,,,,,,false,,,,,false,826662.3999999762,826662.2999999523,,826662.1999999285,,826669.291,5,600,,
break_continue,html.Screen,10_17_2,2023-11-20T17:51:05.016Z,,,,,,,,,,,NaN,,,,,,,,high,low,,,,,,,false,,,,,false,826662.5,826662.5,,826662.3999999762,,826669.291,5,600,,
sequence,flow.Sequence,10_17,2023-11-20T17:51:05.016Z,,,,,,,,,,,2509.8499999999767,completion,,,,,,,high,low,,,,,,,false,,,,,false,826662.5999999046,826662.5,824136.108,824150.5,824152.65,826669.291,5,600,,
trial,html.Screen,10_18_0,2023-11-20T17:51:07.000Z,,,,1,0.0367744112927588,0.0324865661712824,,0.04,true,lh,1976.6089999761898,response,-1.0788024398087033,1.0779105381672887,-0.9885036474557616,0.9911875460374616,1.115567569377862,-0.9717583556377859,low,high,,ISIC_4523565.JPG,9,ISIC_5951430.JPG,28,28,false,0.28000000000000014,lh,keypress(e),0,false,828646,828645.8999999762,826652.783,826662.5999999046,826669.291,828652.814,5,600,19,
break,html.Screen,10_18_1,2023-11-20T17:51:07.000Z,,,,,,,,,,,NaN,,,,,,,,low,high,,,,,,,false,,,,,false,828646.1999999285,828646.1999999285,,828646,,828652.814,5,600,,
break_continue,html.Screen,10_18_2,2023-11-20T17:51:07.000Z,,,,,,,,,,,NaN,,,,,,,,low,high,,,,,,,false,,,,,false,828646.5,828646.2999999523,,828646.2999999523,,828652.814,5,600,,
sequence,flow.Sequence,10_18,2023-11-20T17:51:07.000Z,,,,,,,,,,,1977.008999952348,completion,,,,,,,low,high,,,,,,,false,,,,,false,828646.5,828646.2999999523,826652.783,826662.5999999046,826669.291,828652.814,5,600,,
trial,html.Screen,10_19_0,2023-11-20T17:51:12.104Z,,,,1,0.0283578106329894,-0.0088840758711548,,0.04,false,hh,5097.085999976145,response,1.0733807306669467,1.0779105381672887,-0.9885036474557616,0.9781766331161578,1.115567569377862,-0.9717583556377859,high,high,,ISIC_0060707.JPG,9,ISIC_0032383.JPG,28,29,false,0.14,lh,keypress(e),0,false,833750,833749.8999999762,828636.213,828646.5,828652.814,833752.633,5,600,20,
break,html.Screen,10_19_1,2023-11-20T17:51:12.104Z,,,,,,,,,,,NaN,,,,,,,,high,high,,,,,,,false,,,,,false,833750.2999999523,833750.2999999523,,833750.0999999046,,833752.633,5,600,,
break_continue,html.Screen,10_19_2,2023-11-20T17:51:12.104Z,,,,,,,,,,,NaN,,,,,,,,high,high,,,,,,,false,,,,,false,833750.5,833750.5,,833750.2999999523,,833752.633,5,600,,
sequence,flow.Sequence,10_19,2023-11-20T17:51:12.104Z,,,,,,,,,,,5097.685999999987,completion,,,,,,,high,high,,,,,,,false,,,,,false,833750.5999999046,833750.5,828636.213,828646.5,828652.814,833752.633,5,600,,
trial,html.Screen,10_20_0,2023-11-20T17:51:14.968Z,,,,1,-0.0074667911845194,0.018500200317654,,0.04,true,hh,2861.5669999284437,response,1.2100527057059796,1.0779105381672887,-0.9885036474557616,1.2159112471537263,1.115567569377862,-0.9717583556377859,high,high,,ISIC_0058723.JPG,9,ISIC_0008055.JPG,28,29,false,0.14,hh,keypress(i),0,false,836614.2999999523,836614.1999999285,833736.097,833750.6999999285,833752.633,836636.233,5,600,21,
break,html.Screen,10_20_1,2023-11-20T17:51:14.968Z,,,,,,,,,,,NaN,,,,,,,,high,high,,,,,,,false,,,,,false,836614.5999999046,836614.5,,836614.3999999762,,836636.233,5,600,,
break_continue,html.Screen,10_20_2,2023-11-20T17:51:14.968Z,,,,,,,,,,,NaN,,,,,,,,high,high,,,,,,,false,,,,,false,836614.6999999285,836614.5999999046,,836614.5999999046,,836636.233,5,600,,
sequence,flow.Sequence,10_20,2023-11-20T17:51:14.968Z,,,,,,,,,,,2861.966999904602,completion,,,,,,,high,high,,,,,,,false,,,,,false,836614.7999999523,836614.5999999046,833736.097,833750.5999999046,833752.633,836636.233,5,600,,
trial,html.Screen,10_21_0,2023-11-20T17:51:19.032Z,,,,1,0.0119001144851157,-0.0063430114540141,,0.04,false,hl,4041.7669999999925,response,1.0369885917487718,1.0779105381672887,-0.9885036474557616,-0.8486937878412699,1.115567569377862,-0.9717583556377859,high,low,,ISIC_0003822.JPG,9,ISIC_6917681.JPG,28,25,false,0.27000000000000013,ll,keypress(f),0,false,840678,840678,836619.323,836614.7999999523,836636.233,840685.939,5,600,22,
break,html.Screen,10_21_1,2023-11-20T17:51:19.032Z,,,,,,,,,,,NaN,,,,,,,,high,low,,,,,,,false,,,,,false,840678.3999999762,840678.3999999762,,840678.1999999285,,840685.939,5,600,,
break_continue,html.Screen,10_21_2,2023-11-20T17:51:19.032Z,,,,,,,,,,,NaN,,,,,,,,high,low,,,,,,,false,,,,,false,840678.5999999046,840678.5,,840678.5,,840685.939,5,600,,
sequence,flow.Sequence,10_21,2023-11-20T17:51:19.032Z,,,,,,,,,,,4042.2669999999925,completion,,,,,,,high,low,,,,,,,false,,,,,false,840678.5999999046,840678.5,836619.323,836614.7999999523,836636.233,840685.939,5,600,,
trial,html.Screen,10_22_0,2023-11-20T17:51:22.087Z,,,,1,-0.0241900387072296,0.0339955304424736,,0.04,false,hl,3047.7609999284614,response,1.2499674737468107,1.0779105381672887,-0.9885036474557616,-0.7169661572441197,1.115567569377862,-0.9717583556377859,high,low,,ISIC_0010789.JPG,9,ISIC_0013617.JPG,28,25,false,0.27000000000000013,lh,keypress(e),0,false,843733.7999999523,843733.6999999285,840669.325,840678.6999999285,840685.939,843752.821,5,600,23,
break,html.Screen,10_22_1,2023-11-20T17:51:22.088Z,,,,,,,,,,,NaN,,,,,,,,high,low,,,,,,,false,,,,,false,843734.0999999046,843734,,843733.8999999762,,843752.821,5,600,,
break_continue,html.Screen,10_22_2,2023-11-20T17:51:22.088Z,,,,,,,,,,,NaN,,,,,,,,high,low,,,,,,,false,,,,,false,843734.1999999285,843734.0999999046,,843734.0999999046,,843752.821,5,600,,
sequence,flow.Sequence,10_22,2023-11-20T17:51:22.088Z,,,,,,,,,,,3048.1609999046195,completion,,,,,,,high,low,,,,,,,false,,,,,false,843734.1999999285,843734.0999999046,840669.325,840678.6999999285,840685.939,843752.821,5,600,,
trial,html.Screen,10_23_0,2023-11-20T17:51:25.720Z,,,,1,0.0258224118104549,-0.0029364553353019,,0.04,false,lh,3613.078999976162,response,-0.8307508446051526,1.0779105381672887,-0.9885036474557616,1.1707575338936729,1.115567569377862,-0.9717583556377859,low,high,,ISIC_8325226.JPG,9,ISIC_0028606.JPG,28,28,false,0.28000000000000014,ll,keypress(f),0,false,847366,847365.8999999762,843735.97,843734.1999999285,843752.821,847369.312,5,600,24,
break,html.Screen,10_23_1,2023-11-20T17:51:25.720Z,,,,,,,,,,,NaN,,,,,,,,low,high,,,,,,,false,,,,,false,847366.2999999523,847366.2999999523,,847366.0999999046,,847369.312,5,600,,
break_continue,html.Screen,10_23_2,2023-11-20T17:51:25.720Z,,,,,,,,,,,NaN,,,,,,,,low,high,,,,,,,false,,,,,false,847366.5,847366.5,,847366.3999999762,,847369.312,5,600,,
sequence,flow.Sequence,10_23,2023-11-20T17:51:25.720Z,,,,,,,,,,,3613.6790000000037,completion,,,,,,,low,high,,,,,,,false,,,,,false,847366.5999999046,847366.5,843735.97,843734.1999999285,843752.821,847369.312,5,600,,
trial,html.Screen,10_24_0,2023-11-20T17:51:29.000Z,,,,1,0.0200295718112167,0.0155559071275806,,0.04,false,hh,3276.6879999999655,response,1.0325421457475312,1.0779105381672887,-0.9885036474557616,1.0219157566370058,1.115567569377862,-0.9717583556377859,high,high,,ISIC_0061343.JPG,10,ISIC_5336548.JPG,28,29,false,0.14,lh,keypress(e),0,false,850646.0999999046,850646,847352.709,847366.5999999046,847369.312,850669.354,5,600,25,
break,html.Screen,10_24_1,2023-11-20T17:51:29.000Z,,,,,,,,,,,NaN,,,,,,,,high,high,,,,,,,false,,,,,false,850646.2999999523,850646.2999999523,,850646.1999999285,,850669.354,5,600,,
break_continue,html.Screen,10_24_2,2023-11-20T17:51:29.000Z,,,,,,,,,,,NaN,,,,,,,,high,high,,,,,,,false,,,,,false,850646.5,850646.3999999762,,850646.3999999762,,850669.354,5,600,,
sequence,flow.Sequence,10_24,2023-11-20T17:51:29.000Z,,,,,,,,,,,3277.0879999761237,completion,,,,,,,high,high,,,,,,,false,,,,,false,850646.5999999046,850646.3999999762,847352.709,847366.5999999046,847369.312,850669.354,5,600,,
trial,html.Screen,10_25_0,2023-11-20T17:51:33.576Z,,,,1,-0.0388334549081915,0.0303399972963369,,0.04,false,hh,4552.845999928424,response,0.9798314852960236,1.0779105381672887,-0.9885036474557616,1.167024525807191,1.115567569377862,-0.9717583556377859,high,high,,ISIC_4961708.JPG,8,ISIC_4341261.JPG,28,29,false,0.14,lh,keypress(e),0,false,855222.2999999523,855222.1999999285,850652.669,850646.5999999046,850669.354,855236.135,5,600,26,
break,html.Screen,10_25_1,2023-11-20T17:51:33.576Z,,,,,,,,,,,NaN,,,,,,,,high,high,,,,,,,false,,,,,false,855222.5,855222.5,,855222.2999999523,,855236.135,5,600,,
break_continue,html.Screen,10_25_2,2023-11-20T17:51:33.576Z,,,,,,,,,,,NaN,,,,,,,,high,high,,,,,,,false,,,,,false,855222.7999999523,855222.6999999285,,855222.5999999046,,855236.135,5,600,,
sequence,flow.Sequence,10_25,2023-11-20T17:51:33.576Z,,,,,,,,,,,4553.345999928424,completion,,,,,,,high,high,,,,,,,false,,,,,false,855222.7999999523,855222.6999999285,850652.669,850646.5999999046,850669.354,855236.135,5,600,,
trial,html.Screen,10_26_0,2023-11-20T17:51:37.720Z,,,,1,-0.0088741920055285,-0.0058246074740588,,0.04,true,lh,4129.964999904623,response,-1.2081146885025262,1.0779105381672887,-0.9885036474557616,1.195668832085049,1.115567569377862,-0.9717583556377859,low,high,,ISIC_4136663.JPG,9,ISIC_7369690.JPG,28,28,false,0.28000000000000014,lh,keypress(e),0,false,859366.1999999285,859366.0999999046,855219.363,855222.7999999523,855236.135,859369.243,5,600,27,
break,html.Screen,10_26_1,2023-11-20T17:51:37.720Z,,,,,,,,,,,NaN,,,,,,,,low,high,,,,,,,false,,,,,false,859366.3999999762,859366.3999999762,,859366.2999999523,,859369.243,5,600,,
break_continue,html.Screen,10_26_2,2023-11-20T17:51:37.720Z,,,,,,,,,,,NaN,,,,,,,,low,high,,,,,,,false,,,,,false,859366.6999999285,859366.5999999046,,859366.5,,859369.243,5,600,,
sequence,flow.Sequence,10_26,2023-11-20T17:51:37.720Z,,,,,,,,,,,4130.464999904623,completion,,,,,,,low,high,,,,,,,false,,,,,false,859366.6999999285,859366.5999999046,855219.363,855222.7999999523,855236.135,859369.243,5,600,,
trial,html.Screen,10_27_0,2023-11-20T17:51:40.503Z,,,,1,-0.0198696495649504,0.0387952353063878,,0.04,false,hl,2780.356999904616,response,0.8513427412482127,1.0779105381672887,-0.9885036474557616,-0.9295303568095064,1.115567569377862,-0.9717583556377859,high,low,,ISIC_6735970.JPG,9,ISIC_0034164.JPG,28,25,false,0.27000000000000013,lh,keypress(e),0,false,862149.6999999285,862149.5999999046,859352.801,859366.6999999285,859369.243,862152.6,5,600,28,
break,html.Screen,10_27_1,2023-11-20T17:51:40.504Z,,,,,,,,,,,NaN,,,,,,,,high,low,,,,,,,false,,,,,false,862150,862149.8999999762,,862149.7999999523,,862152.6,5,600,,
break_continue,html.Screen,10_27_2,2023-11-20T17:51:40.504Z,,,,,,,,,,,NaN,,,,,,,,high,low,,,,,,,false,,,,,false,862150.2999999523,862150.0999999046,,862150,,862152.6,5,600,,
sequence,flow.Sequence,10_27,2023-11-20T17:51:40.504Z,,,,,,,,,,,2780.856999904616,completion,,,,,,,high,low,,,,,,,false,,,,,false,862150.2999999523,862150.0999999046,859352.801,859366.6999999285,859369.243,862152.6,5,600,,
trial,html.Screen,10_28_0,2023-11-20T17:51:46.248Z,,,,1,0.0257631352671967,0.0202837002774028,,0.04,false,hh,5741.599999928498,response,1.0161855018674797,1.0779105381672887,-0.9885036474557616,1.1331366334676347,1.115567569377862,-0.9717583556377859,high,high,,ISIC_0032797.JPG,9,ISIC_3521671.JPG,28,29,false,0.14,lh,keypress(e),0,false,867894.2999999523,867894.1999999285,862136.158,862150.3999999762,862152.6,867902.636,5,600,29,
break,html.Screen,10_28_1,2023-11-20T17:51:46.248Z,,,,,,,,,,,NaN,,,,,,,,high,high,,,,,,,false,,,,,false,867894.5999999046,867894.5,,867894.3999999762,,867902.636,5,600,,
break_continue,html.Screen,10_28_2,2023-11-20T17:51:46.249Z,,,,,,,,,,,NaN,,,,,,,,high,high,,,,,,,false,,,,,false,867894.8999999762,867894.6999999285,,867894.5999999046,,867902.636,5,600,,
sequence,flow.Sequence,10_28,2023-11-20T17:51:46.249Z,,,,,,,,,,,5742.099999928498,completion,,,,,,,high,high,,,,,,,false,,,,,false,867894.8999999762,867894.6999999285,862136.158,862150.3999999762,862152.6,867902.636,5,600,,
trial,html.Screen,10_29_0,2023-11-20T17:51:51.064Z,,,,1,0.0257631352671967,0.0202837002774028,,0.04,false,hh,4807.363999999943,response,1.151139267005652,1.0779105381672887,-0.9885036474557616,1.0838749490501327,1.115567569377862,-0.9717583556377859,high,high,,ISIC_0032797.JPG,9,ISIC_0002566.JPG,28,29,false,0.14,lh,keypress(e),0,false,872710.0999999046,872710,867886.271,867895,867902.636,872719.26,5,600,30,
break,html.Screen,10_29_1,2023-11-20T17:51:51.064Z,,,,,,,,,,,NaN,,,,,,,,high,high,,,,,,,false,,,,,false,872710.3999999762,872710.2999999523,,872710.1999999285,,872719.26,5,600,,
break_continue,html.Screen,10_29_2,2023-11-20T17:51:51.064Z,,,,,,,,,,,NaN,,,,,,,,high,high,,,,,,,false,,,,,false,872710.5999999046,872710.5,,872710.5,,872719.26,5,600,,
sequence,flow.Sequence,10_29,2023-11-20T17:51:51.064Z,,,,,,,,,,,4807.863999999943,completion,,,,,,,high,high,,,,,,,false,,,,,false,872710.6999999285,872710.5,867886.271,867894.8999999762,867902.636,872719.26,5,600,,
trial,html.Screen,10_30_0,2023-11-20T17:51:55.688Z,,,,1,-0.0074667911845194,0.018500200317654,,0.04,false,lh,4614.839999904623,response,-1.2594580992890123,1.0779105381672887,-0.9885036474557616,0.8833175387485132,1.115567569377862,-0.9717583556377859,low,high,,ISIC_0058723.JPG,8,ISIC_0011933.JPG,28,28,false,0.28000000000000014,ll,keypress(f),0,false,877334.1999999285,877334.0999999046,872703.015,872710.6999999285,872719.26,877335.919,5,600,31,
break,html.Screen,10_30_1,2023-11-20T17:51:55.688Z,,,,,,,,,,,NaN,,,,,,,,low,high,,,,,,,false,,,,,false,877334.5,877334.3999999762,,877334.1999999285,,877335.919,5,600,,
break_continue,html.Screen,10_30_2,2023-11-20T17:51:55.688Z,,,,,,,,,,,NaN,,,,,,,,low,high,,,,,,,false,,,,,false,877334.6999999285,877334.5,,877334.5,,877335.919,5,600,,
sequence,flow.Sequence,10_30,2023-11-20T17:51:55.688Z,,,,,,,,,,,4615.239999999991,completion,,,,,,,low,high,,,,,,,false,,,,,false,877334.6999999285,877334.5,872703.015,872710.6999999285,872719.26,877335.919,5,600,,
trial,html.Screen,10_31_0,2023-11-20T17:52:00.616Z,,,,1,-0.0109416414475118,-0.005246498750811,,0.04,false,hh,4925.880999952322,response,1.0161855018674797,1.0779105381672887,-0.9885036474557616,1.1331366334676347,1.115567569377862,-0.9717583556377859,high,high,,ISIC_0064279.JPG,8,ISIC_3521671.JPG,28,29,false,0.14,ll,keypress(f),0,false,882261.8999999762,882261.7999999523,877319.391,877334.7999999523,877335.919,882269.244,5,600,32,
break,html.Screen,10_31_1,2023-11-20T17:52:00.616Z,,,,,,,,,,,NaN,,,,,,,,high,high,,,,,,,false,,,,,false,882262.2999999523,882262.0999999046,,882261.8999999762,,882269.244,5,600,,
break_continue,html.Screen,10_31_2,2023-11-20T17:52:00.616Z,,,,,,,,,,,NaN,,,,,,,,high,high,,,,,,,false,,,,,false,882262.5,882262.2999999523,,882262.2999999523,,882269.244,5,600,,
sequence,flow.Sequence,10_31,2023-11-20T17:52:00.616Z,,,,,,,,,,,4926.380999952322,completion,,,,,,,high,high,,,,,,,false,,,,,false,882262.5,882262.2999999523,877319.391,877334.7999999523,877335.919,882269.244,5,600,,
trial,html.Screen,10_32_0,2023-11-20T17:52:04.904Z,,,,1,0.0220026381002083,-0.0170756452911772,,0.04,true,lh,4280.756000000052,response,-0.90812608370647,1.0779105381672887,-0.9885036474557616,1.2720026872926935,1.115567569377862,-0.9717583556377859,low,high,,ISIC_5347806.JPG,10,ISIC_0450295.JPG,28,28,false,0.28000000000000014,lh,keypress(e),0,false,886550.0999999046,886550,882252.886,882262.5,882269.244,886552.587,5,600,33,
break,html.Screen,10_32_1,2023-11-20T17:52:04.904Z,,,,,,,,,,,NaN,,,,,,,,low,high,,,,,,,false,,,,,false,886550.3999999762,886550.3999999762,,886550.1999999285,,886552.587,5,600,,
break_continue,html.Screen,10_32_2,2023-11-20T17:52:04.904Z,,,,,,,,,,,NaN,,,,,,,,low,high,,,,,,,false,,,,,false,886550.5999999046,886550.5,,886550.5,,886552.587,5,600,,
sequence,flow.Sequence,10_32,2023-11-20T17:52:04.904Z,,,,,,,,,,,4281.256000000052,completion,,,,,,,low,high,,,,,,,false,,,,,false,886550.6999999285,886550.5,882252.886,882262.5,882269.244,886552.587,5,600,,
trial,html.Screen,10_33_0,2023-11-20T17:52:08.744Z,,,,1,-0.0199950873045219,-0.0172506388509166,,0.04,true,lh,3837.4129999999423,response,-0.8867328775712738,1.0779105381672887,-0.9885036474557616,1.0063426986460375,1.115567569377862,-0.9717583556377859,low,high,,ISIC_0029906.JPG,9,ISIC_0055759.JPG,28,28,false,0.28000000000000014,lh,keypress(e),0,false,890390,890390,886536.042,886550.6999999285,886552.587,890403.016,5,600,34,
break,html.Screen,10_33_1,2023-11-20T17:52:08.744Z,,,,,,,,,,,NaN,,,,,,,,low,high,,,,,,,false,,,,,false,890390.2999999523,890390.1999999285,,890390.0999999046,,890403.016,5,600,,
break_continue,html.Screen,10_33_2,2023-11-20T17:52:08.744Z,,,,,,,,,,,NaN,,,,,,,,low,high,,,,,,,false,,,,,false,890390.3999999762,890390.3999999762,,890390.2999999523,,890403.016,5,600,,
sequence,flow.Sequence,10_33,2023-11-20T17:52:08.744Z,,,,,,,,,,,3837.8129999761004,completion,,,,,,,low,high,,,,,,,false,,,,,false,890390.5,890390.3999999762,886536.042,886550.6999999285,886552.587,890403.016,5,600,,
trial,html.Screen,10_34_0,2023-11-20T17:52:13.096Z,,,,1,0.0286056110007553,0.036125199756515,,0.04,true,ll,4338.883999976213,response,-1.0437879361189135,1.0779105381672887,-0.9885036474557616,-1.0467954238943018,1.115567569377862,-0.9717583556377859,low,low,,ISIC_6535558.JPG,8,ISIC_0011626.JPG,28,34,false,0.1,ll,keypress(f),0,false,894742.0999999046,894741.8999999762,890386.021,890390.5,890403.016,894752.59,5,600,35,
break,html.Screen,10_34_1,2023-11-20T17:52:13.096Z,,,,,,,,,,,NaN,,,,,,,,low,low,,,,,,,false,,,,,false,894742.3999999762,894742.3999999762,,894742.1999999285,,894752.59,5,600,,
break_continue,html.Screen,10_34_2,2023-11-20T17:52:13.096Z,,,,,,,,,,,NaN,,,,,,,,low,low,,,,,,,false,,,,,false,894742.5999999046,894742.5,,894742.3999999762,,894752.59,5,600,,
sequence,flow.Sequence,10_34,2023-11-20T17:52:13.096Z,,,,,,,,,,,4339.484000000055,completion,,,,,,,low,low,,,,,,,false,,,,,false,894742.5999999046,894742.5,890386.021,890390.5,890403.016,894752.59,5,600,,
trial,html.Screen,10_35_0,2023-11-20T17:52:18.312Z,,,,1,0.0258224118104549,-0.0029364553353019,,0.04,true,lh,5205.910000000033,response,-0.7714570894008278,1.0779105381672887,-0.9885036474557616,0.9113656554657036,1.115567569377862,-0.9717583556377859,low,high,,ISIC_8325226.JPG,9,ISIC_4529092.JPG,28,28,false,0.28000000000000014,lh,keypress(e),0,false,899958.5999999046,899958.5,894736.05,894742.6999999285,894752.59,899969.339,5,600,36,
break,html.Screen,10_35_1,2023-11-20T17:52:18.313Z,,,,,,,,,,,NaN,,,,,,,,low,high,,,,,,,false,,,,,false,899958.8999999762,899958.7999999523,,899958.6999999285,,899969.339,5,600,,
break_continue,html.Screen,10_35_2,2023-11-20T17:52:18.313Z,,,,,,,,,,,NaN,,,,,,,,low,high,,,,,,,false,,,,,false,899959.1999999285,899959.0999999046,,899959,,899969.339,5,600,,
sequence,flow.Sequence,10_35,2023-11-20T17:52:18.313Z,,,,,,,,,,,5206.509999904665,completion,,,,,,,low,high,,,,,,,false,,,,,false,899959.2999999523,899959.0999999046,894736.05,894742.6999999285,894752.59,899969.339,5,600,,
trial,html.Screen,10_36_0,2023-11-20T17:52:20.856Z,,,,1,0.0367706518941078,-0.0161069838272154,,0.04,true,ll,2532.6609999999637,response,-1.0292526683018866,1.0779105381672887,-0.9885036474557616,-0.9026684221154396,1.115567569377862,-0.9717583556377859,low,low,,ISIC_0033419.JPG,10,ISIC_0059314.JPG,28,34,false,0.1,ll,keypress(f),0,false,902502,902502,899952.697,899959.2999999523,899969.339,902519.696,5,600,37,
break,html.Screen,10_36_1,2023-11-20T17:52:20.856Z,,,,,,,,,,,NaN,,,,,,,,low,low,,,,,,,false,,,,,false,902502.2999999523,902502.2999999523,,902502.0999999046,,902519.696,5,600,,
break_continue,html.Screen,10_36_2,2023-11-20T17:52:20.856Z,,,,,,,,,,,NaN,,,,,,,,low,low,,,,,,,false,,,,,false,902502.5999999046,902502.5,,902502.3999999762,,902519.696,5,600,,
sequence,flow.Sequence,10_36,2023-11-20T17:52:20.856Z,,,,,,,,,,,2533.1609999999637,completion,,,,,,,low,low,,,,,,,false,,,,,false,902502.5999999046,902502.5,899952.697,899959.2999999523,899969.339,902519.696,5,600,,
trial,html.Screen,10_37_0,2023-11-20T17:52:25.303Z,,,,1,0.0200295718112167,0.0155559071275806,,0.04,false,hh,4429.60399995232,response,1.1409143352872226,1.0779105381672887,-0.9885036474557616,1.1323007949069106,1.115567569377862,-0.9717583556377859,high,high,,ISIC_0061343.JPG,10,ISIC_0030291.JPG,28,29,false,0.14,lh,keypress(e),0,false,906949.3999999762,906949.2999999523,902486.035,902502.5999999046,902519.696,906952.51,5,600,38,
break,html.Screen,10_37_1,2023-11-20T17:52:25.303Z,,,,,,,,,,,NaN,,,,,,,,high,high,,,,,,,false,,,,,false,906949.6999999285,906949.6999999285,,906949.5,,906952.51,5,600,,
break_continue,html.Screen,10_37_2,2023-11-20T17:52:25.304Z,,,,,,,,,,,NaN,,,,,,,,high,high,,,,,,,false,,,,,false,906949.8999999762,906949.8999999762,,906949.7999999523,,906952.51,5,600,,
sequence,flow.Sequence,10_37,2023-11-20T17:52:25.304Z,,,,,,,,,,,4430.203999976162,completion,,,,,,,high,high,,,,,,,false,,,,,false,906949.8999999762,906949.8999999762,902486.035,902502.5999999046,902519.696,906952.51,5,600,,
trial,html.Screen,10_38_0,2023-11-20T17:52:27.416Z,,,,1,0.0367744112927588,0.0324865661712824,,0.04,false,hh,2109.389999976149,response,1.1409143352872226,1.0779105381672887,-0.9885036474557616,1.1323007949069106,1.115567569377862,-0.9717583556377859,high,high,,ISIC_4523565.JPG,9,ISIC_0030291.JPG,28,29,false,0.14,lh,keypress(e),0,false,909062,909061.8999999762,906936.208,906950,906952.51,909069.393,5,600,39,
