sender,sender_type,sender_id,timestamp,meta,,age,blockNo,c1,c2,condition,control_tolerance,correct,correctResponse,duration,ended_on,f1,f1_high,f1_low,f2,f2_high,f2_low,feature_level1,feature_level2,gender,img_left,img_reveal,img_right,n_control_images,n_target_images,practice,range_tolerance,response,response_action,selection_duration,staircase,time_commit,time_end,time_render,time_run,time_show,time_switch,total_blocks,total_trials,trialNo,url
informed_consent,html.Screen,0,2024-03-19T19:06:16.074Z,"{""labjs_version"":""20.2.4"",""labjs_build"":{""flavor"":""development"",""commit"":""f5b4a49f956347addd546a832a3327688c2c0fef""},""location"":""https://labjs.felixhenninger.com/api/labjs_preview/index.html"",""userAgent"":""Mozilla/5.0 (Windows NT 10.0; Win64; x64) AppleWebKit/537.36 (KHTML, like Gecko) Chrome/122.0.0.0 Safari/537.36"",""platform"":""Win32"",""language"":""en-US"",""locale"":""en-US"",""timeZone"":""America/Chicago"",""timezoneOffset"":300,""screen_width"":2560,""screen_height"":1440,""scroll_width"":2560,""scroll_height"":1326,""window_innerWidth"":2560,""window_innerHeight"":1374,""devicePixelRatio"":1}",,,,,,,,,,5383415.300000096,response,,,,,,,,,,,,,,,,,consent,click button,,,5383823.099999905,5383813.400000095,381.4,498.2000000476837,398.1,5383720.198,,,,{}
Demography form,html.Form,1,2024-03-19T19:06:23.419Z,,,21,,,,,,,,7447.002000047825,form submission,,,,,,,,,female,,,,,,,,,,,,5391167.5,5391167.200000048,5383720.198,5383823.5,5383720.198,5391059.53,,,,
Welcome,html.Screen,2,2024-03-19T19:06:57.834Z,,,,,,,"[""asym"",""col""]",,,,34521.769999952056,response,,,,,,,,,,,,,,,,,continue,click button,,,5425582.099999905,5425581.299999952,5391059.53,5391167.5,5391059.53,5425487.8,,,,
demo_instructions,html.Screen,3,2024-03-19T19:07:23.249Z,,,,,,,,,,,25509.200000000186,response,,,,,,,,,,,,,,,,,continue,click button,,,5450997.700000048,5450997,5425471.228,5425582.299999952,5425487.8,5450908.964,,,,
trial,html.Screen,4_0_0,2024-03-19T19:07:35.144Z,,,,0,-1.3034518282811869,-1.0897657776277234,,,true,hh,11983.036000000313,response,1.212030980680325,1.2,-1.2,1.139863018685685,1.2,-1.2,high,high,,ISIC_0071988.JPG,,ISIC_0008510.JPG,,25,true,0.15000000000000002,hh,keypress(i),100,false,5462892.200000048,5462892,5450908.964,5450997.900000095,5450908.964,5462801.7,1,16,1,
sequence,flow.Sequence,4_0,2024-03-19T19:07:35.144Z,,,,,,,,,,,11983.036000000313,completion,,,,,,,high,high,,,,,,,true,,,,,false,5462892.400000095,5462892,5450908.964,5450997.799999952,5450908.964,5462801.7,1,16,,
trial,html.Screen,4_1_0,2024-03-19T19:07:40.655Z,,,,0,-1.2315945866020412,-1.13226141421557,,,true,hh,5600.799999999814,response,1.0878102877901663,1.2,-1.2,1.3154097543539391,1.2,-1.2,high,high,,ISIC_0033595.JPG,,ISIC_1413242.JPG,,25,true,0.15000000000000002,hh,keypress(i),100,false,5468403.099999905,5468402.5,5462785.132,5462892.599999905,5462801.7,5468323.1,1,16,2,
sequence,flow.Sequence,4_1,2024-03-19T19:07:40.656Z,,,,,,,,,,,5600.799999999814,completion,,,,,,,high,high,,,,,,,true,,,,,false,5468404.200000048,5468402.5,5462785.132,5462892.5,5462801.7,5468323.1,1,16,,
trial,html.Screen,4_2_0,2024-03-19T19:07:46.264Z,,,,0,-1.2232482867978696,-1.2451219760556858,,,true,hh,5689.30000009574,response,1.2200968917423711,1.2,-1.2,1.3183466064109373,1.2,-1.2,high,high,,ISIC_0030889.JPG,,ISIC_3624318.JPG,,25,true,0.15000000000000002,hh,keypress(i),100,false,5474013,5474012.400000095,5468306.632,5468404.599999905,5468323.1,5473927.7,1,16,3,
sequence,flow.Sequence,4_2,2024-03-19T19:07:46.265Z,,,,,,,,,,,5689.30000009574,completion,,,,,,,high,high,,,,,,,true,,,,,false,5474013.599999905,5474012.400000095,5468306.632,5468404.5,5468323.1,5473927.7,1,16,,
trial,html.Screen,4_3_0,2024-03-19T19:07:50.594Z,,,,0,-1.238264833797662,-1.176099940770289,,,true,hh,4414.000000047497,response,1.053007132776416,1.2,-1.2,1.341217082060068,1.2,-1.2,high,high,,ISIC_0032861.JPG,,ISIC_0024208.JPG,,25,true,0.15000000000000002,hh,keypress(i),100,false,5478342.299999952,5478341.700000048,5473911.298,5474013.900000095,5473927.7,5478248.2,1,16,4,
sequence,flow.Sequence,4_3,2024-03-19T19:07:50.594Z,,,,,,,,,,,4414.000000047497,completion,,,,,,,high,high,,,,,,,true,,,,,false,5478343.099999905,5478341.700000048,5473911.298,5474013.799999952,5473927.7,5478248.2,1,16,,
trial,html.Screen,4_4_0,2024-03-19T19:07:56.187Z,,,,0,1.1217390688497193,1.2276600934505035,,,true,ll,5687.000000047497,response,-1.1407514641016443,1.2,-1.2,-1.280017651202714,1.2,-1.2,low,low,,ISIC_0026344.JPG,,ISIC_0072507.JPG,,27,true,0.12,ll,keypress(f),100,false,5483935.5,5483935.200000048,5478231.5,5478343.299999952,5478248.2,5483852.6,1,16,5,
sequence,flow.Sequence,4_4,2024-03-19T19:07:56.188Z,,,,,,,,,,,5687.000000047497,completion,,,,,,,low,low,,,,,,,true,,,,,false,5483936.099999905,5483935.200000048,5478231.5,5478343.200000048,5478248.2,5483852.6,1,16,,
trial,html.Screen,4_5_0,2024-03-19T19:08:01.204Z,,,,0,1.0885984639975343,1.2042618719491294,,,true,ll,5099.999999905005,response,-1.2359980588867217,1.2,-1.2,-1.0529964469124329,1.2,-1.2,low,low,,ISIC_0012740.JPG,,ISIC_0032840.JPG,,41,true,0.15000000000000002,ll,keypress(f),100,false,5488953,5488952.599999905,5483836.2,5483936.200000048,5483852.6,5488873.4,1,16,6,
sequence,flow.Sequence,4_5,2024-03-19T19:08:01.205Z,,,,,,,,,,,5099.999999905005,completion,,,,,,,low,low,,,,,,,true,,,,,false,5488953.599999905,5488952.599999905,5483836.2,5483936.200000048,5483852.6,5488873.4,1,16,,
trial,html.Screen,4_6_0,2024-03-19T19:08:10.541Z,,,,0,1.301795918505203,1.0518606632781424,,,true,ll,9415.800000047311,response,-1.238264833797662,1.2,-1.2,-1.176099940770289,1.2,-1.2,low,low,,ISIC_0027666.JPG,,ISIC_0032861.JPG,,41,true,0.15000000000000002,ll,keypress(f),100,false,5498289.400000095,5498289.200000048,5488856.966,5488953.900000095,5488873.4,5498197.6,1,16,7,
sequence,flow.Sequence,4_6,2024-03-19T19:08:10.541Z,,,,,,,,,,,9415.800000047311,completion,,,,,,,low,low,,,,,,,true,,,,,false,5498289.5,5498289.200000048,5488856.966,5488953.799999952,5488873.4,5498197.6,1,16,,
trial,html.Screen,4_7_0,2024-03-19T19:08:13.907Z,,,,0,1.1168199061753437,1.212287319329914,,,true,ll,3457.30000009574,response,-1.0762260610050776,1.2,-1.2,-1.1184338818466155,1.2,-1.2,low,low,,ISIC_5919355.JPG,,ISIC_0058666.JPG,,41,true,0.15000000000000002,ll,keypress(f),100,false,5501655.200000048,5501654.900000095,5498181.296,5498289.599999905,5498197.6,5501567.396,1,16,8,
sequence,flow.Sequence,4_7,2024-03-19T19:08:13.907Z,,,,,,,,,,,3457.30000009574,completion,,,,,,,low,low,,,,,,,true,,,,,false,5501655.799999952,5501654.900000095,5498181.296,5498289.599999905,5498197.6,5501567.396,1,16,,
trial,html.Screen,4_8_0,2024-03-19T19:08:28.251Z,,,,0,0.9013888878932071,-0.9328095253308732,,,true,lh,14431.9039999526,response,-0.8709576717420565,1.2,-1.2,1.2795156779072283,1.2,-1.2,low,high,,ISIC_0068259.JPG,,ISIC_1925632.JPG,,26,true,0.3300000000000002,lh,keypress(e),100,false,5515999.700000048,5515999.299999952,5501567.396,5501656,5501567.396,5515912.4,1,16,9,
sequence,flow.Sequence,4_8,2024-03-19T19:08:28.252Z,,,,,,,,,,,14431.9039999526,completion,,,,,,,low,high,,,,,,,true,,,,,false,5516000.299999952,5515999.299999952,5501567.396,5501656,5501567.396,5515912.4,1,16,,
trial,html.Screen,4_9_0,2024-03-19T19:08:32.907Z,,,,0,0.8534691366511764,-1.276663727068437,,,true,lh,4743.19999990426,response,-1.0700930503975157,1.2,-1.2,0.923753102263735,1.2,-1.2,low,high,,ISIC_0056788.JPG,,ISIC_0000022.JPG,,33,true,0.3600000000000002,lh,keypress(e),100,false,5520655.599999905,5520655.599999905,5515895.966,5516000.5,5515912.4,5520566,1,16,10,
sequence,flow.Sequence,4_9,2024-03-19T19:08:32.907Z,,,,,,,,,,,4743.19999990426,completion,,,,,,,low,high,,,,,,,true,,,,,false,5520655.700000048,5520655.599999905,5515895.966,5516000.5,5515912.4,5520566,1,16,,
trial,html.Screen,4_10_0,2024-03-19T19:08:40.594Z,,,,0,1.11329866545753,-1.2155631217348757,,,true,lh,7776.400000095367,response,-0.9670240379618178,1.2,-1.2,1.1806404773220665,1.2,-1.2,low,high,,ISIC_0032610.JPG,,ISIC_0002288.JPG,,33,true,0.3600000000000002,lh,keypress(e),100,false,5528342.5,5528342.400000095,5520549.364,5520655.799999952,5520566,5528255.9,1,16,11,
sequence,flow.Sequence,4_10,2024-03-19T19:08:40.594Z,,,,,,,,,,,7776.400000095367,completion,,,,,,,low,high,,,,,,,true,,,,,false,5528342.700000048,5528342.400000095,5520549.364,5520655.799999952,5520566,5528255.9,1,16,,
trial,html.Screen,4_11_0,2024-03-19T19:08:46.881Z,,,,0,1.1235224875125256,-0.8641223012137988,,,true,lh,6372.399999951944,response,-1.155796217969438,1.2,-1.2,1.1646564121743912,1.2,-1.2,low,high,,ISIC_0033901.JPG,,ISIC_2685523.JPG,,33,true,0.3600000000000002,lh,keypress(e),100,false,5534628.700000048,5534628.299999952,5528239.1,5528342.900000095,5528255.9,5534544.7,1,16,12,
sequence,flow.Sequence,4_11,2024-03-19T19:08:46.881Z,,,,,,,,,,,6372.399999951944,completion,,,,,,,low,high,,,,,,,true,,,,,false,5534629.400000095,5534628.299999952,5528239.1,5528342.900000095,5528255.9,5534544.7,1,16,,
trial,html.Screen,4_12_0,2024-03-19T19:08:56.002Z,,,,0,-1.1592423187534993,1.067128884093211,,,true,hl,9205.700000095181,response,1.1890109863264902,1.2,-1.2,-0.8867825318561365,1.2,-1.2,high,low,,ISIC_6854940.JPG,,ISIC_0072576.JPG,,29,true,0.3600000000000002,hl,keypress(j),100,false,5543750.700000048,5543750.400000095,5534527.966,5534629.700000048,5534544.7,5543668.9,1,16,13,
sequence,flow.Sequence,4_12,2024-03-19T19:08:56.003Z,,,,,,,,,,,9205.700000095181,completion,,,,,,,high,low,,,,,,,true,,,,,false,5543751.099999905,5543750.400000095,5534527.966,5534629.5,5534544.7,5543668.9,1,16,,
trial,html.Screen,4_13_0,2024-03-19T19:09:00.949Z,,,,0,-0.9046170303418553,1.0063426986460375,,,true,hl,5027.899999951944,response,0.8479396253253069,1.2,-1.2,-1.011054319516718,1.2,-1.2,high,low,,ISIC_0055759.JPG,,ISIC_0063521.JPG,,29,true,0.3600000000000002,hl,keypress(j),100,false,5548697.200000048,5548696.799999952,5543652.196,5543751.299999952,5543668.9,5548606.228,1,16,14,
sequence,flow.Sequence,4_13,2024-03-19T19:09:00.950Z,,,,,,,,,,,5027.899999951944,completion,,,,,,,high,low,,,,,,,true,,,,,false,5548697.799999952,5548696.799999952,5543652.196,5543751.200000048,5543668.9,5548606.228,1,16,,
trial,html.Screen,4_14_0,2024-03-19T19:09:06.026Z,,,,0,-0.8787496315223856,1.3680901203013998,,,true,hl,5167.9720000475645,response,1.1224745971429997,1.2,-1.2,-0.8423270217438888,1.2,-1.2,high,low,,ISIC_0023811.JPG,,ISIC_0057032.JPG,,29,true,0.3600000000000002,hl,keypress(j),100,false,5553774.599999905,5553774.200000048,5548606.228,5548698.200000048,5548606.228,5553693.6,1,16,15,
sequence,flow.Sequence,4_14,2024-03-19T19:09:06.027Z,,,,,,,,,,,5167.9720000475645,completion,,,,,,,high,low,,,,,,,true,,,,,false,5553775.200000048,5553774.200000048,5548606.228,5548698.099999905,5548606.228,5553693.6,1,16,,
trial,html.Screen,4_15_0,2024-03-19T19:09:12.077Z,,,,0,-1.052305774554686,1.3940181224717798,,,true,hl,6131.499999905005,response,1.0003671514840182,1.2,-1.2,-0.8992716557663581,1.2,-1.2,high,low,,ISIC_4175400.JPG,,ISIC_0061749.JPG,,29,true,0.3600000000000002,hl,keypress(j),100,false,5559825.5,5559825.099999905,5553677.166,5553775.5,5553693.6,5559731.7,1,16,16,
sequence,flow.Sequence,4_15,2024-03-19T19:09:12.078Z,,,,,,,,,,,6131.499999905005,completion,,,,,,,high,low,,,,,,,true,,,,,false,5559826.299999952,5559825.099999905,5553677.166,5553775.5,5553693.6,5559731.7,1,16,,
demonstration_loop,flow.Loop,4,2024-03-19T19:09:12.079Z,,,,,,,,,,,108916.13599990495,completion,,,,,,,,,,,,,,,true,,,,,false,5559826.700000048,5559825.099999905,5450908.964,5450997.799999952,5450908.964,5559731.7,1,16,,
practice_instructions,html.Screen,5,2024-03-19T19:09:22.506Z,,,,,,,,,,,10513.299999999814,response,,,,,,,,,,,,,,,,,continue,click button,,,5570253.799999952,5570245,5559715.366,5559826.900000095,5559731.7,5570140.526,,,,
trial,html.Screen,6_0_0,2024-03-19T19:09:36.368Z,,,,1,1.2714351764931109,1.0785174776187512,,,true,ll,13970.974000000395,response,-1.2974483548597415,1.2,-1.2,-1.2071506593281005,1.2,-1.2,low,low,,ISIC_2454898.JPG,,ISIC_0011007.JPG,,27,true,0.12,ll,keypress(f),0,false,5584116.200000048,5584111.5,5570140.526,5570254,5570140.526,5584035,1,40,1,
sequence,flow.Sequence,6_0,2024-03-19T19:09:36.368Z,,,,,,,,,,,13970.974000000395,completion,,,,,,,low,low,,,,,,,true,,,,,false,5584116.299999952,5584111.5,5570140.526,5570254,5570140.526,5584035,1,40,,
trial,html.Screen,6_1_0,2024-03-19T19:09:49.977Z,,,,1,1.411763789273233,-1.0057734478347988,,,true,lh,13690.200000047684,response,-0.8709576717420565,1.2,-1.2,1.2795156779072283,1.2,-1.2,low,high,,ISIC_0027235.JPG,,ISIC_1925632.JPG,,26,true,0.3300000000000002,lh,keypress(e),0,false,5597725.200000048,5597725.200000048,5584018.4,5584116.299999952,5584035,5597629.6,1,40,2,
sequence,flow.Sequence,6_1,2024-03-19T19:09:49.977Z,,,,,,,,,,,13690.200000047684,completion,,,,,,,low,high,,,,,,,true,,,,,false,5597725.299999952,5597725.200000048,5584018.4,5584116.299999952,5584035,5597629.6,1,40,,
trial,html.Screen,6_2_0,2024-03-19T19:09:59.097Z,,,,1,-0.887838744955182,1.3716210719758812,,,true,hl,9215.80000009574,response,1.3559315773956395,1.2,-1.2,-0.924768326187701,1.2,-1.2,high,low,,ISIC_1488727.JPG,,ISIC_5101111.JPG,,29,true,0.3600000000000002,hl,keypress(j),0,false,5606845.5,5606845.400000095,5597618.696,5597725.400000095,5597629.6,5606755,1,40,3,
sequence,flow.Sequence,6_2,2024-03-19T19:09:59.097Z,,,,,,,,,,,9215.80000009574,completion,,,,,,,high,low,,,,,,,true,,,,,false,5606845.700000048,5606845.400000095,5597618.696,5597725.400000095,5597629.6,5606755,1,40,,
trial,html.Screen,6_3_0,2024-03-19T19:10:05.675Z,,,,1,0.8591294258188253,-0.870797302150167,,,true,lh,6668,response,-0.8787496315223856,1.2,-1.2,1.3680901203013998,1.2,-1.2,low,high,,ISIC_0055841.JPG,,ISIC_0023811.JPG,,26,true,0.3300000000000002,lh,keypress(e),0,false,5613423.299999952,5613423,5606730.376,5606845.700000048,5606755,5613326.1,1,40,4,
sequence,flow.Sequence,6_3,2024-03-19T19:10:05.676Z,,,,,,,,,,,6668,completion,,,,,,,low,high,,,,,,,true,,,,,false,5613423.799999952,5613423,5606730.376,5606845.700000048,5606755,5613326.1,1,40,,
trial,html.Screen,6_4_0,2024-03-19T19:10:18.444Z,,,,1,-1.1894733304494307,-1.1169761866204877,,,true,hh,12865.499999905005,response,0.967434313906551,1.2,-1.2,0.9078292667476092,1.2,-1.2,high,high,,ISIC_0033813.JPG,,ISIC_0011668.JPG,,157,true,0.3600000000000002,hh,keypress(i),0,false,5626192,5626191.599999905,5613309.2,5613423.900000095,5613326.1,5626103.2,1,40,5,
sequence,flow.Sequence,6_4,2024-03-19T19:10:18.444Z,,,,,,,,,,,12865.499999905005,completion,,,,,,,high,high,,,,,,,true,,,,,false,5626192.599999905,5626191.599999905,5613309.2,5613423.900000095,5613326.1,5626103.2,1,40,,
trial,html.Screen,6_5_0,2024-03-19T19:10:28.137Z,,,,1,-0.8709576717420565,1.2795156779072283,,,true,hl,9782.299999999814,response,1.2615315960773072,1.2,-1.2,-1.194084675079932,1.2,-1.2,high,low,,ISIC_1925632.JPG,,ISIC_0010044.JPG,,29,true,0.3600000000000002,hl,keypress(j),0,false,5635885.700000048,5635885.5,5626093.096,5626192.799999952,5626103.2,5635794.9,1,40,6,
sequence,flow.Sequence,6_5,2024-03-19T19:10:28.138Z,,,,,,,,,,,9782.299999999814,completion,,,,,,,high,low,,,,,,,true,,,,,false,5635885.900000095,5635885.5,5626093.096,5626192.700000048,5626103.2,5635794.9,1,40,,
trial,html.Screen,6_6_0,2024-03-19T19:10:37.211Z,,,,1,-1.0748728054622358,1.2840853987892311,,,true,hl,9164.399999951944,response,0.8644465729542988,1.2,-1.2,-0.8679598285079457,1.2,-1.2,high,low,,ISIC_0059219.JPG,,ISIC_6718969.JPG,,29,true,0.3600000000000002,hl,keypress(j),0,false,5644959.700000048,5644959.299999952,5635770.62,5635886,5635794.9,5644869.5,1,40,7,
sequence,flow.Sequence,6_6,2024-03-19T19:10:37.212Z,,,,,,,,,,,9164.399999951944,completion,,,,,,,high,low,,,,,,,true,,,,,false,5644960.099999905,5644959.299999952,5635770.62,5635886,5635794.9,5644869.5,1,40,,
trial,html.Screen,6_7_0,2024-03-19T19:10:53.212Z,,,,1,1.1727618800748076,1.0636787813411093,,,,,16012.5,timeout,-1.2268183254476466,1.2,-1.2,-0.8828399683080101,1.2,-1.2,low,low,,ISIC_9690371.JPG,,ISIC_0053541.JPG,,211,true,0.3300000000000002,,,0,false,5660959.700000048,5660959.299999952,5644844.734,5644960.200000048,5644869.5,5660882,1,40,8,
sequence,flow.Sequence,6_7,2024-03-19T19:10:53.212Z,,,,,,,,,,,16089.799999952316,completion,,,,,,,low,low,,,,,,,true,,,,,false,5660960.200000048,5660959.299999952,5644844.734,5644960.200000048,5644869.5,5660882,1,40,,
trial,html.Screen,6_8_0,2024-03-19T19:10:59.066Z,,,,1,1.301795918505203,1.0518606632781424,,,true,ll,5931.799999952316,response,-1.2040551955011098,1.2,-1.2,-1.2664651062241792,1.2,-1.2,low,low,,ISIC_0027666.JPG,,ISIC_0068886.JPG,,41,true,0.15000000000000002,ll,keypress(f),0,false,5666813.900000095,5666813.799999952,5660865.4,5660960.400000095,5660882,5666720.4,1,40,9,
sequence,flow.Sequence,6_8,2024-03-19T19:10:59.066Z,,,,,,,,,,,5931.799999952316,completion,,,,,,,low,low,,,,,,,true,,,,,false,5666814.099999905,5666813.799999952,5660865.4,5660960.400000095,5660882,5666720.4,1,40,,
trial,html.Screen,6_9_0,2024-03-19T19:11:02.009Z,,,,1,1.1604734171556077,1.0789312625280616,,,true,ll,3036.800000047311,response,-1.2289750544294995,1.2,-1.2,-1.3003764624334877,1.2,-1.2,low,low,,ISIC_3950753.JPG,,ISIC_0054167.JPG,,41,true,0.15000000000000002,ll,keypress(f),0,false,5669757.200000048,5669757.200000048,5666703.6,5666814.099999905,5666720.4,5669655.9,1,40,10,
sequence,flow.Sequence,6_9,2024-03-19T19:11:02.009Z,,,,,,,,,,,3036.800000047311,completion,,,,,,,low,low,,,,,,,true,,,,,false,5669757.299999952,5669757.200000048,5666703.6,5666814.099999905,5666720.4,5669655.9,1,40,,
trial,html.Screen,6_10_0,2024-03-19T19:11:06.715Z,,,,1,1.1990772227054871,1.1224329926844498,,,true,ll,4807.0999999996275,response,-1.078286816527963,1.2,-1.2,-1.1255116193013075,1.2,-1.2,low,low,,ISIC_3425388.JPG,,ISIC_0066213.JPG,,41,true,0.15000000000000002,ll,keypress(f),0,false,5674463.400000095,5674463,5669638.9,5669757.400000095,5669655.9,5674376.4,1,40,11,
sequence,flow.Sequence,6_10,2024-03-19T19:11:06.716Z,,,,,,,,,,,4807.0999999996275,completion,,,,,,,low,low,,,,,,,true,,,,,false,5674463.799999952,5674463,5669638.9,5669757.400000095,5669655.9,5674376.4,1,40,,
trial,html.Screen,6_11_0,2024-03-19T19:11:16.780Z,,,,1,-0.9225524349657857,0.929746784178986,,,false,hl,10151.099999999627,response,1.11329866545753,1.2,-1.2,-1.2155631217348757,1.2,-1.2,high,low,,ISIC_0011077.JPG,,ISIC_0032610.JPG,,29,true,0.3600000000000002,hh,keypress(i),0,false,5684527.900000095,5684527.5,5674373.318,5674464.099999905,5674376.4,5684434.7,1,40,12,
sequence,flow.Sequence,6_11,2024-03-19T19:11:16.780Z,,,,,,,,,,,10151.099999999627,completion,,,,,,,high,low,,,,,,,true,,,,,false,5684528.700000048,5684527.5,5674373.318,5674464,5674376.4,5684434.7,1,40,,
trial,html.Screen,6_12_0,2024-03-19T19:11:24.667Z,,,,1,-1.2704198237183777,1.138121072015301,,,true,hl,7980.000000047497,response,1.1890109863264902,1.2,-1.2,-0.8867825318561365,1.2,-1.2,high,low,,ISIC_0501843.JPG,,ISIC_0072576.JPG,,29,true,0.3600000000000002,hl,keypress(j),0,false,5692415.099999905,5692414.700000048,5684427.038,5684528.900000095,5684434.7,5692325.2,1,40,13,
sequence,flow.Sequence,6_12,2024-03-19T19:11:24.668Z,,,,,,,,,,,7980.000000047497,completion,,,,,,,high,low,,,,,,,true,,,,,false,5692415.700000048,5692414.700000048,5684427.038,5684528.900000095,5684434.7,5692325.2,1,40,,
trial,html.Screen,6_13_0,2024-03-19T19:11:30.764Z,,,,1,-1.1227373144244253,-1.1886610799377713,,,true,hh,6186.299999999814,response,1.1513073368404492,1.2,-1.2,1.0485268550965705,1.2,-1.2,high,high,,ISIC_0059506.JPG,,ISIC_0030666.JPG,,127,true,0.3300000000000002,hh,keypress(i),0,false,5698511.900000095,5698511.5,5692302.292,5692415.900000095,5692325.2,5698412.9,1,40,14,
sequence,flow.Sequence,6_13,2024-03-19T19:11:30.764Z,,,,,,,,,,,6186.299999999814,completion,,,,,,,high,high,,,,,,,true,,,,,false,5698512.5,5698511.5,5692302.292,5692415.900000095,5692325.2,5698412.9,1,40,,
trial,html.Screen,6_14_0,2024-03-19T19:11:35.451Z,,,,1,-1.2435042401134029,-1.2939710463315144,,,true,hh,4785.800000047311,response,1.1727618800748076,1.2,-1.2,1.0636787813411093,1.2,-1.2,high,high,,ISIC_0056119.JPG,,ISIC_9690371.JPG,,25,true,0.15000000000000002,hh,keypress(i),0,false,5703199.099999905,5703198.700000048,5698408.796,5698512.700000048,5698412.9,5703116.8,1,40,15,
sequence,flow.Sequence,6_14,2024-03-19T19:11:35.452Z,,,,,,,,,,,4785.800000047311,completion,,,,,,,high,high,,,,,,,true,,,,,false,5703199.700000048,5703198.700000048,5698408.796,5698512.700000048,5698412.9,5703116.8,1,40,,
trial,html.Screen,6_15_0,2024-03-19T19:11:43.851Z,,,,1,0.8591294258188253,-0.870797302150167,,,true,lh,8482.200000000186,response,-0.9448560599810628,1.2,-1.2,0.9099421612683488,1.2,-1.2,low,high,,ISIC_0055841.JPG,,ISIC_9684318.JPG,,26,true,0.3300000000000002,lh,keypress(e),0,false,5711599.299999952,5711599,5703113.952,5703199.900000095,5703116.8,5711507,1,40,16,
sequence,flow.Sequence,6_15,2024-03-19T19:11:43.851Z,,,,,,,,,,,8482.200000000186,completion,,,,,,,low,high,,,,,,,true,,,,,false,5711599.599999905,5711599,5703113.952,5703199.900000095,5703116.8,5711507,1,40,,
trial,html.Screen,6_16_0,2024-03-19T19:11:47.401Z,,,,1,-1.1711612520017805,-1.191169949562454,,,true,hh,3642.2000000476837,response,1.211212746138903,1.2,-1.2,0.9514368385965256,1.2,-1.2,high,high,,ISIC_0061936.JPG,,ISIC_0198331.JPG,,157,true,0.3600000000000002,hh,keypress(i),0,false,5715149.299999952,5715149.200000048,5711490.4,5711599.799999952,5711507,5715059.9,1,40,17,
sequence,flow.Sequence,6_16,2024-03-19T19:11:47.401Z,,,,,,,,,,,3642.2000000476837,completion,,,,,,,high,high,,,,,,,true,,,,,false,5715149.400000095,5715149.200000048,5711490.4,5711599.700000048,5711507,5715059.9,1,40,,
trial,html.Screen,6_17_0,2024-03-19T19:11:58.635Z,,,,1,0.9039158082670506,-1.0517562064343149,,,true,lh,11323.500000094995,response,-0.9873794329144926,1.2,-1.2,0.9500689037516484,1.2,-1.2,low,high,,ISIC_0015411.JPG,,ISIC_0013498.JPG,,26,true,0.3300000000000002,lh,keypress(e),0,false,5726383.799999952,5726383.400000095,5715057.864,5715149.599999905,5715059.9,5726285.9,1,40,18,
sequence,flow.Sequence,6_17,2024-03-19T19:11:58.636Z,,,,,,,,,,,11323.500000094995,completion,,,,,,,low,high,,,,,,,true,,,,,false,5726384.599999905,5726383.400000095,5715057.864,5715149.599999905,5715059.9,5726285.9,1,40,,
trial,html.Screen,6_18_0,2024-03-19T19:12:06.283Z,,,,1,1.2615315960773072,-1.194084675079932,,,true,lh,7745.19999990426,response,-0.9670240379618178,1.2,-1.2,1.1806404773220665,1.2,-1.2,low,high,,ISIC_0010044.JPG,,ISIC_0002288.JPG,,33,true,0.3600000000000002,lh,keypress(e),0,false,5734031.400000095,5734031.099999905,5726277.358,5726384.799999952,5726285.9,5733925.6,1,40,19,
sequence,flow.Sequence,6_18,2024-03-19T19:12:06.284Z,,,,,,,,,,,7745.19999990426,completion,,,,,,,low,high,,,,,,,true,,,,,false,5734032,5734031.099999905,5726277.358,5726384.700000048,5726285.9,5733925.6,1,40,,
trial,html.Screen,6_19_0,2024-03-19T19:12:13.515Z,,,,1,1.1638334638021437,1.0846635401396965,,,true,ll,7337.600000048056,response,-1.3847253236539578,1.2,-1.2,-1.2252457981338687,1.2,-1.2,low,low,,ISIC_4718313.JPG,,ISIC_0060817.JPG,,249,true,0.3600000000000002,ll,keypress(f),0,false,5741263.599999905,5741263.200000048,5733920.268,5734032.299999952,5733925.6,5741164.9,1,40,20,
sequence,flow.Sequence,6_19,2024-03-19T19:12:13.516Z,,,,,,,,,,,7337.600000048056,completion,,,,,,,low,low,,,,,,,true,,,,,false,5741264.200000048,5741263.200000048,5733920.268,5734032.200000048,5733925.6,5741164.9,1,40,,
trial,html.Screen,6_20_0,2024-03-19T19:12:19.595Z,,,,1,1.212030980680325,1.139863018685685,,,true,ll,6178.0999999996275,response,-1.1894733304494307,1.2,-1.2,-1.1169761866204877,1.2,-1.2,low,low,,ISIC_0008510.JPG,,ISIC_0033813.JPG,,41,true,0.15000000000000002,ll,keypress(f),0,false,5747343.400000095,5747343,5741159.374,5741264.400000095,5741164.9,5747253.2,1,40,21,
sequence,flow.Sequence,6_20,2024-03-19T19:12:19.596Z,,,,,,,,,,,6178.0999999996275,completion,,,,,,,low,low,,,,,,,true,,,,,false,5747344,5747343,5741159.374,5741264.400000095,5741164.9,5747253.2,1,40,,
trial,html.Screen,6_21_0,2024-03-19T19:12:26.284Z,,,,1,-0.8709576717420565,1.2795156779072283,,,true,hl,6778.500000047497,response,0.8591294258188253,1.2,-1.2,-0.870797302150167,1.2,-1.2,high,low,,ISIC_1925632.JPG,,ISIC_0055841.JPG,,29,true,0.3600000000000002,hl,keypress(j),0,false,5754032.099999905,5754031.700000048,5747249.03,5747344.200000048,5747253.2,5753925.4,1,40,22,
sequence,flow.Sequence,6_21,2024-03-19T19:12:26.284Z,,,,,,,,,,,6778.500000047497,completion,,,,,,,high,low,,,,,,,true,,,,,false,5754032.700000048,5754031.700000048,5747249.03,5747344.099999905,5747253.2,5753925.4,1,40,,
trial,html.Screen,6_22_0,2024-03-19T19:12:30.603Z,,,,1,1.3471772753257971,1.055978100098093,,,true,ll,4425.800000047311,response,-0.9304005163834584,1.2,-1.2,-0.9903292668457988,1.2,-1.2,low,low,,ISIC_2077116.JPG,,ISIC_3485482.JPG,,211,true,0.3300000000000002,ll,keypress(f),0,false,5758351.599999905,5758351.200000048,5753920.84,5754032.900000095,5753925.4,5758245.7,1,40,23,
sequence,flow.Sequence,6_22,2024-03-19T19:12:30.604Z,,,,,,,,,,,4425.800000047311,completion,,,,,,,low,low,,,,,,,true,,,,,false,5758352.200000048,5758351.200000048,5753920.84,5754032.900000095,5753925.4,5758245.7,1,40,,
trial,html.Screen,6_23_0,2024-03-19T19:12:42.172Z,,,,1,-1.2435042401134029,-1.2939710463315144,,,true,hh,11673.799999999814,response,1.1642596483638106,1.2,-1.2,1.091507924157762,1.2,-1.2,high,high,,ISIC_0056119.JPG,,ISIC_0765584.JPG,,25,true,0.15000000000000002,hh,keypress(i),0,false,5769920,5769919.5,5758242.734,5758352.400000095,5758245.7,5769838.5,1,40,24,
sequence,flow.Sequence,6_23,2024-03-19T19:12:42.172Z,,,,,,,,,,,11673.799999999814,completion,,,,,,,high,high,,,,,,,true,,,,,false,5769920.799999952,5769919.5,5758242.734,5758352.299999952,5758245.7,5769838.5,1,40,,
trial,html.Screen,6_24_0,2024-03-19T19:12:47.467Z,,,,1,0.9087169856594104,-0.8835647084207277,,,true,lh,5376.799999952316,response,-1.155796217969438,1.2,-1.2,1.1646564121743912,1.2,-1.2,low,high,,ISIC_0000349.JPG,,ISIC_2685523.JPG,,26,true,0.3300000000000002,lh,keypress(e),0,false,5775215.700000048,5775215.299999952,5769829.61,5769921.200000048,5769838.5,5775122.862,1,40,25,
sequence,flow.Sequence,6_24,2024-03-19T19:12:47.468Z,,,,,,,,,,,5376.799999952316,completion,,,,,,,low,high,,,,,,,true,,,,,false,5775216.299999952,5775215.299999952,5769829.61,5769921.099999905,5769838.5,5775122.862,1,40,,
trial,html.Screen,6_25_0,2024-03-19T19:12:54.267Z,,,,1,-1.2704198237183777,1.138121072015301,,,true,hl,6892.237999904901,response,1.2615315960773072,1.2,-1.2,-1.194084675079932,1.2,-1.2,high,low,,ISIC_0501843.JPG,,ISIC_0010044.JPG,,29,true,0.3600000000000002,hl,keypress(j),0,false,5782015.599999905,5782015.099999905,5775122.862,5775216.599999905,5775122.862,5781915.2,1,40,26,
sequence,flow.Sequence,6_25,2024-03-19T19:12:54.268Z,,,,,,,,,,,6892.237999904901,completion,,,,,,,high,low,,,,,,,true,,,,,false,5782016.200000048,5782015.099999905,5775122.862,5775216.5,5775122.862,5781915.2,1,40,,
trial,html.Screen,6_26_0,2024-03-19T19:13:03.179Z,,,,1,-0.9212323139676136,0.9882196642247332,,,true,hl,9012.299999999814,response,0.9445114955578736,1.2,-1.2,-1.0054210059625863,1.2,-1.2,high,low,,ISIC_0014255.JPG,,ISIC_0033807.JPG,,29,true,0.3600000000000002,hl,keypress(j),0,false,5790927.799999952,5790927.5,5781910.502,5782016.400000095,5781915.2,5790832.484,1,40,27,
sequence,flow.Sequence,6_26,2024-03-19T19:13:03.180Z,,,,,,,,,,,9012.299999999814,completion,,,,,,,high,low,,,,,,,true,,,,,false,5790928.400000095,5790927.5,5781910.502,5782016.400000095,5781915.2,5790832.484,1,40,,
trial,html.Screen,6_27_0,2024-03-19T19:13:13.371Z,,,,1,1.2838089642212804,-0.8550527900640753,,,true,lh,10287.015999999829,response,-1.1547137855907486,1.2,-1.2,1.0185275168641534,1.2,-1.2,low,high,,ISIC_0034187.JPG,,ISIC_7604870.JPG,,26,true,0.3300000000000002,lh,keypress(e),0,false,5801119.900000095,5801119.5,5790832.484,5790928.799999952,5790832.484,5801014.4,1,40,28,
sequence,flow.Sequence,6_27,2024-03-19T19:13:13.372Z,,,,,,,,,,,10287.015999999829,completion,,,,,,,low,high,,,,,,,true,,,,,false,5801120.400000095,5801119.5,5790832.484,5790928.599999905,5790832.484,5801014.4,1,40,,
trial,html.Screen,6_28_0,2024-03-19T19:13:19.674Z,,,,1,-1.1711612520017805,-1.191169949562454,,,true,hh,6408.0999999996275,response,1.1217390688497193,1.2,-1.2,1.2276600934505035,1.2,-1.2,high,high,,ISIC_0061936.JPG,,ISIC_0026344.JPG,,157,true,0.3600000000000002,hh,keypress(i),0,false,5807422.799999952,5807422.5,5801006.5,5801120.599999905,5801014.4,5807319.5,1,40,29,
sequence,flow.Sequence,6_28,2024-03-19T19:13:19.675Z,,,,,,,,,,,6408.0999999996275,completion,,,,,,,high,high,,,,,,,true,,,,,false,5807423.299999952,5807422.5,5801006.5,5801120.599999905,5801014.4,5807319.5,1,40,,
trial,html.Screen,6_29_0,2024-03-19T19:13:23.179Z,,,,1,-1.2289750544294995,-1.3003764624334877,,,true,hh,3607.7000000476837,response,1.0885984639975343,1.2,-1.2,1.2042618719491294,1.2,-1.2,high,high,,ISIC_0054167.JPG,,ISIC_0012740.JPG,,25,true,0.15000000000000002,hh,keypress(i),0,false,5810927.599999905,5810927.200000048,5807315.178,5807423.5,5807319.5,5810822.5,1,40,30,
sequence,flow.Sequence,6_29,2024-03-19T19:13:23.180Z,,,,,,,,,,,3607.7000000476837,completion,,,,,,,high,high,,,,,,,true,,,,,false,5810928.099999905,5810927.200000048,5807315.178,5807423.5,5807319.5,5810822.5,1,40,,
trial,html.Screen,6_30_0,2024-03-19T19:13:26.555Z,,,,1,-1.250220052739973,-1.2967258992731714,,,true,hh,3481,response,1.0878102877901663,1.2,-1.2,1.3154097543539391,1.2,-1.2,high,high,,ISIC_0031368.JPG,,ISIC_1413242.JPG,,25,true,0.15000000000000002,hh,keypress(i),0,false,5814303.799999952,5814303.5,5810820.3,5810928.400000095,5810822.5,5814208.5,1,40,31,
sequence,flow.Sequence,6_30,2024-03-19T19:13:26.556Z,,,,,,,,,,,3481,completion,,,,,,,high,high,,,,,,,true,,,,,false,5814304.5,5814303.5,5810820.3,5810928.299999952,5810822.5,5814208.5,1,40,,
trial,html.Screen,6_31_0,2024-03-19T19:13:32.523Z,,,,1,-0.8787496315223856,1.3680901203013998,,,true,hl,6062.5,response,0.9013888878932071,1.2,-1.2,-0.9328095253308732,1.2,-1.2,high,low,,ISIC_0023811.JPG,,ISIC_0068259.JPG,,29,true,0.3600000000000002,hl,keypress(j),0,false,5820271.400000095,5820271,5814206.538,5814304.700000048,5814208.5,5820180.2,1,40,32,
sequence,flow.Sequence,6_31,2024-03-19T19:13:32.523Z,,,,,,,,,,,6062.5,completion,,,,,,,high,low,,,,,,,true,,,,,false,5820271.900000095,5820271,5814206.538,5814304.599999905,5814208.5,5820180.2,1,40,,
trial,html.Screen,6_32_0,2024-03-19T19:13:37.067Z,,,,1,1.301795918505203,1.0518606632781424,,,true,ll,4635.000000047497,response,-1.056384093543893,1.2,-1.2,-0.9175933839600456,1.2,-1.2,low,low,,ISIC_0027666.JPG,,ISIC_0064247.JPG,,211,true,0.3300000000000002,ll,keypress(f),0,false,5824815.5,5824815.200000048,5820159.436,5820272.099999905,5820180.2,5824733.8,1,40,33,
sequence,flow.Sequence,6_32,2024-03-19T19:13:37.068Z,,,,,,,,,,,4635.000000047497,completion,,,,,,,low,low,,,,,,,true,,,,,false,5824816.099999905,5824815.200000048,5820159.436,5820272.099999905,5820180.2,5824733.8,1,40,,
trial,html.Screen,6_33_0,2024-03-19T19:13:43.643Z,,,,1,1.11329866545753,-1.2155631217348757,,,true,lh,6657.299999904819,response,-1.2704198237183777,1.2,-1.2,1.138121072015301,1.2,-1.2,low,high,,ISIC_0032610.JPG,,ISIC_0501843.JPG,,26,true,0.3300000000000002,lh,keypress(e),0,false,5831391.5,5831391.099999905,5824731.158,5824816.299999952,5824733.8,5831289.3,1,40,34,
sequence,flow.Sequence,6_33,2024-03-19T19:13:43.643Z,,,,,,,,,,,6657.299999904819,completion,,,,,,,low,high,,,,,,,true,,,,,false,5831392,5831391.099999905,5824731.158,5824816.299999952,5824733.8,5831289.3,1,40,,
trial,html.Screen,6_34_0,2024-03-19T19:13:49.691Z,,,,1,1.4748095371445096,-0.9579010801034902,,,true,lh,6150.100000095554,response,-0.9566823908868002,1.2,-1.2,0.9602125665128364,1.2,-1.2,low,high,,ISIC_0033216.JPG,,ISIC_0056784.JPG,,33,true,0.3600000000000002,lh,keypress(e),0,false,5837439.799999952,5837439.400000095,5831284.678,5831392.200000048,5831289.3,5837344.3,1,40,35,
sequence,flow.Sequence,6_34,2024-03-19T19:13:49.692Z,,,,,,,,,,,6150.100000095554,completion,,,,,,,low,high,,,,,,,true,,,,,false,5837440.400000095,5837439.400000095,5831284.678,5831392.200000048,5831289.3,5837344.3,1,40,,
trial,html.Screen,6_35_0,2024-03-19T19:13:53.417Z,,,,1,-1.2315945866020412,-1.13226141421557,,,true,hh,3820.9999999525025,response,1.2555541172897566,1.2,-1.2,1.0235056423601527,1.2,-1.2,high,high,,ISIC_0033595.JPG,,ISIC_1578399.JPG,,157,true,0.3600000000000002,hh,keypress(i),0,false,5841165.400000095,5841165.299999952,5837327.8,5837440.599999905,5837344.3,5841064.1,1,40,36,
sequence,flow.Sequence,6_35,2024-03-19T19:13:53.417Z,,,,,,,,,,,3820.9999999525025,completion,,,,,,,high,high,,,,,,,true,,,,,false,5841165.599999905,5841165.299999952,5837327.8,5837440.5,5837344.3,5841064.1,1,40,,
trial,html.Screen,6_36_0,2024-03-19T19:13:57.211Z,,,,1,1.1638334638021437,1.0846635401396965,,,true,ll,3894.999999905005,response,-1.089914260719518,1.2,-1.2,-1.1695563571046357,1.2,-1.2,low,low,,ISIC_4718313.JPG,,ISIC_0030695.JPG,,27,true,0.12,ll,keypress(f),0,false,5844959.5,5844959.099999905,5841047.6,5841165.700000048,5841064.1,5844867.1,1,40,37,
sequence,flow.Sequence,6_36,2024-03-19T19:13:57.211Z,,,,,,,,,,,3894.999999905005,completion,,,,,,,low,low,,,,,,,true,,,,,false,5844960,5844959.099999905,5841047.6,5841165.599999905,5841064.1,5844867.1,1,40,,
trial,html.Screen,6_37_0,2024-03-19T19:14:04.731Z,,,,1,-1.0264463986917702,1.171271535505083,,,true,hl,7612.4000000003725,response,0.8479396253253069,1.2,-1.2,-1.011054319516718,1.2,-1.2,high,low,,ISIC_7889838.JPG,,ISIC_0063521.JPG,,29,true,0.3600000000000002,hl,keypress(j),0,false,5852479.799999952,5852479.5,5844864.988,5844960.200000048,5844867.1,5852373.4,1,40,38,
sequence,flow.Sequence,6_37,2024-03-19T19:14:04.732Z,,,,,,,,,,,7612.4000000003725,completion,,,,,,,high,low,,,,,,,true,,,,,false,5852480.400000095,5852479.5,5844864.988,5844960.200000048,5844867.1,5852373.4,1,40,,
trial,html.Screen,6_38_0,2024-03-19T19:14:09.994Z,,,,1,-1.1715181192107684,-1.2251845559044463,,,true,hh,5369.000000094995,response,1.1432120973785689,1.2,-1.2,0.973254467915268,1.2,-1.2,high,high,,ISIC_0011957.JPG,,ISIC_2072219.JPG,,127,true,0.3300000000000002,hh,keypress(i),0,false,5857742.700000048,5857742.400000095,5852367.974,5852480.700000048,5852373.4,5857644.3,1,40,39,
sequence,flow.Sequence,6_38,2024-03-19T19:14:09.994Z,,,,,,,,,,,5369.000000094995,completion,,,,,,,high,high,,,,,,,true,,,,,false,5857743,5857742.400000095,5852367.974,5852480.599999905,5852373.4,5857644.3,1,40,,
trial,html.Screen,6_39_0,2024-03-19T19:14:15.483Z,,,,1,1.3411487193830047,-1.198640448317381,,,true,lh,5586.999999952503,response,-1.0700930503975157,1.2,-1.2,0.923753102263735,1.2,-1.2,low,high,,ISIC_3093026.JPG,,ISIC_0000022.JPG,,26,true,0.3300000000000002,lh,keypress(e),0,false,5863231.599999905,5863231.299999952,5857640.896,5857743.099999905,5857644.3,5863132.2,1,40,40,
sequence,flow.Sequence,6_39,2024-03-19T19:14:15.483Z,,,,,,,,,,,5586.999999952503,completion,,,,,,,low,high,,,,,,,true,,,,,false,5863232.200000048,5863231.299999952,5857640.896,5857743.099999905,5857644.3,5863132.2,1,40,,
practice_loop,flow.Loop,6,2024-03-19T19:14:15.484Z,,,,,,,,,,,293090.7739999527,completion,,,,,,,,,,,,,,,true,,,,,false,5863232.5,5863231.299999952,5570140.526,5570253.900000095,5570140.526,5863132.2,1,40,,
stair_instructions,html.Screen,7,2024-03-19T19:14:47.991Z,,,,,,,,,,,32608.299999999814,response,,,,,,,,,,,,,,,,,continue,click button,,,5895741.200000048,5895740.5,5863128.654,5863232.799999952,5863132.2,5895659.4,,,,
trial,html.Screen,8_0_0,2024-03-19T19:15:02.098Z,,,,2,0.0361875505619981,-0.0291457404567876,,0.04,false,lh,14187.899999951944,response,-0.8709576717420565,1.2,-1.2,1.2795156779072283,1.2,-1.2,low,high,,ISIC_0027480.JPG,,ISIC_1925632.JPG,28,33,false,0.3600000000000002,hh,keypress(i),0,true,5909847.400000095,5909847.299999952,5895642.728,5895741.299999952,5895659.4,5909770.8,1,40,1,
sequence,flow.Sequence,8_0,2024-03-19T19:15:02.098Z,,,,,,,,,,,14187.899999951944,completion,,,,,,,low,high,,,,,,,false,,,,,true,5909847.5,5909847.299999952,5895642.728,5895741.299999952,5895659.4,5909770.8,1,40,,
trial,html.Screen,8_1_0,2024-03-19T19:15:11.066Z,,,,2,-0.0158987717472563,-0.0292472192292015,,0.04,true,ll,9044.499999952503,response,-1.2059606637811695,1.15,-1.2,-1.214966446488752,1.15,-1.15,low,low,,ISIC_1366765.JPG,,ISIC_0013334.JPG,28,25,false,0.12,ll,keypress(f),0,true,5918815.599999905,5918815.299999952,5909754.1,5909847.700000048,5909770.8,5918711.5,1,40,2,
sequence,flow.Sequence,8_1,2024-03-19T19:15:11.066Z,,,,,,,,,,,9044.499999952503,completion,,,,,,,low,low,,,,,,,false,,,,,true,5918816.099999905,5918815.299999952,5909754.1,5909847.599999905,5909770.8,5918711.5,1,40,,
trial,html.Screen,8_2_0,2024-03-19T19:15:20.442Z,,,,2,-0.012020985739544,0.0126097407389903,,0.04,false,hh,9479.799999952316,response,1.1655508270784471,1.15,-1.15,1.1162776063248168,1.15,-1.15,high,high,,ISIC_0069379.JPG,,ISIC_5509946.JPG,28,26,false,0.14,hl,keypress(j),0,true,5928191.599999905,5928191.299999952,5918704.648,5918816.299999952,5918711.5,5928095.498,1,40,3,
sequence,flow.Sequence,8_2,2024-03-19T19:15:20.442Z,,,,,,,,,,,9479.799999952316,completion,,,,,,,high,high,,,,,,,false,,,,,true,5928192.099999905,5928191.299999952,5918704.648,5918816.299999952,5918711.5,5928095.498,1,40,,
trial,html.Screen,8_3_0,2024-03-19T19:15:27.808Z,,,,2,0.0361875505619981,-0.0291457404567876,,0.04,false,hl,7461.7020000480115,response,0.9087169856594104,1.15,-1.15,-0.8835647084207277,1.15,-1.15,high,low,,ISIC_0027480.JPG,,ISIC_0000349.JPG,28,27,false,0.31000000000000016,hh,keypress(i),0,true,5935557.299999952,5935557.200000048,5928095.498,5928192.400000095,5928095.498,5935458.5,1,40,4,
sequence,flow.Sequence,8_3,2024-03-19T19:15:27.808Z,,,,,,,,,,,7461.7020000480115,completion,,,,,,,high,low,,,,,,,false,,,,,true,5935557.400000095,5935557.200000048,5928095.498,5928192.299999952,5928095.498,5935458.5,1,40,,
trial,html.Screen,8_4_0,2024-03-19T19:15:32.666Z,,,,2,-0.0057914759495055,0.018500200317654,,0.04,false,lh,4956.5,response,-1.082730232773217,0.9871339063689286,-1.15,0.8833175387485132,1.15,-1.15,low,high,,ISIC_0058723.JPG,,ISIC_0011933.JPG,28,25,false,0.28000000000000014,ll,keypress(f),0,true,5940415.400000095,5940415,5935452.846,5935557.5,5935458.5,5940312.6,1,40,5,
sequence,flow.Sequence,8_4,2024-03-19T19:15:32.666Z,,,,,,,,,,,4956.5,completion,,,,,,,low,high,,,,,,,false,,,,,true,5940415.900000095,5940415,5935452.846,5935557.5,5935458.5,5940312.6,1,40,,
trial,html.Screen,8_5_0,2024-03-19T19:15:36.793Z,,,,2,0.0199897690678184,0.0312486875504497,,0.04,false,hl,4230.30000009574,response,0.8069562753553525,0.9871339063689286,-1.0999999999999999,-0.9101764190105358,1.15,-1.15,high,low,,ISIC_5482426.JPG,,ISIC_0046596.JPG,28,29,false,0.28000000000000014,ll,keypress(f),0,true,5944543.200000048,5944542.900000095,5940309.446,5940416.099999905,5940312.6,5944449.3,1,40,6,
sequence,flow.Sequence,8_5,2024-03-19T19:15:36.794Z,,,,,,,,,,,4230.30000009574,completion,,,,,,,high,low,,,,,,,false,,,,,true,5944543.700000048,5944542.900000095,5940309.446,5940416.099999905,5940312.6,5944449.3,1,40,,
trial,html.Screen,8_6_0,2024-03-19T19:15:44.858Z,,,,2,0.0189295602385628,0.0128812415435153,,0.04,true,hl,8157.999999952503,response,1.1235224875125256,1.0371339063689287,-1.0999999999999999,-0.8641223012137988,1.15,-1.15,high,low,,ISIC_0010372.JPG,,ISIC_0033901.JPG,28,27,false,0.29000000000000015,hl,keypress(j),0,true,5952607.700000048,5952607.299999952,5944446.642,5944543.900000095,5944449.3,5952506.1,1,40,7,
sequence,flow.Sequence,8_6,2024-03-19T19:15:44.859Z,,,,,,,,,,,8157.999999952503,completion,,,,,,,high,low,,,,,,,false,,,,,true,5952608.299999952,5952607.299999952,5944446.642,5944543.799999952,5944449.3,5952506.1,1,40,,
trial,html.Screen,8_7_0,2024-03-19T19:15:52.299Z,,,,2,-0.0050679133050021,-0.0174815595031679,,0.04,false,ll,7541.499999905005,response,-1.1227373144244253,1.0371339063689287,-1.0999999999999999,-1.1886610799377713,1.15,-1.0999999999999999,low,low,,ISIC_9848743.JPG,,ISIC_0059506.JPG,28,32,false,0.11,lh,keypress(e),0,true,5960048,5960047.599999905,5952500.118,5952608.599999905,5952506.1,5959945.4,1,40,8,
sequence,flow.Sequence,8_7,2024-03-19T19:15:52.299Z,,,,,,,,,,,7541.499999905005,completion,,,,,,,low,low,,,,,,,false,,,,,true,5960048.599999905,5960047.599999905,5952500.118,5952608.599999905,5952506.1,5959945.4,1,40,,
trial,html.Screen,8_8_0,2024-03-19T19:15:56.907Z,,,,2,-0.0399381815506136,-0.0177751789152893,,0.04,true,hh,4710.000000094995,response,1.0064329161780483,1.0371339063689287,-1.0999999999999999,1.0631481857644678,1.15,-1.15,high,high,,ISIC_3981425.JPG,,ISIC_0033137.JPG,28,31,false,0.13,hh,keypress(i),0,true,5964655.700000048,5964655.400000095,5959940.076,5960048.799999952,5959945.4,5964549.3,1,40,9,
sequence,flow.Sequence,8_8,2024-03-19T19:15:56.907Z,,,,,,,,,,,4710.000000094995,completion,,,,,,,high,high,,,,,,,false,,,,,true,5964656.299999952,5964655.400000095,5959940.076,5960048.799999952,5959945.4,5964549.3,1,40,,
trial,html.Screen,8_9_0,2024-03-19T19:16:10.298Z,,,,2,-0.0050679133050021,-0.0174815595031679,,0.04,false,hl,13497.600000095554,response,0.9445114955578736,0.984790550971258,-1.0999999999999999,-1.0054210059625863,1.15,-1.15,high,low,,ISIC_9848743.JPG,,ISIC_0033807.JPG,28,29,false,0.28000000000000014,ll,keypress(f),0,true,5978047.299999952,5978046.900000095,5964546.356,5964656.599999905,5964549.3,5977960.3,1,40,10,
sequence,flow.Sequence,8_9,2024-03-19T19:16:10.299Z,,,,,,,,,,,13497.600000095554,completion,,,,,,,high,low,,,,,,,false,,,,,true,5978047.799999952,5978046.900000095,5964546.356,5964656.5,5964549.3,5977960.3,1,40,,
trial,html.Screen,8_10_0,2024-03-19T19:16:17.226Z,,,,2,0.0199897690678184,0.0312486875504497,,0.04,true,lh,7014.700000000186,response,-0.8709576717420565,1.034790550971258,-1.0999999999999999,1.2795156779072283,1.15,-1.15,low,high,,ISIC_5482426.JPG,,ISIC_1925632.JPG,28,26,false,0.2500000000000001,lh,keypress(e),0,true,5984975.299999952,5984975,5977949.838,5978048.099999905,5977960.3,5984882.9,1,40,11,
sequence,flow.Sequence,8_10,2024-03-19T19:16:17.227Z,,,,,,,,,,,7014.700000000186,completion,,,,,,,low,high,,,,,,,false,,,,,true,5984975.799999952,5984975,5977949.838,5978048,5977960.3,5984882.9,1,40,,
trial,html.Screen,8_11_0,2024-03-19T19:16:22.475Z,,,,2,-0.0166849894750452,0.0371614812368835,,0.04,true,ll,5340.500000094995,response,-0.9695913930841004,1.034790550971258,-1.0499999999999998,-1.2261129408494682,1.0999999999999999,-1.15,low,low,,ISIC_6231450.JPG,,ISIC_0028086.JPG,28,28,false,0.1,ll,keypress(f),0,true,5990223.799999952,5990223.400000095,5984866.1,5984976,5984882.9,5990120.4,1,40,12,
sequence,flow.Sequence,8_11,2024-03-19T19:16:22.475Z,,,,,,,,,,,5340.500000094995,completion,,,,,,,low,low,,,,,,,false,,,,,true,5990224.299999952,5990223.400000095,5984866.1,5984976,5984882.9,5990120.4,1,40,,
trial,html.Screen,8_12_0,2024-03-19T19:16:28.618Z,,,,2,0.010035581303589,-0.0100711721396864,,0.04,false,lh,6246.300000047311,response,-1.2704198237183777,1.034790550971258,-1.0499999999999998,1.138121072015301,1.0999999999999999,-1.0478521669667842,low,high,,ISIC_0030592.JPG,,ISIC_0501843.JPG,28,25,false,0.2300000000000001,hh,keypress(i),0,true,5996367.099999905,5996366.700000048,5990116.764,5990224.599999905,5990120.4,5996275.5,1,40,13,
sequence,flow.Sequence,8_12,2024-03-19T19:16:28.619Z,,,,,,,,,,,6246.300000047311,completion,,,,,,,low,high,,,,,,,false,,,,,true,5996367.700000048,5996366.700000048,5990116.764,5990224.5,5990120.4,5996275.5,1,40,,
trial,html.Screen,8_13_0,2024-03-19T19:16:37.290Z,,,,2,0.0365981355399771,0.0162670920008846,,0.04,false,lh,8763.799999952316,response,-0.9212323139676136,1.034790550971258,-1.0999999999999999,0.9882196642247332,1.0999999999999999,-1.0478521669667842,low,high,,ISIC_0982855.JPG,,ISIC_0014255.JPG,28,26,false,0.2500000000000001,ll,keypress(f),0,true,6005039.599999905,6005039.299999952,5996271.128,5996367.900000095,5996275.5,6004950.4,1,40,14,
sequence,flow.Sequence,8_13,2024-03-19T19:16:37.291Z,,,,,,,,,,,8763.799999952316,completion,,,,,,,low,high,,,,,,,false,,,,,true,6005040.200000048,6005039.299999952,5996271.128,5996367.900000095,5996275.5,6004950.4,1,40,,
trial,html.Screen,8_14_0,2024-03-19T19:16:49.930Z,,,,2,-0.0166849894750452,0.0371614812368835,,0.04,true,lh,12728.800000047311,response,-0.8688859182707874,1.034790550971258,-1.0999999999999999,0.9566733172438716,1.15,-1.0478521669667842,low,high,,ISIC_6231450.JPG,,ISIC_0640770.JPG,28,26,false,0.2500000000000001,lh,keypress(e),0,true,6017679.700000048,6017679.200000048,6004942.66,6005040.5,6004950.4,6017583.228,1,40,15,
sequence,flow.Sequence,8_14,2024-03-19T19:16:49.931Z,,,,,,,,,,,12728.800000047311,completion,,,,,,,low,high,,,,,,,false,,,,,true,6017680.299999952,6017679.200000048,6004942.66,6005040.400000095,6004950.4,6017583.228,1,40,,
trial,html.Screen,8_15_0,2024-03-19T19:16:57.994Z,,,,2,-0.0118555311043871,-0.0087774532070196,,0.04,true,hh,8159.871999904513,response,1.0885984639975343,1.034790550971258,-1.0499999999999998,1.2042618719491294,1.15,-1.0478521669667842,high,high,,ISIC_6488658.JPG,,ISIC_0012740.JPG,28,30,false,0.13,hh,keypress(i),0,true,6025743.5,6025743.099999905,6017583.228,6017680.5,6017583.228,6025649.6,1,40,16,
sequence,flow.Sequence,8_15,2024-03-19T19:16:57.995Z,,,,,,,,,,,8159.871999904513,completion,,,,,,,high,high,,,,,,,false,,,,,true,6025744.099999905,6025743.099999905,6017583.228,6017680.400000095,6017583.228,6025649.6,1,40,,
trial,html.Screen,8_16_0,2024-03-19T19:17:03.386Z,,,,2,-0.0377791839943904,0.0227626648172468,,0.04,true,ll,5485.199999952689,response,-1.094624209823328,1.034790550971258,-1.0499999999999998,-1.0544499428769605,1.0964301679733317,-1.0478521669667842,low,low,,ISIC_7167479.JPG,,ISIC_0055526.JPG,28,30,false,0.1,ll,keypress(f),0,true,6031135.200000048,6031134.799999952,6025633,6025744.400000095,6025649.6,6031037.5,1,40,17,
sequence,flow.Sequence,8_16,2024-03-19T19:17:03.386Z,,,,,,,,,,,5485.199999952689,completion,,,,,,,low,low,,,,,,,false,,,,,true,6031135.700000048,6031134.799999952,6025633,6025744.299999952,6025649.6,6031037.5,1,40,,
trial,html.Screen,8_17_0,2024-03-19T19:17:16.826Z,,,,2,-0.0118555311043871,-0.0087774532070196,,0.04,true,ll,13537.599999904633,response,-1.0053183338862537,1.034790550971258,-1.0499999999999998,-1.0383223796934642,1.0964301679733317,-1.0478521669667842,low,low,,ISIC_6488658.JPG,,ISIC_0000519.JPG,28,30,false,0.1,ll,keypress(f),0,true,6044575.5,6044575.099999905,6031033.892,6031136,6031037.5,6044482,1,40,18,
sequence,flow.Sequence,8_17,2024-03-19T19:17:16.827Z,,,,,,,,,,,13537.599999904633,completion,,,,,,,low,low,,,,,,,false,,,,,true,6044576,6044575.099999905,6031033.892,6031135.900000095,6031037.5,6044482,1,40,,
trial,html.Screen,8_18_0,2024-03-19T19:17:20.057Z,,,,2,0.0127320821962457,-0.0315308940184827,,0.04,true,ll,3324.5,response,-1.0088070132449485,1.034790550971258,-0.9963861612852123,-0.9026684221154396,1.0964301679733317,-0.9963861612852123,low,low,,ISIC_8156101.JPG,,ISIC_0059314.JPG,28,51,false,0.1,ll,keypress(f),0,true,6047806.900000095,6047806.5,6044471.336,6044576.299999952,6044482,6047701.3,1,40,19,
sequence,flow.Sequence,8_18,2024-03-19T19:17:20.058Z,,,,,,,,,,,3324.5,completion,,,,,,,low,low,,,,,,,false,,,,,true,6047807.400000095,6047806.5,6044471.336,6044576.299999952,6044482,6047701.3,1,40,,
trial,html.Screen,8_19_0,2024-03-19T19:17:34.442Z,,,,2,-0.0071892445601978,0.0246015408628738,,0.04,true,lh,14489.90000004787,response,-1.155796217969438,1.034790550971258,-0.9963861612852123,1.1646564121743912,1.0964301679733317,-0.9963861612852123,low,high,,ISIC_0014133.JPG,,ISIC_2685523.JPG,28,26,false,0.21000000000000008,lh,keypress(e),0,true,6062191.599999905,6062191.200000048,6047699.378,6047807.599999905,6047701.3,6062096.4,1,40,20,
sequence,flow.Sequence,8_19,2024-03-19T19:17:34.443Z,,,,,,,,,,,14489.90000004787,completion,,,,,,,low,high,,,,,,,false,,,,,true,6062192.099999905,6062191.200000048,6047699.378,6047807.599999905,6047701.3,6062096.4,1,40,,
trial,html.Screen,8_20_0,2024-03-19T19:17:40.041Z,,,,2,0.0367218428225813,-0.0026956749740767,,0.04,false,lh,5694.19999990426,response,-0.8407642478899736,1.034790550971258,-0.9463861612852122,0.9542322753334054,1.0964301679733317,-0.9963861612852123,low,high,,ISIC_7212271.JPG,,ISIC_9090822.JPG,28,26,false,0.19000000000000006,hl,keypress(j),0,true,6067790.900000095,6067790.599999905,6062085.132,6062192.400000095,6062096.4,6067684.4,1,40,21,
sequence,flow.Sequence,8_20,2024-03-19T19:17:40.042Z,,,,,,,,,,,5694.19999990426,completion,,,,,,,low,high,,,,,,,false,,,,,true,6067791.400000095,6067790.599999905,6062085.132,6062192.299999952,6062096.4,6067684.4,1,40,,
trial,html.Screen,8_21_0,2024-03-19T19:17:49.449Z,,,,2,0.0189295602385628,0.0128812415435153,,0.04,false,hl,9514.399999951944,response,0.8152354890677903,1.034790550971258,-0.9963861612852123,-1.10470584815077,1.1464301679733317,-0.9963861612852123,high,low,,ISIC_0010372.JPG,,ISIC_0010283.JPG,28,26,false,0.22000000000000008,hh,keypress(i),0,true,6077199.200000048,6077198.799999952,6067680.75,6067791.700000048,6067684.4,6077109.4,1,40,22,
sequence,flow.Sequence,8_21,2024-03-19T19:17:49.450Z,,,,,,,,,,,9514.399999951944,completion,,,,,,,high,low,,,,,,,false,,,,,true,6077199.700000048,6077198.799999952,6067680.75,6067791.599999905,6067684.4,6077109.4,1,40,,
trial,html.Screen,8_22_0,2024-03-19T19:17:55.177Z,,,,2,0.0063515208248796,0.0194177605767913,,0.04,true,hl,5817.19999990426,response,1.0003671514840182,0.9399459506210908,-0.9963861612852123,-0.8992716557663581,1.1464301679733317,-1.0463861612852123,high,low,,ISIC_5281908.JPG,,ISIC_0061749.JPG,28,26,false,0.21000000000000008,hl,keypress(j),0,true,6082926.900000095,6082926.599999905,6077085.164,6077200,6077109.4,6082830.5,1,40,23,
sequence,flow.Sequence,8_22,2024-03-19T19:17:55.178Z,,,,,,,,,,,5817.19999990426,completion,,,,,,,high,low,,,,,,,false,,,,,true,6082927.5,6082926.599999905,6077085.164,6077200,6077109.4,6082830.5,1,40,,
trial,html.Screen,8_23_0,2024-03-19T19:18:02.154Z,,,,2,0.0199897690678184,0.0312486875504497,,0.04,true,hh,7072.799999952316,response,0.8619122137969323,0.9399459506210908,-0.9963861612852123,1.2189749655812585,1.1464301679733317,-1.0463861612852123,high,high,,ISIC_5482426.JPG,,ISIC_3737487.JPG,28,26,false,0.1,hh,keypress(i),0,true,6089903.700000048,6089903.299999952,6082813.7,6082927.700000048,6082830.5,6089802.6,1,40,24,
sequence,flow.Sequence,8_23,2024-03-19T19:18:02.154Z,,,,,,,,,,,7072.799999952316,completion,,,,,,,high,high,,,,,,,false,,,,,true,6089904.299999952,6089903.299999952,6082813.7,6082927.700000048,6082830.5,6089802.6,1,40,,
trial,html.Screen,8_24_0,2024-03-19T19:18:14.153Z,,,,2,-0.0060934073440827,-0.0279108145883031,,0.04,false,hl,12100.400000000373,response,1.064425982109969,0.9904435896890953,-0.9963861612852123,-0.958564243697126,1.1464301679733317,-1.0463861612852123,high,low,,ISIC_0032604.JPG,,ISIC_3203344.JPG,28,26,false,0.22000000000000008,hh,keypress(i),0,true,6101903.299999952,6101903,6089797.828,6089904.5,6089802.6,6101813.2,1,40,25,
sequence,flow.Sequence,8_24,2024-03-19T19:18:14.154Z,,,,,,,,,,,12100.400000000373,completion,,,,,,,high,low,,,,,,,false,,,,,true,6101903.599999905,6101903,6089797.828,6089904.5,6089802.6,6101813.2,1,40,,
trial,html.Screen,8_25_0,2024-03-19T19:18:23.159Z,,,,2,-0.0399381815506136,-0.0177751789152893,,0.04,true,hl,9095.59999995213,response,0.9039158082670506,0.9904435896890953,-0.9963861612852123,-1.0517562064343149,1.1464301679733317,-1.0963861612852124,high,low,,ISIC_3981425.JPG,,ISIC_0015411.JPG,28,26,false,0.2400000000000001,hl,keypress(j),0,true,6110908.900000095,6110908.799999952,6101786.694,6101903.700000048,6101813.2,6110803.2,1,40,26,
sequence,flow.Sequence,8_25,2024-03-19T19:18:23.159Z,,,,,,,,,,,9095.59999995213,completion,,,,,,,high,low,,,,,,,false,,,,,true,6110909.099999905,6110908.799999952,6101786.694,6101903.700000048,6101813.2,6110803.2,1,40,,
trial,html.Screen,8_26_0,2024-03-19T19:18:31.402Z,,,,2,0.0199897690678184,0.0312486875504497,,0.04,false,hl,8347.899999904446,response,0.9445114955578736,0.9404435896890952,-0.9963861612852123,-1.0054210059625863,1.1464301679733317,-1.0963861612852124,high,low,,ISIC_5482426.JPG,,ISIC_0033807.JPG,28,27,false,0.2300000000000001,ll,keypress(f),0,true,6119151.5,6119151.099999905,6110796.38,6110909.200000048,6110803.2,6119060.2,1,40,27,
sequence,flow.Sequence,8_26,2024-03-19T19:18:31.402Z,,,,,,,,,,,8347.899999904446,completion,,,,,,,high,low,,,,,,,false,,,,,true,6119152.200000048,6119151.099999905,6110796.38,6110909.099999905,6110803.2,6119060.2,1,40,,
trial,html.Screen,8_27_0,2024-03-19T19:18:37.545Z,,,,2,0.0365981355399771,0.0162670920008846,,0.04,false,hh,6234.500000047497,response,0.9036177845601896,0.9904435896890953,-0.9963861612852123,1.1504406797855629,1.1464301679733317,-0.9785886061984506,high,high,,ISIC_0982855.JPG,,ISIC_3947876.JPG,28,25,false,0.12,ll,keypress(f),0,true,6125295.099999905,6125294.700000048,6119043.3,6119152.5,6119060.2,6125198.7,1,40,28,
sequence,flow.Sequence,8_27,2024-03-19T19:18:37.546Z,,,,,,,,,,,6234.500000047497,completion,,,,,,,high,high,,,,,,,false,,,,,true,6125295.599999905,6125294.700000048,6119043.3,6119152.400000095,6119060.2,6125198.7,1,40,,
trial,html.Screen,8_28_0,2024-03-19T19:18:46.042Z,,,,2,-0.00126575685933,-0.0325046559638838,,0.04,true,ll,8592.500000047497,response,-1.0667480038665316,1.0404435896890953,-0.9963861612852123,-0.9195011628288464,1.1964301679733318,-0.9785886061984506,low,low,,ISIC_5682259.JPG,,ISIC_0062517.JPG,28,48,false,0.1,ll,keypress(f),0,true,6133791.5,6133791.200000048,6125181.8,6125295.900000095,6125198.7,6133699.2,1,40,29,
sequence,flow.Sequence,8_28,2024-03-19T19:18:46.043Z,,,,,,,,,,,8592.500000047497,completion,,,,,,,low,low,,,,,,,false,,,,,true,6133792.099999905,6133791.200000048,6125181.8,6125295.799999952,6125198.7,6133699.2,1,40,,
trial,html.Screen,8_29_0,2024-03-19T19:18:56.170Z,,,,2,-0.012810673904807,0.00400964452501,,0.04,true,lh,10219.899999904446,response,-1.0822170028935367,1.0404435896890953,-0.9963861612852123,1.1654796154432183,1.1964301679733318,-0.9785886061984506,low,high,,ISIC_0064656.JPG,,ISIC_7288818.JPG,28,27,false,0.2300000000000001,lh,keypress(e),0,true,6143919.599999905,6143919.099999905,6133699.2,6133792.299999952,6133699.2,6143813.9,1,40,30,
sequence,flow.Sequence,8_29,2024-03-19T19:18:56.171Z,,,,,,,,,,,10219.899999904446,completion,,,,,,,low,high,,,,,,,false,,,,,true,6143920,6143919.099999905,6133699.2,6133792.299999952,6133699.2,6143813.9,1,40,,
trial,html.Screen,8_30_0,2024-03-19T19:19:02.682Z,,,,2,-0.0060918352854008,0.029032683404407,,0.04,true,hh,6616.800000047311,response,0.9520649807922285,1.0404435896890953,-0.9463861612852122,1.2060773672502134,1.1964301679733318,-0.9785886061984506,high,high,,ISIC_8436194.JPG,,ISIC_9439742.JPG,28,30,false,0.13,hh,keypress(i),0,true,6150431.099999905,6150430.700000048,6143806.336,6143920.400000095,6143813.9,6150335.9,1,40,31,
sequence,flow.Sequence,8_30,2024-03-19T19:19:02.683Z,,,,,,,,,,,6616.800000047311,completion,,,,,,,high,high,,,,,,,false,,,,,true,6150431.700000048,6150430.700000048,6143806.336,6143920.200000048,6143813.9,6150335.9,1,40,,
trial,html.Screen,8_31_0,2024-03-19T19:19:12.282Z,,,,2,0.0189295602385628,0.0128812415435153,,0.04,false,hl,9694.800000047311,response,0.8591294258188253,1.0404435896890953,-0.9463861612852122,-0.870797302150167,1.0290711740212208,-0.9785886061984506,high,low,,ISIC_0010372.JPG,,ISIC_0055841.JPG,28,28,false,0.2300000000000001,hh,keypress(i),0,true,6160031,6160030.700000048,6150331.446,6150432,6150335.9,6159927.1,1,40,32,
sequence,flow.Sequence,8_31,2024-03-19T19:19:12.282Z,,,,,,,,,,,9694.800000047311,completion,,,,,,,high,low,,,,,,,false,,,,,true,6160031.599999905,6160030.700000048,6150331.446,6150431.900000095,6150335.9,6159927.1,1,40,,
trial,html.Screen,8_32_0,2024-03-19T19:19:21.306Z,,,,2,0.0199897690678184,0.0312486875504497,,0.04,true,ll,9127.600000048056,response,-0.9693644437173125,0.8555972033055268,-0.9463861612852122,-1.114502123877908,1.0290711740212208,-1.0285886061984506,low,low,,ISIC_5482426.JPG,,ISIC_0014795.JPG,28,42,false,0.1,ll,keypress(f),0,true,6169055,6169054.700000048,6159919.79,6160031.700000048,6159927.1,6168951.3,1,40,33,
sequence,flow.Sequence,8_32,2024-03-19T19:19:21.306Z,,,,,,,,,,,9127.600000048056,completion,,,,,,,low,low,,,,,,,false,,,,,true,6169055.599999905,6169054.700000048,6159919.79,6160031.700000048,6159927.1,6168951.3,1,40,,
trial,html.Screen,8_33_0,2024-03-19T19:19:31.066Z,,,,2,-0.012810673904807,0.00400964452501,,0.04,false,hh,9863.600000095554,response,0.8839757968937295,0.8555972033055268,-0.9463861612852122,0.9422051867002986,1.0290711740212208,-1.0285886061984506,high,high,,ISIC_0064656.JPG,,ISIC_6739241.JPG,28,33,false,0.1,lh,keypress(e),0,true,6178815.299999952,6178814.900000095,6168944.646,6169055.900000095,6168951.3,6178709.4,1,40,34,
sequence,flow.Sequence,8_33,2024-03-19T19:19:31.067Z,,,,,,,,,,,9863.600000095554,completion,,,,,,,high,high,,,,,,,false,,,,,true,6178815.900000095,6178814.900000095,6168944.646,6169055.799999952,6168951.3,6178709.4,1,40,,
trial,html.Screen,8_34_0,2024-03-19T19:19:36.298Z,,,,2,-0.00126575685933,-0.0325046559638838,,0.04,true,ll,5337.000000094995,response,-1.0053183338862537,0.9055972033055268,-0.9463861612852122,-1.0383223796934642,1.0290711740212208,-1.0285886061984506,low,low,,ISIC_5682259.JPG,,ISIC_0000519.JPG,28,42,false,0.1,ll,keypress(f),0,true,6184046.799999952,6184046.400000095,6178701.75,6178816.099999905,6178709.4,6183947.1,1,40,35,
sequence,flow.Sequence,8_34,2024-03-19T19:19:36.298Z,,,,,,,,,,,5337.000000094995,completion,,,,,,,low,low,,,,,,,false,,,,,true,6184047.400000095,6184046.400000095,6178701.75,6178816.099999905,6178709.4,6183947.1,1,40,,
trial,html.Screen,8_35_0,2024-03-19T19:19:42.330Z,,,,2,0.0365981355399771,0.0162670920008846,,0.04,true,ll,6131.499999905005,response,-0.8299064093289698,0.9055972033055268,-0.8963861612852122,-0.8788083232111502,1.0290711740212208,-0.9785886061984506,low,low,,ISIC_0982855.JPG,,ISIC_0000398.JPG,28,44,false,0.1,ll,keypress(f),0,true,6190079,6190078.599999905,6183930.5,6184047.599999905,6183947.1,6189985.6,1,40,36,
sequence,flow.Sequence,8_35,2024-03-19T19:19:42.330Z,,,,,,,,,,,6131.499999905005,completion,,,,,,,low,low,,,,,,,false,,,,,true,6190079.5,6190078.599999905,6183930.5,6184047.5,6183947.1,6189985.6,1,40,,
trial,html.Screen,8_36_0,2024-03-19T19:19:49.801Z,,,,2,0.0327772618698018,-0.0056908372048728,,0.04,false,hh,7564.100000048056,response,0.8997449990565672,0.9055972033055268,-0.8963861612852122,0.9792890899144426,1.0290711740212208,-0.9785886061984506,high,high,,ISIC_7897925.JPG,,ISIC_0469314.JPG,28,31,false,0.1,hl,keypress(j),0,true,6197550,6197549.700000048,6189968.6,6190079.799999952,6189985.6,6197458.4,1,40,37,
sequence,flow.Sequence,8_36,2024-03-19T19:19:49.802Z,,,,,,,,,,,7564.100000048056,completion,,,,,,,high,high,,,,,,,false,,,,,true,6197550.400000095,6197549.700000048,6189968.6,6190079.700000048,6189985.6,6197458.4,1,40,,
trial,html.Screen,8_37_0,2024-03-19T19:19:59.227Z,,,,2,-0.0023664502831079,-0.0252784582169994,,0.04,true,hh,9516.500000094995,response,0.8329154010765664,0.9055972033055268,-0.8963861612852122,1.086658647698992,1.0790711740212209,-0.9785886061984506,high,high,,ISIC_4156010.JPG,,ISIC_7407847.JPG,28,28,false,0.1,hh,keypress(i),0,true,6206975.200000048,6206974.900000095,6197441.5,6197550.599999905,6197458.4,6206882.7,1,40,38,
sequence,flow.Sequence,8_37,2024-03-19T19:19:59.227Z,,,,,,,,,,,9516.500000094995,completion,,,,,,,high,high,,,,,,,false,,,,,true,6206975.700000048,6206974.900000095,6197441.5,6197550.5,6197458.4,6206882.7,1,40,,
trial,html.Screen,8_38_0,2024-03-19T19:20:04.506Z,,,,2,-0.00126575685933,-0.0325046559638838,,0.04,false,hh,5371.899999904446,response,0.8229443006010407,0.909787024387779,-0.8963861612852122,1.0222744279054352,1.0790711740212209,-0.9785886061984506,high,high,,ISIC_5682259.JPG,,ISIC_0059257.JPG,28,28,false,0.1,ll,keypress(f),0,true,6212255,6212254.599999905,6206865.8,6206976.099999905,6206882.7,6212153.6,1,40,39,
sequence,flow.Sequence,8_38,2024-03-19T19:20:04.507Z,,,,,,,,,,,5371.899999904446,completion,,,,,,,high,high,,,,,,,false,,,,,true,6212255.599999905,6212254.599999905,6206865.8,6206975.900000095,6206882.7,6212153.6,1,40,,
trial,html.Screen,8_39_0,2024-03-19T19:20:12.683Z,,,,2,-0.0077673378094614,-0.0021810768579373,,0.04,true,lh,8277.400000000373,response,-0.7468996036626098,0.9597870243877791,-0.8963861612852122,1.0079605779898853,1.129071174021221,-0.9785886061984506,low,high,,ISIC_0067621.JPG,,ISIC_5335139.JPG,28,25,false,0.19000000000000006,lh,keypress(e),0,true,6220431.400000095,6220431,6212149.896,6212255.799999952,6212153.6,6220326.9,1,40,40,
sequence,flow.Sequence,8_39,2024-03-19T19:20:12.683Z,,,,,,,,,,,8277.400000000373,completion,,,,,,,low,high,,,,,,,false,,,,,true,6220431.900000095,6220431,6212149.896,6212255.799999952,6212153.6,6220326.9,1,40,,
stair_loop,flow.Loop,8,2024-03-19T19:20:12.684Z,,,,,,,,,,,324771.5999999996,completion,,,,,,,,,,,,,,,false,,,,,true,6220432.299999952,6220431,5895642.728,5895741.299999952,5895659.4,6220326.9,1,40,,
exp_instructions,html.Screen,9,2024-03-19T19:20:28.442Z,,,,,,,,,,,15862.69999990426,response,,,,,,,,,,,,,,,,,continue,keypress(Space),,,6236190.700000048,6236189.599999905,6220320.98,6220432.400000095,6220326.9,6236090,,,,
trial,html.Screen,10_0_0,2024-03-19T19:20:41.297Z,,,,1,-0.0050679133050021,-0.0174815595031679,,0.04,false,ll,12954.900000095367,response,-0.913652449364318,0.9613089494653089,-0.9563861612852118,-0.9917659814487484,1.1086186206948818,-1.009817750478817,low,low,,ISIC_9848743.JPG,9,ISIC_0032233.JPG,28,43,false,0.1,lh,keypress(e),0,false,6249045.099999905,6249044.900000095,6236089.212,6236191.099999905,6236090,6248950.7,5,600,1,
break,html.Screen,10_0_1,2024-03-19T19:20:41.297Z,,,,,,,,,,,NaN,,,,,,,,low,low,,,,,,,false,,,,,false,6249045.5,6249045.5,,6249045.200000048,,6248950.7,5,600,,
break_continue,html.Screen,10_0_2,2024-03-19T19:20:41.297Z,,,,,,,,,,,NaN,,,,,,,,low,low,,,,,,,false,,,,,false,6249045.900000095,6249045.799999952,,6249045.599999905,,6248950.7,5,600,,
sequence,flow.Sequence,10_0,2024-03-19T19:20:41.297Z,,,,,,,,,,,12955.799999952316,completion,,,,,,,low,low,,,,,,,false,,,,,false,6249046,6249045.799999952,6236089.212,6236191.099999905,6236090,6248950.7,5,600,,
trial,html.Screen,10_1_0,2024-03-19T19:20:51.867Z,,,,1,-0.0377791839943904,0.0227626648172468,,0.04,false,hl,10663.899999904446,response,0.8644465729542988,0.9613089494653089,-0.9563861612852118,-0.8679598285079457,1.1086186206948818,-1.009817750478817,high,low,,ISIC_7167479.JPG,8,ISIC_6718969.JPG,28,25,false,0.19000000000000006,ll,keypress(f),0,false,6259615,6259614.599999905,6248940.526,6249046,6248950.7,6259509.4,5,600,2,
break,html.Screen,10_1_1,2024-03-19T19:20:51.869Z,,,,,,,,,,,NaN,,,,,,,,high,low,,,,,,,false,,,,,false,6259616.599999905,6259616,,6259615.400000095,,6259509.4,5,600,,
break_continue,html.Screen,10_1_2,2024-03-19T19:20:51.870Z,,,,,,,,,,,NaN,,,,,,,,high,low,,,,,,,false,,,,,false,6259617.599999905,6259617.299999952,,6259617,,6259509.4,5,600,,
sequence,flow.Sequence,10_1,2024-03-19T19:20:51.870Z,,,,,,,,,,,10666.59999995213,completion,,,,,,,high,low,,,,,,,false,,,,,false,6259617.900000095,6259617.299999952,6248940.526,6249046,6248950.7,6259509.4,5,600,,
trial,html.Screen,10_2_0,2024-03-19T19:21:02.267Z,,,,1,-0.0399381815506136,-0.0177751789152893,,0.04,true,hl,10505.300000047311,response,0.849847885203758,0.9613089494653089,-0.9563861612852118,-0.973447384095442,1.1086186206948818,-1.009817750478817,high,low,,ISIC_3981425.JPG,9,ISIC_9612228.JPG,28,25,false,0.19000000000000006,hl,keypress(j),0,false,6270015.099999905,6270014.700000048,6259508.944,6259618.200000048,6259509.4,6269917.9,5,600,3,
break,html.Screen,10_2_1,2024-03-19T19:21:02.269Z,,,,,,,,,,,NaN,,,,,,,,high,low,,,,,,,false,,,,,false,6270016.5,6270016.200000048,,6270015.5,,6269917.9,5,600,,
break_continue,html.Screen,10_2_2,2024-03-19T19:21:02.269Z,,,,,,,,,,,NaN,,,,,,,,high,low,,,,,,,false,,,,,false,6270017.400000095,6270017.099999905,,6270016.799999952,,6269917.9,5,600,,
sequence,flow.Sequence,10_2,2024-03-19T19:21:02.270Z,,,,,,,,,,,10507.69999990426,completion,,,,,,,high,low,,,,,,,false,,,,,false,6270017.599999905,6270017.099999905,6259508.944,6259618.099999905,6259509.4,6269917.9,5,600,,
trial,html.Screen,10_3_0,2024-03-19T19:21:08.187Z,,,,1,0.0361875505619981,-0.0291457404567876,,0.04,false,hl,6016.5999999996275,response,0.8644465729542988,0.9613089494653089,-0.9563861612852118,-0.8679598285079457,1.1086186206948818,-1.009817750478817,high,low,,ISIC_0027480.JPG,9,ISIC_6718969.JPG,28,25,false,0.19000000000000006,hh,keypress(i),0,false,6275934.900000095,6275934.5,6269901.6,6270017.799999952,6269917.9,6275839.5,5,600,4,
break,html.Screen,10_3_1,2024-03-19T19:21:08.189Z,,,,,,,,,,,NaN,,,,,,,,high,low,,,,,,,false,,,,,false,6275936.400000095,6275935.900000095,,6275935.299999952,,6275839.5,5,600,,
break_continue,html.Screen,10_3_2,2024-03-19T19:21:08.190Z,,,,,,,,,,,NaN,,,,,,,,high,low,,,,,,,false,,,,,false,6275937.5,6275937.099999905,,6275936.700000048,,6275839.5,5,600,,
sequence,flow.Sequence,10_3,2024-03-19T19:21:08.190Z,,,,,,,,,,,6019.19999990426,completion,,,,,,,high,low,,,,,,,false,,,,,false,6275937.799999952,6275937.099999905,6269901.6,6270017.799999952,6269917.9,6275839.5,5,600,,
trial,html.Screen,10_4_0,2024-03-19T19:21:14.587Z,,,,1,0.0365981355399771,0.0162670920008846,,0.04,false,hl,6495.200000047684,response,0.8069562753553525,0.9613089494653089,-0.9563861612852118,-0.9101764190105358,1.1086186206948818,-1.009817750478817,high,low,,ISIC_0982855.JPG,8,ISIC_0046596.JPG,28,25,false,0.19000000000000006,ll,keypress(f),0,false,6282335,6282334.700000048,6275835.37,6275938,6275839.5,6282228.2,5,600,5,
break,html.Screen,10_4_1,2024-03-19T19:21:14.589Z,,,,,,,,,,,NaN,,,,,,,,high,low,,,,,,,false,,,,,false,6282336.5,6282336.200000048,,6282335.599999905,,6282228.2,5,600,,
break_continue,html.Screen,10_4_2,2024-03-19T19:21:14.589Z,,,,,,,,,,,NaN,,,,,,,,high,low,,,,,,,false,,,,,false,6282337.299999952,6282337.099999905,,6282336.799999952,,6282228.2,5,600,,
sequence,flow.Sequence,10_4,2024-03-19T19:21:14.590Z,,,,,,,,,,,6497.599999904633,completion,,,,,,,high,low,,,,,,,false,,,,,false,6282337.700000048,6282337.099999905,6275835.37,6275937.900000095,6275839.5,6282228.2,5,600,,
trial,html.Screen,10_5_0,2024-03-19T19:21:26.171Z,,,,1,-0.012810673904807,0.00400964452501,,0.04,true,lh,11690.299999999814,response,-0.9670240379618178,0.9613089494653089,-0.9563861612852118,1.1806404773220665,1.1086186206948818,-1.009817750478817,low,high,,ISIC_0064656.JPG,9,ISIC_0002288.JPG,28,25,false,0.19000000000000006,lh,keypress(e),0,false,6293918.799999952,6293918.5,6282226.34,6282337.900000095,6282228.2,6293821,5,600,6,
break,html.Screen,10_5_1,2024-03-19T19:21:26.172Z,,,,,,,,,,,NaN,,,,,,,,low,high,,,,,,,false,,,,,false,6293920.299999952,6293920,,6293919.299999952,,6293821,5,600,,
break_continue,html.Screen,10_5_2,2024-03-19T19:21:26.173Z,,,,,,,,,,,NaN,,,,,,,,low,high,,,,,,,false,,,,,false,6293921.099999905,6293920.799999952,,6293920.5,,6293821,5,600,,
sequence,flow.Sequence,10_5,2024-03-19T19:21:26.174Z,,,,,,,,,,,11692.59999995213,completion,,,,,,,low,high,,,,,,,false,,,,,false,6293921.5,6293920.799999952,6282226.34,6282337.799999952,6282228.2,6293821,5,600,,
trial,html.Screen,10_6_0,2024-03-19T19:21:30.811Z,,,,1,0.0086413421586899,0.0360184993500958,,0.04,true,ll,4737.400000095367,response,-0.968832577506943,0.9613089494653089,-0.9563861612852118,-1.068698723750748,1.1086186206948818,-1.009817750478817,low,low,,ISIC_0010767.JPG,9,ISIC_0010962.JPG,28,43,false,0.1,ll,keypress(f),0,false,6298558.900000095,6298558.400000095,6293804.6,6293921.700000048,6293821,6298458.1,5,600,7,
break,html.Screen,10_6_1,2024-03-19T19:21:30.812Z,,,,,,,,,,,NaN,,,,,,,,low,low,,,,,,,false,,,,,false,6298560.200000048,6298559.900000095,,6298559.200000048,,6298458.1,5,600,,
break_continue,html.Screen,10_6_2,2024-03-19T19:21:30.813Z,,,,,,,,,,,NaN,,,,,,,,low,low,,,,,,,false,,,,,false,6298561.099999905,6298560.700000048,,6298560.5,,6298458.1,5,600,,
sequence,flow.Sequence,10_6,2024-03-19T19:21:30.813Z,,,,,,,,,,,4739.700000047684,completion,,,,,,,low,low,,,,,,,false,,,,,false,6298561.299999952,6298560.700000048,6293804.6,6293921.599999905,6293821,6298458.1,5,600,,
trial,html.Screen,10_7_0,2024-03-19T19:21:39.465Z,,,,1,-0.0060918352854008,0.029032683404407,,0.04,false,hl,8754.80000009574,response,0.8779374983479176,0.9613089494653089,-0.9563861612852118,-0.9745548032823428,1.1086186206948818,-1.009817750478817,high,low,,ISIC_8436194.JPG,8,ISIC_2991354.JPG,28,25,false,0.19000000000000006,hh,keypress(i),0,false,6307213,6307212.900000095,6298455.288,6298561.599999905,6298458.1,6307115.5,5,600,8,
break,html.Screen,10_7_1,2024-03-19T19:21:39.466Z,,,,,,,,,,,NaN,,,,,,,,high,low,,,,,,,false,,,,,false,6307213.400000095,6307213.400000095,,6307213.099999905,,6307115.5,5,600,,
break_continue,html.Screen,10_7_2,2024-03-19T19:21:39.466Z,,,,,,,,,,,NaN,,,,,,,,high,low,,,,,,,false,,,,,false,6307213.599999905,6307213.599999905,,6307213.5,,6307115.5,5,600,,
sequence,flow.Sequence,10_7,2024-03-19T19:21:39.466Z,,,,,,,,,,,8755.499999905005,completion,,,,,,,high,low,,,,,,,false,,,,,false,6307213.700000048,6307213.599999905,6298455.288,6298561.5,6298458.1,6307115.5,5,600,,
trial,html.Screen,10_8_0,2024-03-19T19:21:46.748Z,,,,1,0.0361875505619981,-0.0291457404567876,,0.04,true,hh,7379.099999904633,response,0.8966918590347848,0.9613089494653089,-0.9563861612852118,1.078424090533439,1.1086186206948818,-1.009817750478817,high,high,,ISIC_0027480.JPG,10,ISIC_0034193.JPG,28,28,false,0.11,hh,keypress(i),0,false,6314495,6314494.599999905,6307098.9,6307213.700000048,6307115.5,6314388,5,600,9,
break,html.Screen,10_8_1,2024-03-19T19:21:46.749Z,,,,,,,,,,,NaN,,,,,,,,high,high,,,,,,,false,,,,,false,6314496.400000095,6314496,,6314495.400000095,,6314388,5,600,,
break_continue,html.Screen,10_8_2,2024-03-19T19:21:46.750Z,,,,,,,,,,,NaN,,,,,,,,high,high,,,,,,,false,,,,,false,6314497.299999952,6314497,,6314496.700000048,,6314388,5,600,,
sequence,flow.Sequence,10_8,2024-03-19T19:21:46.750Z,,,,,,,,,,,7381.5,completion,,,,,,,high,high,,,,,,,false,,,,,false,6314497.599999905,6314497,6307098.9,6307213.700000048,6307115.5,6314388,5,600,,
trial,html.Screen,10_9_0,2024-03-19T19:21:53.436Z,,,,1,0.0365981355399771,0.0162670920008846,,0.04,false,lh,6794.799999952316,response,-0.8688859182707874,0.9613089494653089,-0.9563861612852118,0.9566733172438716,1.1086186206948818,-1.009817750478817,low,high,,ISIC_0982855.JPG,9,ISIC_0640770.JPG,28,25,false,0.19000000000000006,ll,keypress(f),0,false,6321183.200000048,6321182.799999952,6314383.162,6314497.900000095,6314388,6321076.9,5,600,10,
break,html.Screen,10_9_1,2024-03-19T19:21:53.437Z,,,,,,,,,,,NaN,,,,,,,,low,high,,,,,,,false,,,,,false,6321184.799999952,6321184.299999952,,6321183.599999905,,6321076.9,5,600,,
break_continue,html.Screen,10_9_2,2024-03-19T19:21:53.438Z,,,,,,,,,,,NaN,,,,,,,,low,high,,,,,,,false,,,,,false,6321185.599999905,6321185.299999952,,6321185,,6321076.9,5,600,,
sequence,flow.Sequence,10_9,2024-03-19T19:21:53.439Z,,,,,,,,,,,6797.299999952316,completion,,,,,,,low,high,,,,,,,false,,,,,false,6321185.900000095,6321185.299999952,6314383.162,6314497.900000095,6314388,6321076.9,5,600,,
trial,html.Screen,10_10_0,2024-03-19T19:22:03.915Z,,,,1,0.0063515208248796,0.0194177605767913,,0.04,true,hl,10585.399999951944,response,0.9039158082670506,0.9613089494653089,-0.9563861612852118,-1.0517562064343149,1.1086186206948818,-1.009817750478817,high,low,,ISIC_5281908.JPG,9,ISIC_0015411.JPG,28,25,false,0.19000000000000006,hl,keypress(j),0,false,6331662.700000048,6331662.299999952,6321073.774,6321186.200000048,6321076.9,6331569,5,600,11,
break,html.Screen,10_10_1,2024-03-19T19:22:03.917Z,,,,,,,,,,,NaN,,,,,,,,high,low,,,,,,,false,,,,,false,6331664.099999905,6331663.799999952,,6331663.099999905,,6331569,5,600,,
break_continue,html.Screen,10_10_2,2024-03-19T19:22:03.918Z,,,,,,,,,,,NaN,,,,,,,,high,low,,,,,,,false,,,,,false,6331665.099999905,6331664.900000095,,6331664.400000095,,6331569,5,600,,
sequence,flow.Sequence,10_10,2024-03-19T19:22:03.918Z,,,,,,,,,,,10588.000000094995,completion,,,,,,,high,low,,,,,,,false,,,,,false,6331665.400000095,6331664.900000095,6321073.774,6321186.200000048,6321076.9,6331569,5,600,,
trial,html.Screen,10_11_0,2024-03-19T19:22:12.635Z,,,,1,0.0127320821962457,-0.0315308940184827,,0.04,true,ll,8813.200000047684,response,-0.9210502980092926,0.9613089494653089,-0.9563861612852118,-0.9643734217956152,1.1086186206948818,-1.009817750478817,low,low,,ISIC_8156101.JPG,8,ISIC_0033876.JPG,28,43,false,0.1,ll,keypress(f),0,false,6340382.700000048,6340382.200000048,6331552.4,6331665.700000048,6331569,6340276,5,600,12,
break,html.Screen,10_11_1,2024-03-19T19:22:12.637Z,,,,,,,,,,,NaN,,,,,,,,low,low,,,,,,,false,,,,,false,6340384.299999952,6340383.799999952,,6340383.099999905,,6340276,5,600,,
break_continue,html.Screen,10_11_2,2024-03-19T19:22:12.638Z,,,,,,,,,,,NaN,,,,,,,,low,low,,,,,,,false,,,,,false,6340385.299999952,6340385,,6340384.5,,6340276,5,600,,
sequence,flow.Sequence,10_11,2024-03-19T19:22:12.638Z,,,,,,,,,,,8816,completion,,,,,,,low,low,,,,,,,false,,,,,false,6340385.599999905,6340385,6331552.4,6331665.599999905,6331569,6340276,5,600,,
trial,html.Screen,10_12_0,2024-03-19T19:22:17.628Z,,,,1,0.0086413421586899,0.0360184993500958,,0.04,true,ll,5099.299999952316,response,-0.9106525024234248,0.9613089494653089,-0.9563861612852118,-1.0361692964751965,1.1086186206948818,-1.009817750478817,low,low,,ISIC_0010767.JPG,8,ISIC_0058676.JPG,28,43,false,0.1,ll,keypress(f),0,false,6345375.700000048,6345375.299999952,6340269.492,6340385.900000095,6340276,6345280.2,5,600,13,
break,html.Screen,10_12_1,2024-03-19T19:22:17.630Z,,,,,,,,,,,NaN,,,,,,,,low,low,,,,,,,false,,,,,false,6345377.299999952,6345376.900000095,,6345376.299999952,,6345280.2,5,600,,
break_continue,html.Screen,10_12_2,2024-03-19T19:22:17.631Z,,,,,,,,,,,NaN,,,,,,,,low,low,,,,,,,false,,,,,false,6345378.099999905,6345377.799999952,,6345377.5,,6345280.2,5,600,,
sequence,flow.Sequence,10_12,2024-03-19T19:22:17.631Z,,,,,,,,,,,5101.799999952316,completion,,,,,,,low,low,,,,,,,false,,,,,false,6345378.299999952,6345377.799999952,6340269.492,6340385.799999952,6340276,6345280.2,5,600,,
trial,html.Screen,10_13_0,2024-03-19T19:22:24.217Z,,,,1,-0.0350697500805515,-0.0166617848231997,,0.04,true,ll,6684.09999995213,response,-0.968832577506943,0.9613089494653089,-0.9563861612852118,-1.068698723750748,1.1086186206948818,-1.009817750478817,low,low,,ISIC_0024423.JPG,9,ISIC_0010962.JPG,28,43,false,0.1,ll,keypress(f),0,false,6351964.400000095,6351964.299999952,6345263.6,6345378.400000095,6345280.2,6351868.9,5,600,14,
break,html.Screen,10_13_1,2024-03-19T19:22:24.217Z,,,,,,,,,,,NaN,,,,,,,,low,low,,,,,,,false,,,,,false,6351964.700000048,6351964.700000048,,6351964.5,,6351868.9,5,600,,
break_continue,html.Screen,10_13_2,2024-03-19T19:22:24.218Z,,,,,,,,,,,NaN,,,,,,,,low,low,,,,,,,false,,,,,false,6351965,6351964.900000095,,6351964.900000095,,6351868.9,5,600,,
sequence,flow.Sequence,10_13,2024-03-19T19:22:24.218Z,,,,,,,,,,,6684.700000095181,completion,,,,,,,low,low,,,,,,,false,,,,,false,6351965.099999905,6351964.900000095,6345263.6,6345378.400000095,6345280.2,6351868.9,5,600,,
trial,html.Screen,10_14_0,2024-03-19T19:22:32.380Z,,,,1,-0.0050679133050021,-0.0174815595031679,,0.04,false,ll,8258.500000094995,response,-1.0103956367534752,0.9613089494653089,-0.9563861612852118,-0.9950817758087226,1.1086186206948818,-1.009817750478817,low,low,,ISIC_9848743.JPG,9,ISIC_0025267.JPG,28,43,false,0.1,hl,keypress(j),0,false,6360127.700000048,6360127.400000095,6351852.3,6351965.099999905,6351868.9,6360025.6,5,600,15,
break,html.Screen,10_14_1,2024-03-19T19:22:32.382Z,,,,,,,,,,,NaN,,,,,,,,low,low,,,,,,,false,,,,,false,6360129.400000095,6360129,,6360128.200000048,,6360025.6,5,600,,
break_continue,html.Screen,10_14_2,2024-03-19T19:22:32.383Z,,,,,,,,,,,NaN,,,,,,,,low,low,,,,,,,false,,,,,false,6360130.299999952,6360130,,6360129.700000048,,6360025.6,5,600,,
sequence,flow.Sequence,10_14,2024-03-19T19:22:32.383Z,,,,,,,,,,,8261.099999999627,completion,,,,,,,low,low,,,,,,,false,,,,,false,6360130.599999905,6360130,6351852.3,6351965.099999905,6351868.9,6360025.6,5,600,,
trial,html.Screen,10_15_0,2024-03-19T19:22:45.533Z,,,,1,0.010035581303589,-0.0100711721396864,,0.04,false,ll,13253.30000009574,response,-0.8627799752848101,0.9613089494653089,-0.9563861612852118,-0.9479141048747124,1.1086186206948818,-1.009817750478817,low,low,,ISIC_0030592.JPG,9,ISIC_9615486.JPG,28,43,false,0.1,lh,keypress(e),0,false,6373279.299999952,6373278.900000095,6360021.876,6360131,6360025.6,6373186.8,5,600,16,
break,html.Screen,10_15_1,2024-03-19T19:22:45.534Z,,,,,,,,,,,NaN,,,,,,,,low,low,,,,,,,false,,,,,false,6373280.799999952,6373280.400000095,,6373279.900000095,,6373186.8,5,600,,
break_continue,html.Screen,10_15_2,2024-03-19T19:22:45.535Z,,,,,,,,,,,NaN,,,,,,,,low,low,,,,,,,false,,,,,false,6373281.599999905,6373281.299999952,,6373281.099999905,,6373186.8,5,600,,
sequence,flow.Sequence,10_15,2024-03-19T19:22:45.535Z,,,,,,,,,,,13255.699999952689,completion,,,,,,,low,low,,,,,,,false,,,,,false,6373281.900000095,6373281.299999952,6360021.876,6360130.900000095,6360025.6,6373186.8,5,600,,
trial,html.Screen,10_16_0,2024-03-19T19:22:51.227Z,,,,1,0.0199897690678184,0.0312486875504497,,0.04,true,hh,5786.700000000186,response,0.8719826114571525,0.9613089494653089,-0.9563861612852118,1.2016542336356246,1.1086186206948818,-1.009817750478817,high,high,,ISIC_5482426.JPG,10,ISIC_0002622.JPG,28,28,false,0.11,hh,keypress(i),0,false,6378973.700000048,6378973.5,6373170,6373282.200000048,6373186.8,6378874.6,5,600,17,
break,html.Screen,10_16_1,2024-03-19T19:22:51.228Z,,,,,,,,,,,NaN,,,,,,,,high,high,,,,,,,false,,,,,false,6378974.900000095,6378974.5,,6378974.200000048,,6378874.6,5,600,,
break_continue,html.Screen,10_16_2,2024-03-19T19:22:51.229Z,,,,,,,,,,,NaN,,,,,,,,high,high,,,,,,,false,,,,,false,6378975.400000095,6378975.200000048,,6378975,,6378874.6,5,600,,
sequence,flow.Sequence,10_16,2024-03-19T19:22:51.229Z,,,,,,,,,,,5788.40000004787,completion,,,,,,,high,high,,,,,,,false,,,,,false,6378975.599999905,6378975.200000048,6373170,6373282.099999905,6373186.8,6378874.6,5,600,,
trial,html.Screen,10_17_0,2024-03-19T19:22:55.644Z,,,,1,0.0367218428225813,-0.0026956749740767,,0.04,true,hh,4515.80000009574,response,0.9191486333136276,0.9613089494653089,-0.9563861612852118,1.080719641270871,1.1086186206948818,-1.009817750478817,high,high,,ISIC_7212271.JPG,8,ISIC_0663941.JPG,28,28,false,0.11,hh,keypress(i),0,false,6383390.799999952,6383390.400000095,6378870.312,6378975.799999952,6378874.6,6383294.862,5,600,18,
break,html.Screen,10_17_1,2024-03-19T19:22:55.645Z,,,,,,,,,,,NaN,,,,,,,,high,high,,,,,,,false,,,,,false,6383392.099999905,6383391.700000048,,6383391.200000048,,6383294.862,5,600,,
break_continue,html.Screen,10_17_2,2024-03-19T19:22:55.646Z,,,,,,,,,,,NaN,,,,,,,,high,high,,,,,,,false,,,,,false,6383392.799999952,6383392.599999905,,6383392.299999952,,6383294.862,5,600,,
sequence,flow.Sequence,10_17,2024-03-19T19:22:55.646Z,,,,,,,,,,,4517.999999905005,completion,,,,,,,high,high,,,,,,,false,,,,,false,6383393.099999905,6383392.599999905,6378870.312,6378975.700000048,6378874.6,6383294.862,5,600,,
trial,html.Screen,10_18_0,2024-03-19T19:23:02.220Z,,,,1,0.0127320821962457,-0.0315308940184827,,0.04,false,lh,6671.237999904901,response,-0.9046170303418553,0.9613089494653089,-0.9563861612852118,1.0063426986460375,1.1086186206948818,-1.009817750478817,low,high,,ISIC_8156101.JPG,9,ISIC_0055759.JPG,28,25,false,0.19000000000000006,ll,keypress(f),0,false,6389966.400000095,6389966.099999905,6383294.862,6383393.200000048,6383294.862,6389866.9,5,600,19,
break,html.Screen,10_18_1,2024-03-19T19:23:02.221Z,,,,,,,,,,,NaN,,,,,,,,low,high,,,,,,,false,,,,,false,6389967.799999952,6389967.5,,6389966.900000095,,6389866.9,5,600,,
break_continue,html.Screen,10_18_2,2024-03-19T19:23:02.222Z,,,,,,,,,,,NaN,,,,,,,,low,high,,,,,,,false,,,,,false,6389968.599999905,6389968.400000095,,6389968.099999905,,6389866.9,5,600,,
sequence,flow.Sequence,10_18,2024-03-19T19:23:02.222Z,,,,,,,,,,,6673.538000095636,completion,,,,,,,low,high,,,,,,,false,,,,,false,6389969,6389968.400000095,6383294.862,6383393.200000048,6383294.862,6389866.9,5,600,,
trial,html.Screen,10_19_0,2024-03-19T19:23:14.604Z,,,,1,0.0086413421586899,0.0360184993500958,,0.04,true,hh,12483.800000047311,response,0.9584046290108544,0.9613089494653089,-0.9563861612852118,1.2089382903602173,1.1086186206948818,-1.009817750478817,high,high,,ISIC_0010767.JPG,9,ISIC_4874581.JPG,28,28,false,0.11,hh,keypress(i),0,false,6402351.099999905,6402350.700000048,6389850.5,6389969.099999905,6389866.9,6402243.9,5,600,20,
break,html.Screen,10_19_1,2024-03-19T19:23:14.606Z,,,,,,,,,,,NaN,,,,,,,,high,high,,,,,,,false,,,,,false,6402352.5,6402352.099999905,,6402351.5,,6402243.9,5,600,,
break_continue,html.Screen,10_19_2,2024-03-19T19:23:14.607Z,,,,,,,,,,,NaN,,,,,,,,high,high,,,,,,,false,,,,,false,6402353.400000095,6402353.099999905,,6402352.799999952,,6402243.9,5,600,,
sequence,flow.Sequence,10_19,2024-03-19T19:23:14.607Z,,,,,,,,,,,12486.19999990426,completion,,,,,,,high,high,,,,,,,false,,,,,false,6402353.700000048,6402353.099999905,6389850.5,6389969.099999905,6389866.9,6402243.9,5,600,,
trial,html.Screen,10_20_0,2024-03-19T19:23:25.068Z,,,,1,-0.0350697500805515,-0.0166617848231997,,0.04,true,ll,10570.800000047311,response,-1.033120591224746,0.9613089494653089,-0.9563861612852118,-0.9169816067930722,1.1086186206948818,-1.009817750478817,low,low,,ISIC_0024423.JPG,9,ISIC_0033027.JPG,28,43,false,0.1,ll,keypress(f),0,false,6412815.099999905,6412814.700000048,6402242.004,6402354,6402243.9,6412719.5,5,600,21,
break,html.Screen,10_20_1,2024-03-19T19:23:25.070Z,,,,,,,,,,,NaN,,,,,,,,low,low,,,,,,,false,,,,,false,6412816.599999905,6412816.099999905,,6412815.599999905,,6412719.5,5,600,,
break_continue,html.Screen,10_20_2,2024-03-19T19:23:25.071Z,,,,,,,,,,,NaN,,,,,,,,low,low,,,,,,,false,,,,,false,6412817.5,6412817.200000048,,6412816.799999952,,6412719.5,5,600,,
sequence,flow.Sequence,10_20,2024-03-19T19:23:25.071Z,,,,,,,,,,,10573.300000047311,completion,,,,,,,low,low,,,,,,,false,,,,,false,6412817.700000048,6412817.200000048,6402242.004,6402353.900000095,6402243.9,6412719.5,5,600,,
trial,html.Screen,10_21_0,2024-03-19T19:23:38.652Z,,,,1,0.0127320821962457,-0.0315308940184827,,0.04,false,ll,13678.799999952316,response,-1.0011647073734584,0.9613089494653089,-0.9563861612852118,-1.090690958018423,1.1086186206948818,-1.009817750478817,low,low,,ISIC_8156101.JPG,8,ISIC_0021901.JPG,28,43,false,0.1,lh,keypress(e),0,false,6426398.599999905,6426398.299999952,6412702.7,6412818,6412719.5,6426297.1,5,600,22,
break,html.Screen,10_21_1,2024-03-19T19:23:38.653Z,,,,,,,,,,,NaN,,,,,,,,low,low,,,,,,,false,,,,,false,6426399.900000095,6426399.599999905,,6426399,,6426297.1,5,600,,
break_continue,html.Screen,10_21_2,2024-03-19T19:23:38.654Z,,,,,,,,,,,NaN,,,,,,,,low,low,,,,,,,false,,,,,false,6426400.599999905,6426400.299999952,,6426400,,6426297.1,5,600,,
sequence,flow.Sequence,10_21,2024-03-19T19:23:38.654Z,,,,,,,,,,,13680.799999952316,completion,,,,,,,low,low,,,,,,,false,,,,,false,6426400.799999952,6426400.299999952,6412702.7,6412817.900000095,6412719.5,6426297.1,5,600,,
trial,html.Screen,10_22_0,2024-03-19T19:23:46.060Z,,,,1,0.010035581303589,-0.0100711721396864,,0.04,true,hh,7508.999999905005,response,0.9949679201447648,0.9613089494653089,-0.9563861612852118,1.0468574143792184,1.1086186206948818,-1.009817750478817,high,high,,ISIC_0030592.JPG,9,ISIC_6640753.JPG,28,28,false,0.11,hh,keypress(i),0,false,6433806.599999905,6433806.099999905,6426294.19,6426401,6426297.1,6433703.2,5,600,23,
break,html.Screen,10_22_1,2024-03-19T19:23:46.061Z,,,,,,,,,,,NaN,,,,,,,,high,high,,,,,,,false,,,,,false,6433807.900000095,6433807.599999905,,6433807,,6433703.2,5,600,,
break_continue,html.Screen,10_22_2,2024-03-19T19:23:46.062Z,,,,,,,,,,,NaN,,,,,,,,high,high,,,,,,,false,,,,,false,6433808.799999952,6433808.5,,6433808.200000048,,6433703.2,5,600,,
sequence,flow.Sequence,10_22,2024-03-19T19:23:46.062Z,,,,,,,,,,,7511.4000000003725,completion,,,,,,,high,high,,,,,,,false,,,,,false,6433809.099999905,6433808.5,6426294.19,6426401,6426297.1,6433703.2,5,600,,
trial,html.Screen,10_23_0,2024-03-19T19:24:00.620Z,,,,1,-0.0377791839943904,0.0227626648172468,,0.04,false,hl,14663.500000047497,response,0.8479396253253069,0.9613089494653089,-0.9563861612852118,-1.011054319516718,1.1086186206948818,-1.009817750478817,high,low,,ISIC_7167479.JPG,10,ISIC_0063521.JPG,28,25,false,0.19000000000000006,lh,keypress(e),0,false,6448367.099999905,6448366.700000048,6433697.844,6433809.299999952,6433703.2,6448265.1,5,600,24,
break,html.Screen,10_23_1,2024-03-19T19:24:00.622Z,,,,,,,,,,,NaN,,,,,,,,high,low,,,,,,,false,,,,,false,6448368.400000095,6448368.099999905,,6448367.5,,6448265.1,5,600,,
break_continue,html.Screen,10_23_2,2024-03-19T19:24:00.623Z,,,,,,,,,,,NaN,,,,,,,,high,low,,,,,,,false,,,,,false,6448369.200000048,6448368.900000095,,6448368.700000048,,6448265.1,5,600,,
sequence,flow.Sequence,10_23,2024-03-19T19:24:00.623Z,,,,,,,,,,,14665.700000095181,completion,,,,,,,high,low,,,,,,,false,,,,,false,6448369.5,6448368.900000095,6433697.844,6433809.200000048,6433703.2,6448265.1,5,600,,
trial,html.Screen,10_24_0,2024-03-19T19:24:10.284Z,,,,1,0.0063515208248796,0.0194177605767913,,0.04,true,hl,9765.499999905005,response,0.9087169856594104,0.9613089494653089,-0.9563861612852118,-0.8835647084207277,1.1086186206948818,-1.009817750478817,high,low,,ISIC_5281908.JPG,8,ISIC_0000349.JPG,28,25,false,0.19000000000000006,hl,keypress(j),0,false,6458031,6458030.599999905,6448261.45,6448369.700000048,6448265.1,6457940.1,5,600,25,
break,html.Screen,10_24_1,2024-03-19T19:24:10.286Z,,,,,,,,,,,NaN,,,,,,,,high,low,,,,,,,false,,,,,false,6458032.400000095,6458032.099999905,,6458031.400000095,,6457940.1,5,600,,
break_continue,html.Screen,10_24_2,2024-03-19T19:24:10.287Z,,,,,,,,,,,NaN,,,,,,,,high,low,,,,,,,false,,,,,false,6458033.400000095,6458033,,6458032.700000048,,6457940.1,5,600,,
sequence,flow.Sequence,10_24,2024-03-19T19:24:10.287Z,,,,,,,,,,,9767.900000000373,completion,,,,,,,high,low,,,,,,,false,,,,,false,6458033.700000048,6458033,6448261.45,6448369.700000048,6448265.1,6457940.1,5,600,,
trial,html.Screen,10_25_0,2024-03-19T19:24:14.652Z,,,,1,0.0051046740562181,-0.0178832721027728,,0.04,true,ll,4458.600000048056,response,-0.9304005163834584,0.9613089494653089,-0.9563861612852118,-0.9903292668457988,1.1086186206948818,-1.009817750478817,low,low,,ISIC_9545819.JPG,8,ISIC_3485482.JPG,28,43,false,0.1,ll,keypress(f),0,false,6462399.200000048,6462398.700000048,6457915.754,6458033.900000095,6457940.1,6462293.5,5,600,26,
break,html.Screen,10_25_1,2024-03-19T19:24:14.654Z,,,,,,,,,,,NaN,,,,,,,,low,low,,,,,,,false,,,,,false,6462400.799999952,6462400.299999952,,6462399.599999905,,6462293.5,5,600,,
break_continue,html.Screen,10_25_2,2024-03-19T19:24:14.655Z,,,,,,,,,,,NaN,,,,,,,,low,low,,,,,,,false,,,,,false,6462401.700000048,6462401.5,,6462401.099999905,,6462293.5,5,600,,
sequence,flow.Sequence,10_25,2024-03-19T19:24:14.655Z,,,,,,,,,,,4461.4000000003725,completion,,,,,,,low,low,,,,,,,false,,,,,false,6462402.099999905,6462401.5,6457915.754,6458033.799999952,6457940.1,6462293.5,5,600,,
trial,html.Screen,10_26_0,2024-03-19T19:24:18.092Z,,,,1,-0.0399381815506136,-0.0177751789152893,,0.04,false,lh,3544.7000000476837,response,-0.9046170303418553,0.9613089494653089,-0.9563861612852118,1.0063426986460375,1.1086186206948818,-1.009817750478817,low,high,,ISIC_3981425.JPG,8,ISIC_0055759.JPG,28,25,false,0.19000000000000006,ll,keypress(f),0,false,6465838.5,6465838.200000048,6462290.732,6462402.299999952,6462293.5,6465746.2,5,600,27,
break,html.Screen,10_26_1,2024-03-19T19:24:18.093Z,,,,,,,,,,,NaN,,,,,,,,low,high,,,,,,,false,,,,,false,6465839.700000048,6465839.5,,6465839,,6465746.2,5,600,,
break_continue,html.Screen,10_26_2,2024-03-19T19:24:18.094Z,,,,,,,,,,,NaN,,,,,,,,low,high,,,,,,,false,,,,,false,6465840.599999905,6465840.299999952,,6465839.900000095,,6465746.2,5,600,,
sequence,flow.Sequence,10_26,2024-03-19T19:24:18.094Z,,,,,,,,,,,3546.7999999523163,completion,,,,,,,low,high,,,,,,,false,,,,,false,6465840.799999952,6465840.299999952,6462290.732,6462402.200000048,6462293.5,6465746.2,5,600,,
trial,html.Screen,10_27_0,2024-03-19T19:24:25.420Z,,,,1,0.0327772618698018,-0.0056908372048728,,0.04,false,hh,7420.200000095181,response,0.9490045439645592,0.9613089494653089,-0.9563861612852118,1.21751560785155,1.1086186206948818,-1.009817750478817,high,high,,ISIC_7897925.JPG,8,ISIC_3779424.JPG,28,28,false,0.11,hl,keypress(j),0,false,6473166.799999952,6473166.400000095,6465729.6,6465841,6465746.2,6473069,5,600,28,
break,html.Screen,10_27_1,2024-03-19T19:24:25.421Z,,,,,,,,,,,NaN,,,,,,,,high,high,,,,,,,false,,,,,false,6473168.099999905,6473167.799999952,,6473167.200000048,,6473069,5,600,,
break_continue,html.Screen,10_27_2,2024-03-19T19:24:25.422Z,,,,,,,,,,,NaN,,,,,,,,high,high,,,,,,,false,,,,,false,6473168.900000095,6473168.700000048,,6473168.400000095,,6473069,5,600,,
sequence,flow.Sequence,10_27,2024-03-19T19:24:25.423Z,,,,,,,,,,,7422.500000047497,completion,,,,,,,high,high,,,,,,,false,,,,,false,6473169.200000048,6473168.700000048,6465729.6,6465841,6465746.2,6473069,5,600,,
trial,html.Screen,10_28_0,2024-03-19T19:24:41.413Z,,,,1,-0.00126575685933,-0.0325046559638838,,0.04,,,16013.299999999814,timeout,1.0581281450494728,0.9613089494653089,-0.9563861612852118,1.133169116569424,1.1086186206948818,-1.009817750478817,high,high,,ISIC_5682259.JPG,9,ISIC_5490352.JPG,28,28,false,0.11,,,0,false,6489159.5,6489159,6473052.5,6473169.5,6473069,6489082.3,5,600,29,
break,html.Screen,10_28_1,2024-03-19T19:24:41.414Z,,,,,,,,,,,NaN,,,,,,,,high,high,,,,,,,false,,,,,false,6489160.599999905,6489160.400000095,,6489159.799999952,,6489082.3,5,600,,
break_continue,html.Screen,10_28_2,2024-03-19T19:24:41.415Z,,,,,,,,,,,NaN,,,,,,,,high,high,,,,,,,false,,,,,false,6489161.200000048,6489161.099999905,,6489160.799999952,,6489082.3,5,600,,
sequence,flow.Sequence,10_28,2024-03-19T19:24:41.415Z,,,,,,,,,,,16092.099999904633,completion,,,,,,,high,high,,,,,,,false,,,,,false,6489161.599999905,6489161.099999905,6473052.5,6473169.400000095,6473069,6489082.3,5,600,,
trial,html.Screen,10_29_0,2024-03-19T19:24:50.890Z,,,,1,0.0051046740562181,-0.0178832721027728,,0.04,false,lh,9554.299999904819,response,-0.8688859182707874,0.9613089494653089,-0.9563861612852118,0.9566733172438716,1.1086186206948818,-1.009817750478817,low,high,,ISIC_9545819.JPG,10,ISIC_0640770.JPG,28,25,false,0.19000000000000006,ll,keypress(f),0,false,6498636.700000048,6498636.599999905,6489065.4,6489161.700000048,6489082.3,6498540,5,600,30,
break,html.Screen,10_29_1,2024-03-19T19:24:50.890Z,,,,,,,,,,,NaN,,,,,,,,low,high,,,,,,,false,,,,,false,6498637.099999905,6498637.099999905,,6498636.799999952,,6498540,5,600,,
break_continue,html.Screen,10_29_2,2024-03-19T19:24:50.891Z,,,,,,,,,,,NaN,,,,,,,,low,high,,,,,,,false,,,,,false,6498637.400000095,6498637.299999952,,6498637.200000048,,6498540,5,600,,
sequence,flow.Sequence,10_29,2024-03-19T19:24:50.891Z,,,,,,,,,,,9554.999999952503,completion,,,,,,,low,high,,,,,,,false,,,,,false,6498637.400000095,6498637.299999952,6489065.4,6489161.700000048,6489082.3,6498540,5,600,,
trial,html.Screen,10_30_0,2024-03-19T19:24:56.668Z,,,,1,-0.0118555311043871,-0.0087774532070196,,0.04,false,hh,5874.400000095367,response,0.9490045439645592,0.9613089494653089,-0.9563861612852118,1.21751560785155,1.1086186206948818,-1.009817750478817,high,high,,ISIC_6488658.JPG,10,ISIC_3779424.JPG,28,28,false,0.11,hl,keypress(j),0,false,6504414.799999952,6504414.400000095,6498523.4,6498637.5,6498540,6504311.4,5,600,31,
break,html.Screen,10_30_1,2024-03-19T19:24:56.669Z,,,,,,,,,,,NaN,,,,,,,,high,high,,,,,,,false,,,,,false,6504416.099999905,6504415.799999952,,6504415.200000048,,6504311.4,5,600,,
break_continue,html.Screen,10_30_2,2024-03-19T19:24:56.670Z,,,,,,,,,,,NaN,,,,,,,,high,high,,,,,,,false,,,,,false,6504416.900000095,6504416.700000048,,6504416.400000095,,6504311.4,5,600,,
sequence,flow.Sequence,10_30,2024-03-19T19:24:56.671Z,,,,,,,,,,,5876.700000047684,completion,,,,,,,high,high,,,,,,,false,,,,,false,6504417.299999952,6504416.700000048,6498523.4,6498637.400000095,6498540,6504311.4,5,600,,
trial,html.Screen,10_31_0,2024-03-19T19:25:01.004Z,,,,1,0.0327772618698018,-0.0056908372048728,,0.04,false,hl,4439.0999999996275,response,0.8923602890201078,0.9613089494653089,-0.9563861612852118,-0.8351700666074688,1.1086186206948818,-1.009817750478817,high,low,,ISIC_7897925.JPG,8,ISIC_0033103.JPG,28,25,false,0.19000000000000006,ll,keypress(f),0,false,6508751,6508750.5,6504307.376,6504417.5,6504311.4,6508648.562,5,600,32,
break,html.Screen,10_31_1,2024-03-19T19:25:01.006Z,,,,,,,,,,,NaN,,,,,,,,high,low,,,,,,,false,,,,,false,6508752.299999952,6508752,,6508751.299999952,,6508648.562,5,600,,
break_continue,html.Screen,10_31_2,2024-03-19T19:25:01.007Z,,,,,,,,,,,NaN,,,,,,,,high,low,,,,,,,false,,,,,false,6508753.200000048,6508753,,6508752.599999905,,6508648.562,5,600,,
sequence,flow.Sequence,10_31,2024-03-19T19:25:01.007Z,,,,,,,,,,,4441.5999999996275,completion,,,,,,,high,low,,,,,,,false,,,,,false,6508753.599999905,6508753,6504307.376,6504417.400000095,6504311.4,6508648.562,5,600,,
trial,html.Screen,10_32_0,2024-03-19T19:25:08.187Z,,,,1,-0.00126575685933,-0.0325046559638838,,0.04,false,hh,7284.638000047766,response,1.004164099430695,0.9613089494653089,-0.9563861612852118,1.0674669038247562,1.1086186206948818,-1.009817750478817,high,high,,ISIC_5682259.JPG,9,ISIC_0541345.JPG,28,28,false,0.11,hl,keypress(j),0,false,6515933.299999952,6515933.200000048,6508648.562,6508753.700000048,6508648.562,6515837.8,5,600,33,
break,html.Screen,10_32_1,2024-03-19T19:25:08.187Z,,,,,,,,,,,NaN,,,,,,,,high,high,,,,,,,false,,,,,false,6515933.700000048,6515933.5,,6515933.400000095,,6515837.8,5,600,,
break_continue,html.Screen,10_32_2,2024-03-19T19:25:08.188Z,,,,,,,,,,,NaN,,,,,,,,high,high,,,,,,,false,,,,,false,6515934.299999952,6515934,,6515933.799999952,,6515837.8,5,600,,
sequence,flow.Sequence,10_32,2024-03-19T19:25:08.188Z,,,,,,,,,,,7285.438000000082,completion,,,,,,,high,high,,,,,,,false,,,,,false,6515934.400000095,6515934,6508648.562,6508753.700000048,6508648.562,6515837.8,5,600,,
trial,html.Screen,10_33_0,2024-03-19T19:25:12.394Z,,,,1,0.0361875505619981,-0.0291457404567876,,0.04,true,hh,4303.100000095554,response,1.0064329161780483,0.9613089494653089,-0.9563861612852118,1.0631481857644678,1.1086186206948818,-1.009817750478817,high,high,,ISIC_0027480.JPG,9,ISIC_0033137.JPG,28,28,false,0.11,hh,keypress(i),0,false,6520141,6520140.900000095,6515821.1,6515934.5,6515837.8,6520041,5,600,34,
break,html.Screen,10_33_1,2024-03-19T19:25:12.395Z,,,,,,,,,,,NaN,,,,,,,,high,high,,,,,,,false,,,,,false,6520141.700000048,6520141.5,,6520141.200000048,,6520041,5,600,,
break_continue,html.Screen,10_33_2,2024-03-19T19:25:12.395Z,,,,,,,,,,,NaN,,,,,,,,high,high,,,,,,,false,,,,,false,6520142,6520142,,6520141.799999952,,6520041,5,600,,
sequence,flow.Sequence,10_33,2024-03-19T19:25:12.395Z,,,,,,,,,,,4304.200000000186,completion,,,,,,,high,high,,,,,,,false,,,,,false,6520142.200000048,6520142,6515821.1,6515934.5,6515837.8,6520041,5,600,,
trial,html.Screen,10_34_0,2024-03-19T19:25:23.948Z,,,,1,0.0367218428225813,-0.0026956749740767,,0.04,false,hl,11653.599999904633,response,0.8150886811691144,0.9613089494653089,-0.9563861612852118,-0.862416038462147,1.1086186206948818,-1.009817750478817,high,low,,ISIC_7212271.JPG,9,ISIC_0058079.JPG,28,25,false,0.19000000000000006,lh,keypress(e),0,false,6531695,6531694.599999905,6520040.144,6520142.299999952,6520041,6531600.6,5,600,35,
break,html.Screen,10_34_1,2024-03-19T19:25:23.950Z,,,,,,,,,,,NaN,,,,,,,,high,low,,,,,,,false,,,,,false,6531696.5,6531696.099999905,,6531695.400000095,,6531600.6,5,600,,
break_continue,html.Screen,10_34_2,2024-03-19T19:25:23.951Z,,,,,,,,,,,NaN,,,,,,,,high,low,,,,,,,false,,,,,false,6531697.5,6531697.200000048,,6531696.799999952,,6531600.6,5,600,,
sequence,flow.Sequence,10_34,2024-03-19T19:25:23.951Z,,,,,,,,,,,11656.200000047684,completion,,,,,,,high,low,,,,,,,false,,,,,false,6531697.799999952,6531697.200000048,6520040.144,6520142.200000048,6520041,6531600.6,5,600,,
trial,html.Screen,10_35_0,2024-03-19T19:25:28.732Z,,,,1,-0.0060934073440827,-0.0279108145883031,,0.04,true,lh,4877.600000048056,response,-0.9225524349657857,0.9613089494653089,-0.9563861612852118,0.929746784178986,1.1086186206948818,-1.009817750478817,low,high,,ISIC_0032604.JPG,9,ISIC_0011077.JPG,28,25,false,0.19000000000000006,lh,keypress(e),0,false,6536478.599999905,6536478.200000048,6531599.47,6531698.099999905,6531600.6,6536389,5,600,36,
break,html.Screen,10_35_1,2024-03-19T19:25:28.733Z,,,,,,,,,,,NaN,,,,,,,,low,high,,,,,,,false,,,,,false,6536479.900000095,6536479.700000048,,6536479.099999905,,6536389,5,600,,
break_continue,html.Screen,10_35_2,2024-03-19T19:25:28.734Z,,,,,,,,,,,NaN,,,,,,,,low,high,,,,,,,false,,,,,false,6536480.599999905,6536480.400000095,,6536480.099999905,,6536389,5,600,,
sequence,flow.Sequence,10_35,2024-03-19T19:25:28.734Z,,,,,,,,,,,4879.80000009574,completion,,,,,,,low,high,,,,,,,false,,,,,false,6536480.900000095,6536480.400000095,6531599.47,6531698,6531600.6,6536389,5,600,,
trial,html.Screen,10_36_0,2024-03-19T19:25:33.373Z,,,,1,0.0189295602385628,0.0128812415435153,,0.04,true,ll,4730.099999904633,response,-0.9304005163834584,0.9613089494653089,-0.9563861612852118,-0.9903292668457988,1.1086186206948818,-1.009817750478817,low,low,,ISIC_0010372.JPG,10,ISIC_3485482.JPG,28,43,false,0.1,ll,keypress(f),0,false,6541119.599999905,6541119.099999905,6536368.216,6536481.099999905,6536389,6541025,5,600,37,
break,html.Screen,10_36_1,2024-03-19T19:25:33.375Z,,,,,,,,,,,NaN,,,,,,,,low,low,,,,,,,false,,,,,false,6541121.299999952,6541120.799999952,,6541120.099999905,,6541025,5,600,,
break_continue,html.Screen,10_36_2,2024-03-19T19:25:33.376Z,,,,,,,,,,,NaN,,,,,,,,low,low,,,,,,,false,,,,,false,6541122.400000095,6541122.099999905,,6541121.700000048,,6541025,5,600,,
sequence,flow.Sequence,10_36,2024-03-19T19:25:33.376Z,,,,,,,,,,,4733.099999904633,completion,,,,,,,low,low,,,,,,,false,,,,,false,6541123,6541122.099999905,6536368.216,6536481.099999905,6536389,6541025,5,600,,
trial,html.Screen,10_37_0,2024-03-19T19:25:40.508Z,,,,1,0.0127320821962457,-0.0315308940184827,,0.04,true,hl,7229.099999904633,response,0.9039158082670506,0.9613089494653089,-0.9563861612852118,-1.0517562064343149,1.1086186206948818,-1.009817750478817,high,low,,ISIC_8156101.JPG,9,ISIC_0015411.JPG,28,25,false,0.19000000000000006,hl,keypress(j),0,false,6548254.299999952,6548254.099999905,6541022.148,6541123.299999952,6541025,6548147.6,5,600,38,
break,html.Screen,10_37_1,2024-03-19T19:25:40.509Z,,,,,,,,,,,NaN,,,,,,,,high,low,,,,,,,false,,,,,false,6548255.200000048,6548255.099999905,,6548254.599999905,,6548147.6,5,600,,
break_continue,html.Screen,10_37_2,2024-03-19T19:25:40.509Z,,,,,,,,,,,NaN,,,,,,,,high,low,,,,,,,false,,,,,false,6548255.700000048,6548255.5,,6548255.299999952,,6548147.6,5,600,,
sequence,flow.Sequence,10_37,2024-03-19T19:25:40.509Z,,,,,,,,,,,7230.5,completion,,,,,,,high,low,,,,,,,false,,,,,false,6548255.799999952,6548255.5,6541022.148,6541123.200000048,6541025,6548147.6,5,600,,
trial,html.Screen,10_38_0,2024-03-19T19:25:45.001Z,,,,1,-0.0057914759495055,0.018500200317654,,0.04,true,hh,4599.9000000003725,response,0.8682521581029131,0.9613089494653089,-0.9563861612852118,1.187434999088787,1.1086186206948818,-1.009817750478817,high,high,,ISIC_0058723.JPG,9,ISIC_5772144.JPG,28,28,false,0.11,hh,keypress(i),0,false,6552747.599999905,6552747.5,6548146.396,6548255.900000095,6548147.6,6552651.1,5,600,39,
break,html.Screen,10_38_1,2024-03-19T19:25:45.001Z,,,,,,,,,,,NaN,,,,,,,,high,high,,,,,,,false,,,,,false,6552747.799999952,6552747.799999952,,6552747.700000048,,6552651.1,5,600,,
