sender,sender_type,sender_id,timestamp,meta,,age,blockNo,c1,c2,condition,control_tolerance,correct,correctResponse,duration,ended_on,f1,f1_high,f1_low,f2,f2_high,f2_low,feature_level1,feature_level2,gender,img_left,img_reveal,img_right,n_control_images,n_target_images,practice,range_tolerance,response,response_action,selection_duration,staircase,time_commit,time_end,time_render,time_run,time_show,time_switch,total_blocks,total_trials,trialNo,url
informed_consent,html.Screen,0,2024-04-26T18:03:21.137Z,"{""labjs_version"":""20.2.4"",""labjs_build"":{""flavor"":""development"",""commit"":""f5b4a49f956347addd546a832a3327688c2c0fef""},""location"":""https://labjs.felixhenninger.com/api/labjs_preview/index.html"",""userAgent"":""Mozilla/5.0 (Windows NT 10.0; Win64; x64; rv:125.0) Gecko/20100101 Firefox/125.0"",""platform"":""Win32"",""language"":""en-US"",""locale"":""en-US"",""timeZone"":""America/Chicago"",""timezoneOffset"":300,""screen_width"":2560,""screen_height"":1440,""scroll_width"":2560,""scroll_height"":1288,""window_innerWidth"":2560,""window_innerHeight"":1336,""devicePixelRatio"":1}",,,,,,,,,,474335.62,response,,,,,,,,,,,,,,,,,consent,click button,,,474881,474869,516.7,506,533.38,474892.16,,,,{}
Demography form,html.Form,1,2024-04-26T18:03:31.258Z,,,19,,,,,,,,10109.840000000026,form submission,,,,,,,,,male,,,,,,,,,,,,485002,485002,474880.16,474882,474892.16,485000.62,,,,
Welcome,html.Screen,2,2024-04-26T18:04:13.040Z,,,,,,,"[""asym"",""col""]",,,,41774.380000000005,response,,,,,,,,,,,,,,,,,continue,click button,,,526784,526775,484992.48,485003,485000.62,526785.08,,,,
demo_instructions,html.Screen,3,2024-04-26T18:04:37.600Z,,,,,,,,,,,24552.920000000042,response,,,,,,,,,,,,,,,,,continue,click button,,,551344,551338,526783.78,526784,526785.08,551355.44,,,,
trial,html.Screen,4_0_0,2024-04-26T18:04:50.131Z,,,,0,-1.3132505134129506,-1.0949928516457437,,,true,hh,12520.560000000056,response,1.0959058628476686,1.2,-1.2,1.2921331918483707,1.2,-1.2,high,high,,ISIC_0066935.JPG,,ISIC_5920470.JPG,,25,true,0.15000000000000002,hh,keypress(i),100,false,563876,563876,551344.28,551345,551355.44,563882.22,1,16,1,
sequence,flow.Sequence,4_0,2024-04-26T18:04:50.133Z,,,,,,,,,,,12520.560000000056,completion,,,,,,,high,high,,,,,,,true,,,,,false,563877,563876,551344.28,551345,551355.44,563882.22,1,16,,
trial,html.Screen,4_1_0,2024-04-26T18:04:57.384Z,,,,0,-1.1407514641016443,-1.280017651202714,,,true,hh,7245.780000000028,response,1.2200968917423711,1.2,-1.2,1.3183466064109373,1.2,-1.2,high,high,,ISIC_0072507.JPG,,ISIC_3624318.JPG,,25,true,0.15000000000000002,hh,keypress(i),100,false,571128,571128,563877.34,563877,563882.22,571138.14,1,16,2,
sequence,flow.Sequence,4_1,2024-04-26T18:04:57.385Z,,,,,,,,,,,7245.780000000028,completion,,,,,,,high,high,,,,,,,true,,,,,false,571129,571128,563877.34,563877,563882.22,571138.14,1,16,,
trial,html.Screen,4_2_0,2024-04-26T18:05:02.026Z,,,,0,-1.2232482867978696,-1.2451219760556858,,,true,hh,4631.859999999986,response,1.3045229691102764,1.2,-1.2,1.1781544075681951,1.2,-1.2,high,high,,ISIC_0030889.JPG,,ISIC_6148533.JPG,,25,true,0.15000000000000002,hh,keypress(i),100,false,575770,575770,571127.88,571130,571138.14,575775.26,1,16,3,
sequence,flow.Sequence,4_2,2024-04-26T18:05:02.026Z,,,,,,,,,,,4631.859999999986,completion,,,,,,,high,high,,,,,,,true,,,,,false,575770,575770,571127.88,571130,571138.14,575775.26,1,16,,
trial,html.Screen,4_3_0,2024-04-26T18:05:04.589Z,,,,0,-1.2055236989581275,-1.1960893075698802,,,true,hh,2557.7399999999907,response,1.294521945180264,1.2,-1.2,1.3078626540563885,1.2,-1.2,high,high,,ISIC_0072393.JPG,,ISIC_3601224.JPG,,25,true,0.15000000000000002,hh,keypress(i),100,false,578334,578333,575769.54,575772,575775.26,578344.02,1,16,4,
sequence,flow.Sequence,4_3,2024-04-26T18:05:04.590Z,,,,,,,,,,,2557.7399999999907,completion,,,,,,,high,high,,,,,,,true,,,,,false,578335,578333,575769.54,575771,575775.26,578344.02,1,16,,
trial,html.Screen,4_4_0,2024-04-26T18:05:08.423Z,,,,0,1.204229955025689,1.0874249761617445,,,false,ll,3822.9799999999814,response,-1.1715181192107684,1.2,-1.2,-1.2251845559044463,1.2,-1.2,low,low,,ISIC_0056930.JPG,,ISIC_0011957.JPG,,27,true,0.12,hl,keypress(j),100,false,582167,582167,578335.38,578335,578344.02,582180.5,1,16,5,
sequence,flow.Sequence,4_4,2024-04-26T18:05:08.423Z,,,,,,,,,,,3822.9799999999814,completion,,,,,,,low,low,,,,,,,true,,,,,false,582168,582167,578335.38,578335,578344.02,582180.5,1,16,,
trial,html.Screen,4_5_0,2024-04-26T18:05:11.559Z,,,,0,1.1990772227054871,1.1224329926844498,,,false,ll,3122.5,response,-1.2232482867978696,1.2,-1.2,-1.2451219760556858,1.2,-1.2,low,low,,ISIC_3425388.JPG,,ISIC_0030889.JPG,,41,true,0.15000000000000002,hl,keypress(j),100,false,585304,585303,582167.86,582168,582180.5,585316.38,1,16,6,
sequence,flow.Sequence,4_5,2024-04-26T18:05:11.560Z,,,,,,,,,,,3122.5,completion,,,,,,,low,low,,,,,,,true,,,,,false,585304,585303,582167.86,582168,582180.5,585316.38,1,16,,
trial,html.Screen,4_6_0,2024-04-26T18:05:15.302Z,,,,0,1.1363600109870835,1.295816345369928,,,false,ll,3729.6199999999953,response,-1.1715181192107684,1.2,-1.2,-1.2251845559044463,1.2,-1.2,low,low,,ISIC_0026141.JPG,,ISIC_0011957.JPG,,41,true,0.15000000000000002,hl,keypress(j),100,false,589046,589046,585303.26,585304,585316.38,589052.78,1,16,7,
sequence,flow.Sequence,4_6,2024-04-26T18:05:15.303Z,,,,,,,,,,,3729.6199999999953,completion,,,,,,,low,low,,,,,,,true,,,,,false,589047,589046,585303.26,585304,585316.38,589052.78,1,16,,
trial,html.Screen,4_7_0,2024-04-26T18:05:18.107Z,,,,0,1.204229955025689,1.0874249761617445,,,false,ll,2798.219999999972,response,-1.238264833797662,1.2,-1.2,-1.176099940770289,1.2,-1.2,low,low,,ISIC_0056930.JPG,,ISIC_0032861.JPG,,41,true,0.15000000000000002,hl,keypress(j),100,false,591851,591851,589047.88,589048,589052.78,591888.42,1,16,8,
sequence,flow.Sequence,4_7,2024-04-26T18:05:18.107Z,,,,,,,,,,,2798.219999999972,completion,,,,,,,low,low,,,,,,,true,,,,,false,591852,591851,589047.88,589048,589052.78,591888.42,1,16,,
trial,html.Screen,4_8_0,2024-04-26T18:05:26.052Z,,,,0,1.00615481805876,-0.8428903771195875,,,true,lh,7908.579999999958,response,-1.082730232773217,1.2,-1.2,0.8833175387485132,1.2,-1.2,low,high,,ISIC_0069970.JPG,,ISIC_0011933.JPG,,26,true,0.3300000000000002,lh,keypress(e),100,false,599797,599797,591852.06,591852,591888.42,599811.56,1,16,9,
sequence,flow.Sequence,4_8,2024-04-26T18:05:26.052Z,,,,,,,,,,,7908.579999999958,completion,,,,,,,low,high,,,,,,,true,,,,,false,599797,599797,591852.06,591852,591888.42,599811.56,1,16,,
trial,html.Screen,4_9_0,2024-04-26T18:05:29.372Z,,,,0,1.1890109863264902,-0.8867825318561365,,,true,lh,3304.439999999944,response,-1.155796217969438,1.2,-1.2,1.1646564121743912,1.2,-1.2,low,high,,ISIC_0072576.JPG,,ISIC_2685523.JPG,,33,true,0.3600000000000002,lh,keypress(e),100,false,603116,603116,599796.88,599797,599811.56,603130.94,1,16,10,
sequence,flow.Sequence,4_9,2024-04-26T18:05:29.373Z,,,,,,,,,,,3304.439999999944,completion,,,,,,,low,high,,,,,,,true,,,,,false,603117,603116,599796.88,599797,599811.56,603130.94,1,16,,
trial,html.Screen,4_10_0,2024-04-26T18:05:31.962Z,,,,0,1.064425982109969,-0.958564243697126,,,true,lh,2575.060000000056,response,-1.2704198237183777,1.2,-1.2,1.138121072015301,1.2,-1.2,low,high,,ISIC_3203344.JPG,,ISIC_0501843.JPG,,33,true,0.3600000000000002,lh,keypress(e),100,false,605707,605706,603117.62,603117,603130.94,605716.38,1,16,11,
sequence,flow.Sequence,4_10,2024-04-26T18:05:31.962Z,,,,,,,,,,,2575.060000000056,completion,,,,,,,low,high,,,,,,,true,,,,,false,605708,605706,603117.62,603117,603130.94,605716.38,1,16,,
trial,html.Screen,4_11_0,2024-04-26T18:05:34.835Z,,,,0,1.3515962101204746,-0.8414583575292955,,,true,lh,2862.6199999999953,response,-0.8588347582642082,1.2,-1.2,0.8899503828496784,1.2,-1.2,low,high,,ISIC_0274382.JPG,,ISIC_0174983.JPG,,33,true,0.3600000000000002,lh,keypress(e),100,false,608580,608579,605707.6,605708,605716.38,608602.08,1,16,12,
sequence,flow.Sequence,4_11,2024-04-26T18:05:34.836Z,,,,,,,,,,,2862.6199999999953,completion,,,,,,,low,high,,,,,,,true,,,,,false,608580,608579,605707.6,605708,605716.38,608602.08,1,16,,
trial,html.Screen,4_12_0,2024-04-26T18:05:41.543Z,,,,0,-1.155796217969438,1.1646564121743912,,,false,hl,6684.920000000042,response,1.2615315960773072,1.2,-1.2,-1.194084675079932,1.2,-1.2,high,low,,ISIC_2685523.JPG,,ISIC_0010044.JPG,,29,true,0.3600000000000002,ll,keypress(f),100,false,615288,615287,608579.14,608581,608602.08,615307.54,1,16,13,
sequence,flow.Sequence,4_12,2024-04-26T18:05:41.543Z,,,,,,,,,,,6684.920000000042,completion,,,,,,,high,low,,,,,,,true,,,,,false,615288,615287,608579.14,608581,608602.08,615307.54,1,16,,
trial,html.Screen,4_13_0,2024-04-26T18:05:44.384Z,,,,0,-1.0961318727760048,1.2134960228256146,,,false,hl,2819.4599999999627,response,0.8591294258188253,1.2,-1.2,-0.870797302150167,1.2,-1.2,high,low,,ISIC_9768421.JPG,,ISIC_0055841.JPG,,29,true,0.3600000000000002,ll,keypress(f),100,false,618128,618127,615286.7,615289,615307.54,618159.88,1,16,14,
sequence,flow.Sequence,4_13,2024-04-26T18:05:44.384Z,,,,,,,,,,,2819.4599999999627,completion,,,,,,,high,low,,,,,,,true,,,,,false,618128,618127,615286.7,615289,615307.54,618159.88,1,16,,
trial,html.Screen,4_14_0,2024-04-26T18:05:46.701Z,,,,0,-1.0961318727760048,1.2134960228256146,,,false,hl,2284.1199999999953,response,1.064425982109969,1.2,-1.2,-0.958564243697126,1.2,-1.2,high,low,,ISIC_9768421.JPG,,ISIC_3203344.JPG,,29,true,0.3600000000000002,ll,keypress(f),100,false,620445,620444,618143.2,618129,618159.88,620478.44,1,16,15,
sequence,flow.Sequence,4_14,2024-04-26T18:05:46.701Z,,,,,,,,,,,2284.1199999999953,completion,,,,,,,high,low,,,,,,,true,,,,,false,620445,620444,618143.2,618129,618159.88,620478.44,1,16,,
trial,html.Screen,4_15_0,2024-04-26T18:05:50.034Z,,,,0,-0.9670240379618178,1.1806404773220665,,,false,hl,3299.560000000056,response,1.4748095371445096,1.2,-1.2,-0.9579010801034902,1.2,-1.2,high,low,,ISIC_0002288.JPG,,ISIC_0033216.JPG,,29,true,0.3600000000000002,ll,keypress(f),100,false,623779,623778,620461.76,620445,620478.44,623781.14,1,16,16,
sequence,flow.Sequence,4_15,2024-04-26T18:05:50.035Z,,,,,,,,,,,3299.560000000056,completion,,,,,,,high,low,,,,,,,true,,,,,false,623779,623778,620461.76,620445,620478.44,623781.14,1,16,,
demonstration_loop,flow.Loop,4,2024-04-26T18:05:50.035Z,,,,,,,,,,,72422.56000000006,completion,,,,,,,,,,,,,,,true,,,,,false,623780,623778,551344.28,551345,551355.44,623781.14,1,16,,
practice_instructions,html.Screen,5,2024-04-26T18:05:59.968Z,,,,,,,,,,,9915.859999999986,response,,,,,,,,,,,,,,,,,continue,click button,,,633713,633697,623780.08,623781,623781.14,633723.44,,,,
trial,html.Screen,6_0_0,2024-04-26T18:06:15.960Z,,,,1,-1.1592423187534993,1.067128884093211,,,,,16013.280000000028,timeout,1.4748095371445096,1.2,-1.2,-0.9579010801034902,1.2,-1.2,high,low,,ISIC_6854940.JPG,,ISIC_0033216.JPG,,29,true,0.3600000000000002,,,0,false,649704,649704,633712.44,633713,633723.44,649736.72,1,40,1,
sequence,flow.Sequence,6_0,2024-04-26T18:06:15.961Z,,,,,,,,,,,15980.560000000056,completion,,,,,,,high,low,,,,,,,true,,,,,false,649705,649704,633712.44,633713,633723.44,649736.72,1,40,,
trial,html.Screen,6_1_0,2024-04-26T18:06:22.889Z,,,,1,1.4727776799485246,-0.8779113138076752,,,false,lh,6896.280000000028,response,-1.0748728054622358,1.2,-1.2,1.2840853987892311,1.2,-1.2,low,high,,ISIC_0033074.JPG,,ISIC_0059219.JPG,,26,true,0.3300000000000002,hh,keypress(i),0,false,656633,656633,649720.04,649705,649736.72,656634.68,1,40,2,
sequence,flow.Sequence,6_1,2024-04-26T18:06:22.890Z,,,,,,,,,,,6896.280000000028,completion,,,,,,,low,high,,,,,,,true,,,,,false,656635,656633,649720.04,649705,649736.72,656634.68,1,40,,
trial,html.Screen,6_2_0,2024-04-26T18:06:30.005Z,,,,1,-1.2059606637811695,-1.214966446488752,,,false,hh,7115.319999999949,response,0.9217848751844988,1.2,-1.2,1.524057833111027,1.2,-1.2,high,high,,ISIC_0013334.JPG,,ISIC_0009791.JPG,,157,true,0.3600000000000002,hl,keypress(j),0,false,663751,663750,656634.36,656635,656634.68,663751.46,1,40,3,
sequence,flow.Sequence,6_2,2024-04-26T18:06:30.006Z,,,,,,,,,,,7115.319999999949,completion,,,,,,,high,high,,,,,,,true,,,,,false,663751,663750,656634.36,656635,656634.68,663751.46,1,40,,
trial,html.Screen,6_3_0,2024-04-26T18:06:40.666Z,,,,1,1.0885984639975343,1.2042618719491294,,,false,ll,10658.540000000037,response,-1.238264833797662,1.2,-1.2,-1.176099940770289,1.2,-1.2,low,low,,ISIC_0012740.JPG,,ISIC_0032861.JPG,,27,true,0.12,lh,keypress(e),0,false,674410,674410,663751.1,663751,663751.46,674423.82,1,40,4,
sequence,flow.Sequence,6_3,2024-04-26T18:06:40.666Z,,,,,,,,,,,10658.540000000037,completion,,,,,,,low,low,,,,,,,true,,,,,false,674410,674410,663751.1,663751,663751.46,674423.82,1,40,,
trial,html.Screen,6_4_0,2024-04-26T18:06:48.842Z,,,,1,1.11329866545753,-1.2155631217348757,,,false,lh,8162.180000000051,response,-1.2704198237183777,1.2,-1.2,1.138121072015301,1.2,-1.2,low,high,,ISIC_0032610.JPG,,ISIC_0501843.JPG,,26,true,0.3300000000000002,hl,keypress(j),0,false,682586,682586,674410.98,674410,674423.82,682597.22,1,40,5,
sequence,flow.Sequence,6_4,2024-04-26T18:06:48.842Z,,,,,,,,,,,8162.180000000051,completion,,,,,,,low,high,,,,,,,true,,,,,false,682587,682586,674410.98,674410,674423.82,682597.22,1,40,,
trial,html.Screen,6_5_0,2024-04-26T18:06:57.257Z,,,,1,-0.9566823908868002,0.9602125665128364,,,false,hl,8404.780000000028,response,1.2838089642212804,1.2,-1.2,-0.8550527900640753,1.2,-1.2,high,low,,ISIC_0056784.JPG,,ISIC_0034187.JPG,,29,true,0.3600000000000002,hh,keypress(i),0,false,691002,691002,682586.64,682587,682597.22,691004.18,1,40,6,
sequence,flow.Sequence,6_5,2024-04-26T18:06:57.257Z,,,,,,,,,,,8404.780000000028,completion,,,,,,,high,low,,,,,,,true,,,,,false,691002,691002,682586.64,682587,682597.22,691004.18,1,40,,
trial,html.Screen,6_6_0,2024-04-26T18:07:11.108Z,,,,1,-1.2315945866020412,-1.13226141421557,,,false,hh,13847.819999999949,response,0.9908691524573628,1.2,-1.2,1.300224660339869,1.2,-1.2,high,high,,ISIC_0033595.JPG,,ISIC_2105563.JPG,,127,true,0.3300000000000002,ll,keypress(f),0,false,704852,704852,691002.24,691002,691004.18,704865.62,1,40,7,
sequence,flow.Sequence,6_6,2024-04-26T18:07:11.108Z,,,,,,,,,,,13847.819999999949,completion,,,,,,,high,high,,,,,,,true,,,,,false,704853,704852,691002.24,691002,691004.18,704865.62,1,40,,
trial,html.Screen,6_7_0,2024-04-26T18:07:22.152Z,,,,1,1.1890109863264902,-0.8867825318561365,,,true,lh,11031.380000000005,response,-0.8787496315223856,1.2,-1.2,1.3680901203013998,1.2,-1.2,low,high,,ISIC_0072576.JPG,,ISIC_0023811.JPG,,26,true,0.3300000000000002,lh,keypress(e),0,false,715897,715897,704852.94,704853,704865.62,715897.76,1,40,8,
sequence,flow.Sequence,6_7,2024-04-26T18:07:22.152Z,,,,,,,,,,,11031.380000000005,completion,,,,,,,low,high,,,,,,,true,,,,,false,715897,715897,704852.94,704853,704865.62,715897.76,1,40,,
trial,html.Screen,6_8_0,2024-04-26T18:07:34.266Z,,,,1,1.1305948371148624,1.2802709447034604,,,true,ll,12113.23999999999,response,-1.0322039773226626,1.2,-1.2,-0.864695074153971,1.2,-1.2,low,low,,ISIC_5648111.JPG,,ISIC_0013707.JPG,,249,true,0.3600000000000002,ll,keypress(f),0,false,728011,728011,715897.58,715897,715897.76,728034.74,1,40,9,
sequence,flow.Sequence,6_8,2024-04-26T18:07:34.266Z,,,,,,,,,,,12113.23999999999,completion,,,,,,,low,low,,,,,,,true,,,,,false,728011,728011,715897.58,715897,715897.76,728034.74,1,40,,
trial,html.Screen,6_9_0,2024-04-26T18:07:50.186Z,,,,1,1.1224745971429997,-0.8423270217438888,,,true,lh,15895.26000000001,response,-1.1592423187534993,1.2,-1.2,1.067128884093211,1.2,-1.2,low,high,,ISIC_0057032.JPG,,ISIC_6854940.JPG,,26,true,0.3300000000000002,lh,keypress(e),0,false,743930,743930,728011.66,728012,728034.74,743947.94,1,40,10,
sequence,flow.Sequence,6_9,2024-04-26T18:07:50.186Z,,,,,,,,,,,15895.26000000001,completion,,,,,,,low,high,,,,,,,true,,,,,false,743931,743930,728011.66,728012,728034.74,743947.94,1,40,,
trial,html.Screen,6_10_0,2024-04-26T18:07:59.743Z,,,,1,-1.1392234684115472,-1.3198277407683998,,,true,hh,9539.060000000056,response,1.527180138517639,1.2,-1.2,1.3543995271489262,1.2,-1.2,high,high,,ISIC_0071875.JPG,,ISIC_3190566.JPG,,157,true,0.3600000000000002,hh,keypress(i),0,false,753487,753487,743931.28,743931,743947.94,753488.24,1,40,11,
sequence,flow.Sequence,6_10,2024-04-26T18:07:59.743Z,,,,,,,,,,,9539.060000000056,completion,,,,,,,high,high,,,,,,,true,,,,,false,753487,753487,743931.28,743931,743947.94,753488.24,1,40,,
trial,html.Screen,6_11_0,2024-04-26T18:08:12.732Z,,,,1,1.1510001454240106,1.132540312667795,,,true,ll,12988.76000000001,response,-1.1227373144244253,1.2,-1.2,-1.1886610799377713,1.2,-1.2,low,low,,ISIC_0009959.JPG,,ISIC_0059506.JPG,,27,true,0.12,ll,keypress(f),0,false,766477,766477,753487.78,753488,753488.24,766477.24,1,40,12,
sequence,flow.Sequence,6_11,2024-04-26T18:08:12.732Z,,,,,,,,,,,12988.76000000001,completion,,,,,,,low,low,,,,,,,true,,,,,false,766477,766477,753487.78,753488,753488.24,766477.24,1,40,,
trial,html.Screen,6_12_0,2024-04-26T18:08:18.984Z,,,,1,1.301795918505203,1.0518606632781424,,,true,ll,6250.760000000009,response,-1.2055236989581275,1.2,-1.2,-1.1960893075698802,1.2,-1.2,low,low,,ISIC_0027666.JPG,,ISIC_0072393.JPG,,41,true,0.15000000000000002,ll,keypress(f),0,false,772728,772728,766477.16,766477,766477.24,772728.32,1,40,13,
sequence,flow.Sequence,6_12,2024-04-26T18:08:18.984Z,,,,,,,,,,,6250.760000000009,completion,,,,,,,low,low,,,,,,,true,,,,,false,772728,772728,766477.16,766477,766477.24,772728.32,1,40,,
trial,html.Screen,6_13_0,2024-04-26T18:08:31.624Z,,,,1,-1.2232482867978696,-1.2451219760556858,,,true,hh,12640.680000000051,response,1.0878102877901663,1.2,-1.2,1.3154097543539391,1.2,-1.2,high,high,,ISIC_0030889.JPG,,ISIC_1413242.JPG,,25,true,0.15000000000000002,hh,keypress(i),0,false,785369,785369,772728.16,772728,772728.32,785369.52,1,40,14,
sequence,flow.Sequence,6_13,2024-04-26T18:08:31.624Z,,,,,,,,,,,12640.680000000051,completion,,,,,,,high,high,,,,,,,true,,,,,false,785370,785369,772728.16,772728,772728.32,785369.52,1,40,,
trial,html.Screen,6_14_0,2024-04-26T18:08:39.607Z,,,,1,-1.0264463986917702,1.171271535505083,,,true,hl,7981.479999999981,response,0.9039158082670506,1.2,-1.2,-1.0517562064343149,1.2,-1.2,high,low,,ISIC_7889838.JPG,,ISIC_0015411.JPG,,29,true,0.3600000000000002,hl,keypress(j),0,false,793352,793351,785369.18,785370,785369.52,793355.36,1,40,15,
sequence,flow.Sequence,6_14,2024-04-26T18:08:39.608Z,,,,,,,,,,,7981.479999999981,completion,,,,,,,high,low,,,,,,,true,,,,,false,793352,793351,785369.18,785370,785369.52,793355.36,1,40,,
trial,html.Screen,6_15_0,2024-04-26T18:08:50.648Z,,,,1,1.301795918505203,1.0518606632781424,,,true,ll,11037.640000000014,response,-1.2893246069103816,1.2,-1.2,-1.0655029133871594,1.2,-1.2,low,low,,ISIC_0027666.JPG,,ISIC_0070747.JPG,,211,true,0.3300000000000002,ll,keypress(f),0,false,804393,804393,793352.02,793352,793355.36,804397.86,1,40,16,
sequence,flow.Sequence,6_15,2024-04-26T18:08:50.648Z,,,,,,,,,,,11037.640000000014,completion,,,,,,,low,low,,,,,,,true,,,,,false,804393,804393,793352.02,793352,793355.36,804397.86,1,40,,
trial,html.Screen,6_16_0,2024-04-26T18:09:01.769Z,,,,1,-1.0822170028935367,1.1654796154432183,,,true,hl,11115.140000000014,response,0.9087169856594104,1.2,-1.2,-0.8835647084207277,1.2,-1.2,high,low,,ISIC_7288818.JPG,,ISIC_0000349.JPG,,29,true,0.3600000000000002,hl,keypress(j),0,false,815514,815513,804392.58,804393,804397.86,815523.7,1,40,17,
sequence,flow.Sequence,6_16,2024-04-26T18:09:01.769Z,,,,,,,,,,,11115.140000000014,completion,,,,,,,high,low,,,,,,,true,,,,,false,815514,815513,804392.58,804393,804397.86,815523.7,1,40,,
trial,html.Screen,6_17_0,2024-04-26T18:09:12.871Z,,,,1,1.064425982109969,-0.958564243697126,,,true,lh,11092.300000000047,response,-0.9566823908868002,1.2,-1.2,0.9602125665128364,1.2,-1.2,low,high,,ISIC_3203344.JPG,,ISIC_0056784.JPG,,26,true,0.3300000000000002,lh,keypress(e),0,false,826616,826616,815514.14,815515,815523.7,826616.24,1,40,18,
sequence,flow.Sequence,6_17,2024-04-26T18:09:12.871Z,,,,,,,,,,,11092.300000000047,completion,,,,,,,low,high,,,,,,,true,,,,,false,826616,826616,815514.14,815515,815523.7,826616.24,1,40,,
trial,html.Screen,6_18_0,2024-04-26T18:09:26.856Z,,,,1,-1.1227373144244253,-1.1886610799377713,,,true,hh,13983.76000000001,response,0.9112756881807856,1.2,-1.2,0.87743267531148,1.2,-1.2,high,high,,ISIC_0059506.JPG,,ISIC_0000387.JPG,,157,true,0.3600000000000002,hh,keypress(i),0,false,840600,840600,826615.98,826616,826616.24,840600.56,1,40,19,
sequence,flow.Sequence,6_18,2024-04-26T18:09:26.856Z,,,,,,,,,,,13983.76000000001,completion,,,,,,,high,high,,,,,,,true,,,,,false,840600,840600,826615.98,826616,826616.24,840600.56,1,40,,
trial,html.Screen,6_19_0,2024-04-26T18:09:42.848Z,,,,1,0.8779374983479176,-0.9745548032823428,,,,,16023.73999999999,timeout,-1.0961318727760048,1.2,-1.2,1.2134960228256146,1.2,-1.2,low,high,,ISIC_2991354.JPG,,ISIC_9768421.JPG,,26,true,0.3300000000000002,,,0,false,856592,856592,840600.26,840600,840600.56,856624.3,1,40,20,
sequence,flow.Sequence,6_19,2024-04-26T18:09:42.848Z,,,,,,,,,,,15991.439999999944,completion,,,,,,,low,high,,,,,,,true,,,,,false,856592,856592,840600.26,840600,840600.56,856624.3,1,40,,
trial,html.Screen,6_20_0,2024-04-26T18:09:49.963Z,,,,1,-1.0961318727760048,1.2134960228256146,,,true,hl,7082.699999999953,response,1.4727776799485246,1.2,-1.2,-0.8779113138076752,1.2,-1.2,high,low,,ISIC_9768421.JPG,,ISIC_0033074.JPG,,29,true,0.3600000000000002,hl,keypress(j),0,false,863708,863707,856607.62,856592,856624.3,863713.52,1,40,21,
sequence,flow.Sequence,6_20,2024-04-26T18:09:49.964Z,,,,,,,,,,,7082.699999999953,completion,,,,,,,high,low,,,,,,,true,,,,,false,863708,863707,856607.62,856592,856624.3,863713.52,1,40,,
trial,html.Screen,6_21_0,2024-04-26T18:09:58.168Z,,,,1,-0.887838744955182,1.3716210719758812,,,true,hl,8199.479999999981,response,0.8479396253253069,1.2,-1.2,-1.011054319516718,1.2,-1.2,high,low,,ISIC_1488727.JPG,,ISIC_0063521.JPG,,29,true,0.3600000000000002,hl,keypress(j),0,false,871913,871913,863708.02,863708,863713.52,871920.3,1,40,22,
sequence,flow.Sequence,6_21,2024-04-26T18:09:58.168Z,,,,,,,,,,,8199.479999999981,completion,,,,,,,high,low,,,,,,,true,,,,,false,871913,871913,863708.02,863708,863713.52,871920.3,1,40,,
trial,html.Screen,6_22_0,2024-04-26T18:10:08.877Z,,,,1,-1.296989496412063,1.1425074323097002,,,true,hl,10700.699999999953,response,1.225025174430573,1.2,-1.2,-0.8422679054456499,1.2,-1.2,high,low,,ISIC_6356803.JPG,,ISIC_7503950.JPG,,29,true,0.3600000000000002,hl,keypress(j),0,false,882622,882621,871913.4,871913,871920.3,882622.16,1,40,23,
sequence,flow.Sequence,6_22,2024-04-26T18:10:08.878Z,,,,,,,,,,,10700.699999999953,completion,,,,,,,high,low,,,,,,,true,,,,,false,882622,882621,871913.4,871913,871920.3,882622.16,1,40,,
trial,html.Screen,6_23_0,2024-04-26T18:10:21.483Z,,,,1,-1.1715181192107684,-1.2251845559044463,,,false,hh,12604.839999999967,response,1.2769509660091942,1.2,-1.2,0.9130965994993906,1.2,-1.2,high,high,,ISIC_0011957.JPG,,ISIC_5822017.JPG,,127,true,0.3300000000000002,ll,keypress(f),0,false,895227,895227,882621.88,882622,882622.16,895228.14,1,40,24,
sequence,flow.Sequence,6_23,2024-04-26T18:10:21.484Z,,,,,,,,,,,12604.839999999967,completion,,,,,,,high,high,,,,,,,true,,,,,false,895228,895227,882621.88,882622,882622.16,895228.14,1,40,,
trial,html.Screen,6_24_0,2024-04-26T18:10:37.476Z,,,,1,-1.1227373144244253,-1.1886610799377713,,,,,16024.579999999958,timeout,1.053007132776416,1.2,-1.2,1.341217082060068,1.2,-1.2,high,high,,ISIC_0059506.JPG,,ISIC_0024208.JPG,,25,true,0.15000000000000002,,,0,false,911220,911220,895227.92,895228,895228.14,911252.72,1,40,25,
sequence,flow.Sequence,6_24,2024-04-26T18:10:37.476Z,,,,,,,,,,,15991.859999999986,completion,,,,,,,high,high,,,,,,,true,,,,,false,911221,911220,895227.92,895228,895228.14,911252.72,1,40,,
trial,html.Screen,6_25_0,2024-04-26T18:10:44.968Z,,,,1,-0.9046170303418553,1.0063426986460375,,,true,hl,7460.280000000028,response,1.4727776799485246,1.2,-1.2,-0.8779113138076752,1.2,-1.2,high,low,,ISIC_0055759.JPG,,ISIC_0033074.JPG,,29,true,0.3600000000000002,hl,keypress(j),0,false,918713,918713,911236.04,911221,911252.72,918725.6,1,40,26,
sequence,flow.Sequence,6_25,2024-04-26T18:10:44.969Z,,,,,,,,,,,7460.280000000028,completion,,,,,,,high,low,,,,,,,true,,,,,false,918714,918713,911236.04,911221,911252.72,918725.6,1,40,,
trial,html.Screen,6_26_0,2024-04-26T18:10:50.201Z,,,,1,-1.296989496412063,1.1425074323097002,,,true,hl,5219.400000000023,response,0.8779374983479176,1.2,-1.2,-0.9745548032823428,1.2,-1.2,high,low,,ISIC_6356803.JPG,,ISIC_2991354.JPG,,29,true,0.3600000000000002,hl,keypress(j),0,false,923945,923945,918713.44,918714,918725.6,923945.78,1,40,27,
sequence,flow.Sequence,6_26,2024-04-26T18:10:50.201Z,,,,,,,,,,,5219.400000000023,completion,,,,,,,high,low,,,,,,,true,,,,,false,923945,923945,918713.44,918714,918725.6,923945.78,1,40,,
trial,html.Screen,6_27_0,2024-04-26T18:10:57.576Z,,,,1,1.3471772753257971,1.055978100098093,,,true,ll,7374.219999999972,response,-1.3132505134129506,1.2,-1.2,-1.0949928516457437,1.2,-1.2,low,low,,ISIC_2077116.JPG,,ISIC_0066935.JPG,,211,true,0.3300000000000002,ll,keypress(f),0,false,931320,931320,923945.42,923945,923945.78,931336,1,40,28,
sequence,flow.Sequence,6_27,2024-04-26T18:10:57.576Z,,,,,,,,,,,7374.219999999972,completion,,,,,,,low,low,,,,,,,true,,,,,false,931320,931320,923945.42,923945,923945.78,931336,1,40,,
trial,html.Screen,6_28_0,2024-04-26T18:11:04.158Z,,,,1,1.4748095371445096,-0.9579010801034902,,,true,lh,6566,response,-0.887838744955182,1.2,-1.2,1.3716210719758812,1.2,-1.2,low,high,,ISIC_0033216.JPG,,ISIC_1488727.JPG,,26,true,0.3300000000000002,lh,keypress(e),0,false,937902,937902,931320.44,931321,931336,937908.16,1,40,29,
sequence,flow.Sequence,6_28,2024-04-26T18:11:04.158Z,,,,,,,,,,,6566,completion,,,,,,,low,high,,,,,,,true,,,,,false,937902,937902,931320.44,931321,931336,937908.16,1,40,,
trial,html.Screen,6_29_0,2024-04-26T18:11:10.679Z,,,,1,1.1510001454240106,1.132540312667795,,,true,ll,6515.839999999967,response,-1.0602111027905514,1.2,-1.2,-1.470529430032402,1.2,-1.2,low,low,,ISIC_0009959.JPG,,ISIC_0033518.JPG,,249,true,0.3600000000000002,ll,keypress(f),0,false,944424,944424,937902.6,937902,937908.16,944424.56,1,40,30,
sequence,flow.Sequence,6_29,2024-04-26T18:11:10.680Z,,,,,,,,,,,6515.839999999967,completion,,,,,,,low,low,,,,,,,true,,,,,false,944425,944424,937902.6,937902,937908.16,944424.56,1,40,,
trial,html.Screen,6_30_0,2024-04-26T18:11:18.626Z,,,,1,-1.1671212908494544,-1.1286681796701683,,,true,hh,7945.439999999944,response,1.1510001454240106,1.2,-1.2,1.132540312667795,1.2,-1.2,high,high,,ISIC_0065022.JPG,,ISIC_0009959.JPG,,25,true,0.15000000000000002,hh,keypress(i),0,false,952370,952370,944424.34,944425,944424.56,952371.06,1,40,31,
sequence,flow.Sequence,6_30,2024-04-26T18:11:18.626Z,,,,,,,,,,,7945.439999999944,completion,,,,,,,high,high,,,,,,,true,,,,,false,952371,952370,944424.34,944425,944424.56,952371.06,1,40,,
trial,html.Screen,6_31_0,2024-04-26T18:11:26.361Z,,,,1,1.073296525451802,1.3454282740421717,,,true,ll,7733.939999999944,response,-1.1715181192107684,1.2,-1.2,-1.2251845559044463,1.2,-1.2,low,low,,ISIC_5787312.JPG,,ISIC_0011957.JPG,,27,true,0.12,ll,keypress(f),0,false,960106,960105,952370.72,952371,952371.06,960126.44,1,40,32,
sequence,flow.Sequence,6_31,2024-04-26T18:11:26.362Z,,,,,,,,,,,7733.939999999944,completion,,,,,,,low,low,,,,,,,true,,,,,false,960106,960105,952370.72,952371,952371.06,960126.44,1,40,,
trial,html.Screen,6_32_0,2024-04-26T18:11:35.129Z,,,,1,-1.1592423187534993,1.067128884093211,,,true,hl,8746.560000000056,response,0.9087169856594104,1.2,-1.2,-0.8835647084207277,1.2,-1.2,high,low,,ISIC_6854940.JPG,,ISIC_0000349.JPG,,29,true,0.3600000000000002,hl,keypress(j),0,false,968874,968873,960106.3,960106,960126.44,968883.74,1,40,33,
sequence,flow.Sequence,6_32,2024-04-26T18:11:35.129Z,,,,,,,,,,,8746.560000000056,completion,,,,,,,high,low,,,,,,,true,,,,,false,968874,968873,960106.3,960106,960126.44,968883.74,1,40,,
trial,html.Screen,6_33_0,2024-04-26T18:11:43.818Z,,,,1,1.073296525451802,1.3454282740421717,,,true,ll,8679.26000000001,response,-1.2059606637811695,1.2,-1.2,-1.214966446488752,1.2,-1.2,low,low,,ISIC_5787312.JPG,,ISIC_0013334.JPG,,211,true,0.3300000000000002,ll,keypress(f),0,false,977563,977563,968874.62,968874,968883.74,977563.84,1,40,34,
sequence,flow.Sequence,6_33,2024-04-26T18:11:43.818Z,,,,,,,,,,,8679.26000000001,completion,,,,,,,low,low,,,,,,,true,,,,,false,977563,977563,968874.62,968874,968883.74,977563.84,1,40,,
trial,html.Screen,6_34_0,2024-04-26T18:11:56.281Z,,,,1,-1.1407514641016443,-1.280017651202714,,,true,hh,12461.160000000033,response,1.1168199061753437,1.2,-1.2,1.212287319329914,1.2,-1.2,high,high,,ISIC_0072507.JPG,,ISIC_5919355.JPG,,25,true,0.15000000000000002,hh,keypress(i),0,false,990026,990025,977563.48,977564,977563.84,990026.64,1,40,35,
sequence,flow.Sequence,6_34,2024-04-26T18:11:56.281Z,,,,,,,,,,,12461.160000000033,completion,,,,,,,high,high,,,,,,,true,,,,,false,990026,990025,977563.48,977563,977563.84,990026.64,1,40,,
trial,html.Screen,6_35_0,2024-04-26T18:12:07.321Z,,,,1,-1.1715181192107684,-1.2251845559044463,,,true,hh,11038.359999999986,response,1.0878102877901663,1.2,-1.2,1.3154097543539391,1.2,-1.2,high,high,,ISIC_0011957.JPG,,ISIC_1413242.JPG,,25,true,0.15000000000000002,hh,keypress(i),0,false,1001066,1001065,990026.2,990026,990026.64,1001076.96,1,40,36,
sequence,flow.Sequence,6_35,2024-04-26T18:12:07.322Z,,,,,,,,,,,11038.359999999986,completion,,,,,,,high,high,,,,,,,true,,,,,false,1001066,1001065,990026.2,990026,990026.64,1001076.96,1,40,,
trial,html.Screen,6_36_0,2024-04-26T18:12:14.154Z,,,,1,1.1224745971429997,-0.8423270217438888,,,true,lh,6821.040000000037,response,-1.055319394932912,1.2,-1.2,1.409116680310466,1.2,-1.2,low,high,,ISIC_0057032.JPG,,ISIC_6398669.JPG,,26,true,0.3300000000000002,lh,keypress(e),0,false,1007899,1007898,1001066.42,1001066,1001076.96,1007899.66,1,40,37,
sequence,flow.Sequence,6_36,2024-04-26T18:12:14.154Z,,,,,,,,,,,6821.040000000037,completion,,,,,,,low,high,,,,,,,true,,,,,false,1007899,1007898,1001066.42,1001066,1001076.96,1007899.66,1,40,,
trial,html.Screen,6_37_0,2024-04-26T18:12:22.589Z,,,,1,0.9087169856594104,-0.8835647084207277,,,true,lh,8433.339999999967,response,-0.9566823908868002,1.2,-1.2,0.9602125665128364,1.2,-1.2,low,high,,ISIC_0000349.JPG,,ISIC_0056784.JPG,,33,true,0.3600000000000002,lh,keypress(e),0,false,1016334,1016333,1007899.26,1007899,1007899.66,1016339.6,1,40,38,
sequence,flow.Sequence,6_37,2024-04-26T18:12:22.590Z,,,,,,,,,,,8433.339999999967,completion,,,,,,,low,high,,,,,,,true,,,,,false,1016334,1016333,1007899.26,1007899,1007899.66,1016339.6,1,40,,
trial,html.Screen,6_38_0,2024-04-26T18:12:33.513Z,,,,1,1.3045229691102764,1.1781544075681951,,,true,ll,10918.400000000023,response,-0.892888705264033,1.2,-1.2,-1.1616901486941038,1.2,-1.2,low,low,,ISIC_6148533.JPG,,ISIC_0066101.JPG,,249,true,0.3600000000000002,ll,keypress(f),0,false,1027258,1027258,1016334.06,1016334,1016339.6,1027265.26,1,40,39,
sequence,flow.Sequence,6_38,2024-04-26T18:12:33.514Z,,,,,,,,,,,10918.400000000023,completion,,,,,,,low,low,,,,,,,true,,,,,false,1027258,1027258,1016334.06,1016334,1016339.6,1027265.26,1,40,,
trial,html.Screen,6_39_0,2024-04-26T18:12:42.699Z,,,,1,1.411763789273233,-1.0057734478347988,,,true,lh,9178.73999999999,response,-1.296989496412063,1.2,-1.2,1.1425074323097002,1.2,-1.2,low,high,,ISIC_0027235.JPG,,ISIC_6356803.JPG,,26,true,0.3300000000000002,lh,keypress(e),0,false,1036445,1036444,1027258.48,1027259,1027265.26,1036444.82,1,40,40,
sequence,flow.Sequence,6_39,2024-04-26T18:12:42.699Z,,,,,,,,,,,9178.73999999999,completion,,,,,,,low,high,,,,,,,true,,,,,false,1036445,1036444,1027258.48,1027259,1027265.26,1036444.82,1,40,,
practice_loop,flow.Loop,6,2024-04-26T18:12:42.700Z,,,,,,,,,,,402720.56000000006,completion,,,,,,,,,,,,,,,true,,,,,false,1036445,1036444,633712.44,633713,633723.44,1036444.82,1,40,,
stair_instructions,html.Screen,7,2024-04-26T18:13:02.408Z,,,,,,,,,,,19705.18000000005,response,,,,,,,,,,,,,,,,,continue,keypress(Space),,,1056151,1056150,1036444.54,1036445,1036444.82,1056152.12,,,,
trial,html.Screen,8_0_0,2024-04-26T18:13:15.603Z,,,,2,-0.0050679133050021,-0.0174815595031679,,0.04,false,lh,13194.879999999888,response,-0.9566823908868002,1.2,-1.2,0.9602125665128364,1.2,-1.2,low,high,,ISIC_9848743.JPG,,ISIC_0056784.JPG,28,33,false,0.3600000000000002,ll,keypress(f),0,true,1069348,1069347,1056151.98,1056152,1056152.12,1069349.12,1,40,1,
sequence,flow.Sequence,8_0,2024-04-26T18:13:15.604Z,,,,,,,,,,,13194.879999999888,completion,,,,,,,low,high,,,,,,,false,,,,,true,1069348,1069347,1056151.98,1056152,1056152.12,1069349.12,1,40,,
trial,html.Screen,8_1_0,2024-04-26T18:13:29.608Z,,,,2,0.0189295602385628,0.0128812415435153,,0.04,true,hl,14003.879999999888,response,1.3411487193830047,1.15,-1.15,-1.198640448317381,1.2,-1.15,high,low,,ISIC_0010372.JPG,,ISIC_3093026.JPG,28,27,false,0.31000000000000016,hl,keypress(j),0,true,1083354,1083353,1069348.78,1069349,1069349.12,1083354.28,1,40,2,
sequence,flow.Sequence,8_1,2024-04-26T18:13:29.609Z,,,,,,,,,,,14003.879999999888,completion,,,,,,,high,low,,,,,,,false,,,,,true,1083354,1083353,1069348.78,1069349,1069349.12,1083354.28,1,40,,
trial,html.Screen,8_2_0,2024-04-26T18:13:40.346Z,,,,2,-0.0158987717472563,-0.0292472192292015,,0.04,true,ll,10735.719999999972,response,-1.1671212908494544,1.15,-1.15,-1.1286681796701683,1.15,-1.15,low,low,,ISIC_1366765.JPG,,ISIC_0065022.JPG,28,25,false,0.11,ll,keypress(f),0,true,1094090,1094090,1083353.88,1083354,1083354.28,1094090.46,1,40,3,
sequence,flow.Sequence,8_2,2024-04-26T18:13:40.346Z,,,,,,,,,,,10735.719999999972,completion,,,,,,,low,low,,,,,,,false,,,,,true,1094090,1094090,1083353.88,1083354,1083354.28,1094090.46,1,40,,
trial,html.Screen,8_3_0,2024-04-26T18:13:51.417Z,,,,2,0.010035581303589,-0.0100711721396864,,0.04,false,ll,11070.540000000037,response,-1.12972273782631,1.15,-1.1136543139937747,-1.0374079095766835,1.15,-1.1136543139937747,low,low,,ISIC_0030592.JPG,,ISIC_0032396.JPG,28,27,false,0.11,lh,keypress(e),0,true,1105161,1105161,1094090.16,1094091,1094090.46,1105162.94,1,40,4,
sequence,flow.Sequence,8_3,2024-04-26T18:13:51.417Z,,,,,,,,,,,11070.540000000037,completion,,,,,,,low,low,,,,,,,false,,,,,true,1105161,1105161,1094090.16,1094091,1094090.46,1105162.94,1,40,,
trial,html.Screen,8_4_0,2024-04-26T18:14:01.898Z,,,,2,-0.0050679133050021,-0.0174815595031679,,0.04,false,lh,10479.060000000056,response,-1.055319394932912,1.15,-1.1136543139937747,1.409116680310466,1.15,-1.1636543139937747,low,high,,ISIC_9848743.JPG,,ISIC_6398669.JPG,28,27,false,0.2600000000000001,hh,keypress(i),0,true,1115643,1115642,1105161.3,1105161,1105162.94,1115643.44,1,40,5,
sequence,flow.Sequence,8_4,2024-04-26T18:14:01.898Z,,,,,,,,,,,10479.060000000056,completion,,,,,,,low,high,,,,,,,false,,,,,true,1115643,1115642,1105161.3,1105161,1105162.94,1115643.44,1,40,,
trial,html.Screen,8_5_0,2024-04-26T18:14:17.892Z,,,,2,-0.0057914759495055,0.018500200317654,,0.04,,,16024.699999999953,timeout,-1.1894733304494307,1.15,-1.1636543139937747,-1.1169761866204877,1.15,-1.1636543139937747,low,low,,ISIC_0058723.JPG,,ISIC_0033813.JPG,28,27,false,0.12,,,0,true,1131636,1131635,1115642.98,1115643,1115643.44,1131668.14,1,40,6,
sequence,flow.Sequence,8_5,2024-04-26T18:14:17.893Z,,,,,,,,,,,15991.560000000056,completion,,,,,,,low,low,,,,,,,false,,,,,true,1131636,1131635,1115642.98,1115643,1115643.44,1131668.14,1,40,,
trial,html.Screen,8_6_0,2024-04-26T18:14:27.110Z,,,,2,-0.0350697500805515,-0.0166617848231997,,0.04,false,lh,9186.860000000102,response,-0.9212323139676136,1.15,-1.1636543139937747,0.9882196642247332,1.15,-1.1636543139937747,low,high,,ISIC_0024423.JPG,,ISIC_0014255.JPG,28,25,false,0.29000000000000015,hl,keypress(j),0,true,1140855,1140855,1131651.44,1131636,1131668.14,1140858.92,1,40,7,
sequence,flow.Sequence,8_6,2024-04-26T18:14:27.110Z,,,,,,,,,,,9186.860000000102,completion,,,,,,,low,high,,,,,,,false,,,,,true,1140855,1140855,1131651.44,1131636,1131668.14,1140858.92,1,40,,
trial,html.Screen,8_7_0,2024-04-26T18:14:33.864Z,,,,2,0.0189295602385628,0.0128812415435153,,0.04,false,hl,6750.0800000000745,response,1.225025174430573,1.15,-1.1636543139937747,-0.8422679054456499,1.15,-1.1636543139937747,high,low,,ISIC_0010372.JPG,,ISIC_7503950.JPG,28,30,false,0.3300000000000002,hh,keypress(i),0,true,1147609,1147609,1140855.42,1140855,1140858.92,1147608.7,1,40,8,
sequence,flow.Sequence,8_7,2024-04-26T18:14:33.864Z,,,,,,,,,,,6750.0800000000745,completion,,,,,,,high,low,,,,,,,false,,,,,true,1147609,1147609,1140855.42,1140855,1140858.92,1147608.7,1,40,,
trial,html.Screen,8_8_0,2024-04-26T18:14:43.832Z,,,,2,-0.0350697500805515,-0.0166617848231997,,0.04,false,ll,9968.300000000047,response,-1.2232482867978696,1.2170709273705194,-1.1636543139937747,-1.2451219760556858,1.15,-1.1636543139937747,low,low,,ISIC_0024423.JPG,,ISIC_0030889.JPG,28,27,false,0.12,hh,keypress(i),0,true,1157577,1157577,1147608.56,1147609,1147608.7,1157577.38,1,40,9,
sequence,flow.Sequence,8_8,2024-04-26T18:14:43.832Z,,,,,,,,,,,9968.300000000047,completion,,,,,,,low,low,,,,,,,false,,,,,true,1157577,1157577,1147608.56,1147609,1147608.7,1157577.38,1,40,,
trial,html.Screen,8_9_0,2024-04-26T18:14:53.453Z,,,,2,-0.0158987717472563,-0.0292472192292015,,0.04,true,hh,9619.620000000112,response,1.1642596483638106,1.1670709273705193,-1.1636543139937747,1.091507924157762,1.15,-1.1636543139937747,high,high,,ISIC_1366765.JPG,,ISIC_0765584.JPG,28,26,false,0.14,hh,keypress(i),0,true,1167198,1167197,1157577.1,1157577,1157577.38,1167214.04,1,40,10,
sequence,flow.Sequence,8_9,2024-04-26T18:14:53.453Z,,,,,,,,,,,9619.620000000112,completion,,,,,,,high,high,,,,,,,false,,,,,true,1167198,1167197,1157577.1,1157577,1157577.38,1167214.04,1,40,,
trial,html.Screen,8_10_0,2024-04-26T18:15:05.641Z,,,,2,-0.012810673904807,0.00400964452501,,0.04,false,ll,12170.959999999963,response,-1.1671212908494544,1.1670709273705193,-1.1636543139937747,-1.1286681796701683,1.15,-1.1636543139937747,low,low,,ISIC_0064656.JPG,,ISIC_0065022.JPG,28,27,false,0.12,hl,keypress(j),0,true,1179385,1179385,1167198.32,1167199,1167214.04,1179390.66,1,40,11,
sequence,flow.Sequence,8_10,2024-04-26T18:15:05.642Z,,,,,,,,,,,12170.959999999963,completion,,,,,,,low,low,,,,,,,false,,,,,true,1179386,1179385,1167198.32,1167199,1167214.04,1179390.66,1,40,,
trial,html.Screen,8_11_0,2024-04-26T18:15:20.809Z,,,,2,0.0361875505619981,-0.0291457404567876,,0.04,false,ll,15162.340000000084,response,-1.2055236989581275,1.1670709273705193,-1.1636543139937747,-1.1960893075698802,1.15,-1.1636543139937747,low,low,,ISIC_0027480.JPG,,ISIC_0072393.JPG,28,27,false,0.12,hh,keypress(i),0,true,1194553,1194553,1179385.9,1179386,1179390.66,1194569.72,1,40,12,
sequence,flow.Sequence,8_11,2024-04-26T18:15:20.809Z,,,,,,,,,,,15162.340000000084,completion,,,,,,,low,low,,,,,,,false,,,,,true,1194553,1194553,1179385.9,1179386,1179390.66,1194569.72,1,40,,
trial,html.Screen,8_12_0,2024-04-26T18:15:25.352Z,,,,2,-0.012020985739544,0.0126097407389903,,0.04,false,hl,4527.280000000028,response,0.8591294258188253,1.1670709273705193,-1.1636543139937747,-0.870797302150167,1.15,-1.1636543139937747,high,low,,ISIC_0069379.JPG,,ISIC_0055841.JPG,28,25,false,0.3200000000000002,hh,keypress(i),0,true,1199097,1199097,1194553.42,1194553,1194569.72,1199106.76,1,40,13,
sequence,flow.Sequence,8_12,2024-04-26T18:15:25.352Z,,,,,,,,,,,4527.280000000028,completion,,,,,,,high,low,,,,,,,false,,,,,true,1199097,1199097,1194553.42,1194553,1194569.72,1199106.76,1,40,,
trial,html.Screen,8_13_0,2024-04-26T18:15:32.297Z,,,,2,0.0321039635696159,0.020496766286318,,0.04,true,hl,6935.239999999991,response,0.9087169856594104,1.1170709273705193,-1.1636543139937747,-0.8835647084207277,1.15,-1.1636543139937747,high,low,,ISIC_0058063.JPG,,ISIC_0000349.JPG,28,27,false,0.31000000000000016,hl,keypress(j),0,true,1206042,1206042,1199096.88,1199097,1199106.76,1206045.76,1,40,14,
sequence,flow.Sequence,8_13,2024-04-26T18:15:32.297Z,,,,,,,,,,,6935.239999999991,completion,,,,,,,high,low,,,,,,,false,,,,,true,1206042,1206042,1199096.88,1199097,1199106.76,1206045.76,1,40,,
trial,html.Screen,8_14_0,2024-04-26T18:15:35.721Z,,,,2,-0.00126575685933,-0.0325046559638838,,0.04,true,hh,3419.2399999999907,response,1.1168199061753437,1.1170709273705193,-1.1636543139937747,1.212287319329914,1.15,-1.1636543139937747,high,high,,ISIC_5682259.JPG,,ISIC_5919355.JPG,28,27,false,0.13,hh,keypress(i),0,true,1209466,1209465,1206042.34,1206043,1206045.76,1209481.9,1,40,15,
sequence,flow.Sequence,8_14,2024-04-26T18:15:35.721Z,,,,,,,,,,,3419.2399999999907,completion,,,,,,,high,high,,,,,,,false,,,,,true,1209466,1209465,1206042.34,1206043,1206045.76,1209481.9,1,40,,
trial,html.Screen,8_15_0,2024-04-26T18:15:44.408Z,,,,2,-0.0071892445601978,0.0246015408628738,,0.04,false,lh,8670.100000000093,response,-1.2609895831255231,1.0670709273705192,-1.1636543139937747,1.0687377724194886,1.0999999999999999,-1.1636543139937747,low,high,,ISIC_0014133.JPG,,ISIC_1367610.JPG,28,29,false,0.30000000000000016,hl,keypress(j),0,true,1218152,1218152,1209465.92,1209466,1209481.9,1218155.64,1,40,16,
sequence,flow.Sequence,8_15,2024-04-26T18:15:44.408Z,,,,,,,,,,,8670.100000000093,completion,,,,,,,low,high,,,,,,,false,,,,,true,1218152,1218152,1209465.92,1209466,1209481.9,1218155.64,1,40,,
trial,html.Screen,8_16_0,2024-04-26T18:15:58.361Z,,,,2,-0.0023664502831079,-0.0252784582169994,,0.04,false,ll,13948.360000000102,response,-1.1671212908494544,1.0670709273705192,-1.1636543139937747,-1.1286681796701683,1.15,-1.1636543139937747,low,low,,ISIC_4156010.JPG,,ISIC_0065022.JPG,28,27,false,0.12,hl,keypress(j),0,true,1232105,1232104,1218153.08,1218153,1218155.64,1232117.04,1,40,17,
sequence,flow.Sequence,8_16,2024-04-26T18:15:58.361Z,,,,,,,,,,,13948.360000000102,completion,,,,,,,low,low,,,,,,,false,,,,,true,1232106,1232104,1218153.08,1218153,1218155.64,1232117.04,1,40,,
trial,html.Screen,8_17_0,2024-04-26T18:16:10.494Z,,,,2,-0.0050679133050021,-0.0174815595031679,,0.04,false,ll,12120.959999999963,response,-1.0884048535189497,1.0670709273705192,-1.1636543139937747,-0.8993771458752091,1.15,-0.9561164440454479,low,low,,ISIC_9848743.JPG,,ISIC_4564960.JPG,28,29,false,0.1,hl,keypress(j),0,true,1244238,1244238,1232105.6,1232106,1232117.04,1244243.62,1,40,18,
sequence,flow.Sequence,8_17,2024-04-26T18:16:10.494Z,,,,,,,,,,,12120.959999999963,completion,,,,,,,low,low,,,,,,,false,,,,,true,1244238,1244238,1232105.6,1232106,1232117.04,1244243.62,1,40,,
trial,html.Screen,8_18_0,2024-04-26T18:16:24.969Z,,,,2,-0.0071892445601978,0.0246015408628738,,0.04,true,hl,14469.379999999888,response,1.1501717278509027,1.0670709273705192,-1.1636543139937747,-0.8228936373136835,1.15,-0.9561164440454479,high,low,,ISIC_0014133.JPG,,ISIC_8398000.JPG,28,26,false,0.22000000000000008,hl,keypress(j),0,true,1258713,1258713,1244238.84,1244239,1244243.62,1258722.1,1,40,19,
sequence,flow.Sequence,8_18,2024-04-26T18:16:24.969Z,,,,,,,,,,,14469.379999999888,completion,,,,,,,high,low,,,,,,,false,,,,,true,1258714,1258713,1244238.84,1244239,1244243.62,1258722.1,1,40,,
trial,html.Screen,8_19_0,2024-04-26T18:16:40.959Z,,,,2,0.010035581303589,-0.0100711721396864,,0.04,,,16013.079999999842,timeout,0.931876071706936,1.0670709273705192,-1.1636543139937747,-0.7205780326045168,1.15,-0.9061164440454479,high,low,,ISIC_0030592.JPG,,ISIC_0032426.JPG,28,25,false,0.19000000000000006,,,0,true,1274704,1274704,1258713.6,1258714,1258722.1,1274735.18,1,40,20,
sequence,flow.Sequence,8_19,2024-04-26T18:16:40.960Z,,,,,,,,,,,15981.899999999907,completion,,,,,,,high,low,,,,,,,false,,,,,true,1274705,1274704,1258713.6,1258714,1258722.1,1274735.18,1,40,,
trial,html.Screen,8_20_0,2024-04-26T18:16:47.564Z,,,,2,-0.0050679133050021,-0.0174815595031679,,0.04,false,hl,6572.820000000065,response,1.1224745971429997,1.0670709273705192,-1.1636543139937747,-0.8423270217438888,1.15,-0.9061164440454479,high,low,,ISIC_9848743.JPG,,ISIC_0057032.JPG,28,25,false,0.19000000000000006,hh,keypress(i),0,true,1281308,1281308,1274718.5,1274705,1274735.18,1281323.9,1,40,21,
sequence,flow.Sequence,8_20,2024-04-26T18:16:47.564Z,,,,,,,,,,,6572.820000000065,completion,,,,,,,high,low,,,,,,,false,,,,,true,1281309,1281308,1274718.5,1274705,1274735.18,1281323.9,1,40,,
trial,html.Screen,8_21_0,2024-04-26T18:16:55.506Z,,,,2,-0.0118555311043871,-0.0087774532070196,,0.04,false,hh,7926.100000000093,response,1.0885984639975343,1.0863231624969512,-1.1636543139937747,1.2042618719491294,1.15,-0.9561164440454479,high,high,,ISIC_6488658.JPG,,ISIC_0012740.JPG,28,28,false,0.13,lh,keypress(e),0,true,1289250,1289250,1281308.84,1281309,1281323.9,1289263.7,1,40,22,
sequence,flow.Sequence,8_21,2024-04-26T18:16:55.506Z,,,,,,,,,,,7926.100000000093,completion,,,,,,,high,high,,,,,,,false,,,,,true,1289251,1289250,1281308.84,1281309,1281323.9,1289263.7,1,40,,
trial,html.Screen,8_22_0,2024-04-26T18:17:05.354Z,,,,2,0.0327772618698018,-0.0056908372048728,,0.04,false,ll,9834.300000000047,response,-1.0667480038665316,1.1363231624969512,-1.1636543139937747,-0.9195011628288464,1.15,-0.9561164440454479,low,low,,ISIC_7897925.JPG,,ISIC_0062517.JPG,28,29,false,0.1,hl,keypress(j),0,true,1299098,1299098,1289251.24,1289251,1289263.7,1299105.08,1,40,23,
sequence,flow.Sequence,8_22,2024-04-26T18:17:05.354Z,,,,,,,,,,,9834.300000000047,completion,,,,,,,low,low,,,,,,,false,,,,,true,1299099,1299098,1289251.24,1289251,1289263.7,1299105.08,1,40,,
trial,html.Screen,8_23_0,2024-04-26T18:17:13.287Z,,,,2,0.0086413421586899,0.0360184993500958,,0.04,false,lh,7925.9199999999255,response,-0.9670240379618178,1.1363231624969512,-1.1636543139937747,1.1806404773220665,1.15,-0.9561164440454479,low,high,,ISIC_0010767.JPG,,ISIC_0002288.JPG,28,25,false,0.29000000000000015,hl,keypress(j),0,true,1307031,1307031,1299099.2,1299099,1299105.08,1307044.9,1,40,24,
sequence,flow.Sequence,8_23,2024-04-26T18:17:13.288Z,,,,,,,,,,,7925.9199999999255,completion,,,,,,,low,high,,,,,,,false,,,,,true,1307032,1307031,1299099.2,1299099,1299105.08,1307044.9,1,40,,
trial,html.Screen,8_24_0,2024-04-26T18:17:21.800Z,,,,2,0.0189295602385628,0.0128812415435153,,0.04,false,hl,8500.100000000093,response,1.064425982109969,1.1363231624969512,-1.1636543139937747,-0.958564243697126,1.15,-0.9561164440454479,high,low,,ISIC_0010372.JPG,,ISIC_3203344.JPG,28,29,false,0.2400000000000001,hh,keypress(i),0,true,1315545,1315545,1307031.92,1307032,1307044.9,1315551.84,1,40,25,
sequence,flow.Sequence,8_24,2024-04-26T18:17:21.801Z,,,,,,,,,,,8500.100000000093,completion,,,,,,,high,low,,,,,,,false,,,,,true,1315545,1315545,1307031.92,1307032,1307044.9,1315551.84,1,40,,
trial,html.Screen,8_25_0,2024-04-26T18:17:33.369Z,,,,2,-0.0050679133050021,-0.0174815595031679,,0.04,false,lh,11561.159999999916,response,-1.0700930503975157,1.1363231624969512,-1.1636543139937747,0.923753102263735,1.15,-1.006116444045448,low,high,,ISIC_9848743.JPG,,ISIC_0000022.JPG,28,25,false,0.29000000000000015,hl,keypress(j),0,true,1327113,1327113,1315545.44,1315546,1315551.84,1327127.96,1,40,26,
sequence,flow.Sequence,8_25,2024-04-26T18:17:33.369Z,,,,,,,,,,,11561.159999999916,completion,,,,,,,low,high,,,,,,,false,,,,,true,1327113,1327113,1315545.44,1315546,1315551.84,1327127.96,1,40,,
trial,html.Screen,8_26_0,2024-04-26T18:17:40.439Z,,,,2,0.0063515208248796,0.0194177605767913,,0.04,false,lh,7055.040000000037,response,-0.9873794329144926,1.1363231624969512,-1.1636543139937747,0.9500689037516484,1.15,-1.006116444045448,low,high,,ISIC_5281908.JPG,,ISIC_0013498.JPG,28,25,false,0.29000000000000015,ll,keypress(f),0,true,1334183,1334183,1327113.02,1327113,1327127.96,1334183.72,1,40,27,
sequence,flow.Sequence,8_26,2024-04-26T18:17:40.439Z,,,,,,,,,,,7055.040000000037,completion,,,,,,,low,high,,,,,,,false,,,,,true,1334183,1334183,1327113.02,1327113,1327127.96,1334183.72,1,40,,
trial,html.Screen,8_27_0,2024-04-26T18:17:49.641Z,,,,2,-0.0023664502831079,-0.0252784582169994,,0.04,true,hh,9200.280000000028,response,1.0375203228848855,1.1363231624969512,-1.1636543139937747,1.0256934713188917,1.15,-1.006116444045448,high,high,,ISIC_4156010.JPG,,ISIC_4264600.JPG,28,26,false,0.13,hh,keypress(i),0,true,1343385,1343384,1334183.58,1334183,1334183.72,1343392.96,1,40,28,
sequence,flow.Sequence,8_27,2024-04-26T18:17:49.641Z,,,,,,,,,,,9200.280000000028,completion,,,,,,,high,high,,,,,,,false,,,,,true,1343385,1343384,1334183.58,1334183,1334183.72,1343392.96,1,40,,
trial,html.Screen,8_28_0,2024-04-26T18:17:58.739Z,,,,2,-0.0071892445601978,0.0246015408628738,,0.04,false,hh,9091.040000000037,response,1.0885984639975343,0.9816068971018885,-1.1636543139937747,1.2042618719491294,1.15,-1.006116444045448,high,high,,ISIC_0014133.JPG,,ISIC_0012740.JPG,28,29,false,0.12,hl,keypress(j),0,true,1352484,1352484,1343385.78,1343385,1343392.96,1352500.34,1,40,29,
sequence,flow.Sequence,8_28,2024-04-26T18:17:58.740Z,,,,,,,,,,,9091.040000000037,completion,,,,,,,high,high,,,,,,,false,,,,,true,1352485,1352484,1343385.78,1343385,1343392.96,1352500.34,1,40,,
trial,html.Screen,8_29_0,2024-04-26T18:18:02.265Z,,,,2,-0.0023664502831079,-0.0252784582169994,,0.04,false,hl,3508.659999999916,response,0.7785184841253222,0.9816068971018885,-1.1636543139937747,-0.8564302235174217,1.15,-1.006116444045448,high,low,,ISIC_4156010.JPG,,ISIC_6529073.JPG,28,27,false,0.21000000000000008,hh,keypress(i),0,true,1356009,1356009,1352484.32,1352485,1352500.34,1356019.88,1,40,30,
sequence,flow.Sequence,8_29,2024-04-26T18:18:02.266Z,,,,,,,,,,,3508.659999999916,completion,,,,,,,high,low,,,,,,,false,,,,,true,1356010,1356009,1352484.32,1352485,1352500.34,1356019.88,1,40,,
trial,html.Screen,8_30_0,2024-04-26T18:18:09.928Z,,,,2,-0.0071892445601978,0.0246015408628738,,0.04,false,hh,7652.120000000112,response,0.9520649807922285,0.8835584740614282,-1.1636543139937747,1.2060773672502134,1.15,-1.056116444045448,high,high,,ISIC_0014133.JPG,,ISIC_9439742.JPG,28,26,false,0.1,hl,keypress(j),0,true,1363673,1363672,1356009.98,1356010,1356019.88,1363676.12,1,40,31,
sequence,flow.Sequence,8_30,2024-04-26T18:18:09.929Z,,,,,,,,,,,7652.120000000112,completion,,,,,,,high,high,,,,,,,false,,,,,true,1363673,1363672,1356009.98,1356010,1356019.88,1363676.12,1,40,,
trial,html.Screen,8_31_0,2024-04-26T18:18:18.488Z,,,,2,0.0321039635696159,0.020496766286318,,0.04,true,hl,8555.879999999888,response,0.9013888878932071,0.8835584740614282,-1.1636543139937747,-0.9328095253308732,1.15,-1.056116444045448,high,low,,ISIC_0058063.JPG,,ISIC_0068259.JPG,28,25,false,0.19000000000000006,hl,keypress(j),0,true,1372232,1372232,1363673.36,1363673,1363676.12,1372233.12,1,40,32,
sequence,flow.Sequence,8_31,2024-04-26T18:18:18.488Z,,,,,,,,,,,8555.879999999888,completion,,,,,,,high,low,,,,,,,false,,,,,true,1372233,1372232,1363673.36,1363673,1363676.12,1372233.12,1,40,,
trial,html.Screen,8_32_0,2024-04-26T18:18:28.490Z,,,,2,0.0189295602385628,0.0128812415435153,,0.04,false,hh,10000.879999999888,response,0.7802571573861933,0.8335584740614281,-1.1636543139937747,1.1850687306699164,1.15,-1.056116444045448,high,high,,ISIC_0010372.JPG,,ISIC_5449076.JPG,28,30,false,0.1,hl,keypress(j),0,true,1382234,1382234,1372232.66,1372233,1372233.12,1382241.28,1,40,33,
sequence,flow.Sequence,8_32,2024-04-26T18:18:28.491Z,,,,,,,,,,,10000.879999999888,completion,,,,,,,high,high,,,,,,,false,,,,,true,1382235,1382234,1372232.66,1372233,1372233.12,1382241.28,1,40,,
trial,html.Screen,8_33_0,2024-04-26T18:18:35.239Z,,,,2,0.010035581303589,-0.0100711721396864,,0.04,true,ll,6742.719999999972,response,-1.1320017221158485,0.8335584740614281,-1.1636543139937747,-1.065213496692536,1.15,-1.056116444045448,low,low,,ISIC_0030592.JPG,,ISIC_0030597.JPG,28,25,false,0.11,ll,keypress(f),0,true,1388984,1388984,1382235,1382235,1382241.28,1388996.8,1,40,34,
sequence,flow.Sequence,8_33,2024-04-26T18:18:35.239Z,,,,,,,,,,,6742.719999999972,completion,,,,,,,low,low,,,,,,,false,,,,,true,1388984,1388984,1382235,1382235,1382241.28,1388996.8,1,40,,
trial,html.Screen,8_34_0,2024-04-26T18:18:42.954Z,,,,2,0.0189295602385628,0.0128812415435153,,0.04,true,lh,7700.199999999953,response,-0.887838744955182,0.8335584740614281,-1.1136543139937747,1.3716210719758812,1.15,-1.006116444045448,low,high,,ISIC_0010372.JPG,,ISIC_1488727.JPG,28,27,false,0.2600000000000001,lh,keypress(e),0,true,1396698,1396697,1388983.76,1388984,1388996.8,1396703.1,1,40,35,
sequence,flow.Sequence,8_34,2024-04-26T18:18:42.954Z,,,,,,,,,,,7700.199999999953,completion,,,,,,,low,high,,,,,,,false,,,,,true,1396698,1396697,1388983.76,1388984,1388996.8,1396703.1,1,40,,
trial,html.Screen,8_35_0,2024-04-26T18:18:53.738Z,,,,2,-0.0071892445601978,0.0246015408628738,,0.04,false,hh,10777.899999999907,response,0.7420011978639511,0.8335584740614281,-1.1136543139937747,1.1041327586353054,1.15,-1.006116444045448,high,high,,ISIC_0014133.JPG,,ISIC_9756858.JPG,28,30,false,0.1,hl,keypress(j),0,true,1407481,1407481,1396698.68,1396698,1396703.1,1407495.24,1,40,36,
sequence,flow.Sequence,8_35,2024-04-26T18:18:53.738Z,,,,,,,,,,,10777.899999999907,completion,,,,,,,high,high,,,,,,,false,,,,,true,1407483,1407481,1396698.68,1396698,1396703.1,1407495.24,1,40,,
trial,html.Screen,8_36_0,2024-04-26T18:19:00.094Z,,,,2,-0.0023664502831079,-0.0252784582169994,,0.04,false,lh,6342.760000000009,response,-0.9566823908868002,1.0068111349199163,-1.1136543139937747,0.9602125665128364,1.15,-1.006116444045448,low,high,,ISIC_4156010.JPG,,ISIC_0056784.JPG,28,27,false,0.2600000000000001,hl,keypress(j),0,true,1413838,1413838,1407482.68,1407483,1407495.24,1413850.44,1,40,37,
sequence,flow.Sequence,8_36,2024-04-26T18:19:00.095Z,,,,,,,,,,,6342.760000000009,completion,,,,,,,low,high,,,,,,,false,,,,,true,1413838,1413838,1407482.68,1407483,1407495.24,1413850.44,1,40,,
trial,html.Screen,8_37_0,2024-04-26T18:19:13.736Z,,,,2,0.0199897690678184,0.0312486875504497,,0.04,true,hh,13629.560000000056,response,0.881950258866775,1.0068111349199163,-1.1636543139937747,1.1045276933275867,1.15,-1.006116444045448,high,high,,ISIC_5482426.JPG,,ISIC_4718237.JPG,28,30,false,0.13,hh,keypress(i),0,true,1427480,1427480,1413838.68,1413839,1413850.44,1427494.9,1,40,38,
sequence,flow.Sequence,8_37,2024-04-26T18:19:13.736Z,,,,,,,,,,,13629.560000000056,completion,,,,,,,high,high,,,,,,,false,,,,,true,1427481,1427480,1413838.68,1413839,1413850.44,1427494.9,1,40,,
trial,html.Screen,8_38_0,2024-04-26T18:19:24.830Z,,,,2,0.0327772618698018,-0.0056908372048728,,0.04,false,lh,11079.100000000093,response,-0.887838744955182,1.0068111349199163,-1.1636543139937747,1.3716210719758812,1.15,-1.006116444045448,low,high,,ISIC_7897925.JPG,,ISIC_1488727.JPG,28,25,false,0.29000000000000015,hl,keypress(j),0,true,1438574,1438574,1427481.08,1427481,1427494.9,1438587.3,1,40,39,
sequence,flow.Sequence,8_38,2024-04-26T18:19:24.830Z,,,,,,,,,,,11079.100000000093,completion,,,,,,,low,high,,,,,,,false,,,,,true,1438574,1438574,1427481.08,1427481,1427494.9,1438587.3,1,40,,
trial,html.Screen,8_39_0,2024-04-26T18:19:29.634Z,,,,2,-0.0023664502831079,-0.0252784582169994,,0.04,true,hh,4790.699999999953,response,0.8789245418555859,1.0068111349199163,-1.1636543139937747,1.207575413157872,1.15,-1.006116444045448,high,high,,ISIC_4156010.JPG,,ISIC_0001602.JPG,28,30,false,0.13,hh,keypress(i),0,true,1443378,1443378,1438574.88,1438575,1438587.3,1443391.22,1,40,40,
sequence,flow.Sequence,8_39,2024-04-26T18:19:29.634Z,,,,,,,,,,,4790.699999999953,completion,,,,,,,high,high,,,,,,,false,,,,,true,1443378,1443378,1438574.88,1438575,1438587.3,1443391.22,1,40,,
stair_loop,flow.Loop,8,2024-04-26T18:19:29.634Z,,,,,,,,,,,387225.8799999999,completion,,,,,,,,,,,,,,,false,,,,,true,1443379,1443378,1056151.98,1056152,1056152.12,1443391.22,1,40,,
exp_instructions,html.Screen,9,2024-04-26T18:20:11.865Z,,,,,,,,,,,42211.78000000003,response,,,,,,,,,,,,,,,,,continue,keypress(Space),,,1485609,1485603,1443379.12,1443379,1443391.22,1485625.72,,,,
trial,html.Screen,10_0_0,2024-04-26T18:20:22.377Z,,,,1,0.0086413421586899,0.0360184993500958,,0.04,false,hh,10495.280000000028,response,1.0901635293704552,1.0031571121550598,-1.1561543139937744,1.0348352814358883,1.1499999999999997,-1.0011164440454479,high,high,,ISIC_0010767.JPG,5,ISIC_7583134.JPG,28,30,false,0.13,hl,keypress(j),0,false,1496121,1496121,1485610.38,1485610,1485625.72,1496134.3,5,600,1,
break,html.Screen,10_0_1,2024-04-26T18:20:22.378Z,,,,,,,,,,,NaN,,,,,,,,high,high,,,,,,,false,,,,,false,1496122,1496122,,1496121,,1496134.3,5,600,,
break_continue,html.Screen,10_0_2,2024-04-26T18:20:22.378Z,,,,,,,,,,,NaN,,,,,,,,high,high,,,,,,,false,,,,,false,1496123,1496123,,1496122,,1496134.3,5,600,,
sequence,flow.Sequence,10_0,2024-04-26T18:20:22.378Z,,,,,,,,,,,10497.280000000028,completion,,,,,,,high,high,,,,,,,false,,,,,false,1496123,1496123,1485610.38,1485610,1485625.72,1496134.3,5,600,,
trial,html.Screen,10_1_0,2024-04-26T18:20:29.252Z,,,,1,0.0086413421586899,0.0360184993500958,,0.04,false,hl,6860.699999999953,response,1.00615481805876,1.0031571121550598,-1.1561543139937744,-0.8428903771195875,1.1499999999999997,-1.0011164440454479,high,low,,ISIC_0010767.JPG,19,ISIC_0069970.JPG,28,25,false,0.20000000000000007,ll,keypress(f),0,false,1502996,1502995,1496121.08,1496123,1496134.3,1503006.58,5,600,2,
break,html.Screen,10_1_1,2024-04-26T18:20:29.253Z,,,,,,,,,,,NaN,,,,,,,,high,low,,,,,,,false,,,,,false,1502998,1502996,,1502996,,1503006.58,5,600,,
break_continue,html.Screen,10_1_2,2024-04-26T18:20:29.254Z,,,,,,,,,,,NaN,,,,,,,,high,low,,,,,,,false,,,,,false,1502998,1502998,,1502998,,1503006.58,5,600,,
sequence,flow.Sequence,10_1,2024-04-26T18:20:29.254Z,,,,,,,,,,,6863.699999999953,completion,,,,,,,high,low,,,,,,,false,,,,,false,1502998,1502998,1496121.08,1496123,1496134.3,1503006.58,5,600,,
trial,html.Screen,10_2_0,2024-04-26T18:20:39.640Z,,,,1,-0.0377791839943904,0.0227626648172468,,0.04,false,lh,10378.419999999925,response,-1.1592423187534993,1.0031571121550598,-1.1561543139937744,1.067128884093211,1.1499999999999997,-1.0011164440454479,low,high,,ISIC_7167479.JPG,24,ISIC_6854940.JPG,28,27,false,0.29000000000000015,hh,keypress(i),0,false,1513385,1513385,1502996.32,1502998,1503006.58,1513398.4,5,600,3,
break,html.Screen,10_2_1,2024-04-26T18:20:39.641Z,,,,,,,,,,,NaN,,,,,,,,low,high,,,,,,,false,,,,,false,1513386,1513386,,1513385,,1513398.4,5,600,,
break_continue,html.Screen,10_2_2,2024-04-26T18:20:39.642Z,,,,,,,,,,,NaN,,,,,,,,low,high,,,,,,,false,,,,,false,1513386,1513386,,1513386,,1513398.4,5,600,,
sequence,flow.Sequence,10_2,2024-04-26T18:20:39.642Z,,,,,,,,,,,10379.419999999925,completion,,,,,,,low,high,,,,,,,false,,,,,false,1513387,1513386,1502996.32,1502998,1503006.58,1513398.4,5,600,,
trial,html.Screen,10_3_0,2024-04-26T18:20:47.672Z,,,,1,0.0063515208248796,0.0194177605767913,,0.04,true,hl,8017.600000000093,response,1.1501717278509027,1.0031571121550598,-1.1561543139937744,-0.8228936373136835,1.1499999999999997,-1.0011164440454479,high,low,,ISIC_5281908.JPG,6,ISIC_8398000.JPG,28,25,false,0.20000000000000007,hl,keypress(j),0,false,1521417,1521416,1513385.24,1513387,1513398.4,1521423.14,5,600,4,
break,html.Screen,10_3_1,2024-04-26T18:20:47.673Z,,,,,,,,,,,NaN,,,,,,,,high,low,,,,,,,false,,,,,false,1521418,1521417,,1521417,,1521423.14,5,600,,
break_continue,html.Screen,10_3_2,2024-04-26T18:20:47.674Z,,,,,,,,,,,NaN,,,,,,,,high,low,,,,,,,false,,,,,false,1521418,1521418,,1521418,,1521423.14,5,600,,
sequence,flow.Sequence,10_3,2024-04-26T18:20:47.674Z,,,,,,,,,,,8019.600000000093,completion,,,,,,,high,low,,,,,,,false,,,,,false,1521419,1521418,1513385.24,1513387,1513398.4,1521423.14,5,600,,
trial,html.Screen,10_4_0,2024-04-26T18:20:57.016Z,,,,1,0.0189295602385628,0.0128812415435153,,0.04,false,hh,9336.860000000102,response,0.9949679201447648,1.0031571121550598,-1.1561543139937744,1.0468574143792184,1.1499999999999997,-1.0011164440454479,high,high,,ISIC_0010372.JPG,28,ISIC_6640753.JPG,28,30,false,0.13,hl,keypress(j),0,false,1530760,1530760,1521416.9,1521419,1521423.14,1530764.1,5,600,5,
break,html.Screen,10_4_1,2024-04-26T18:20:57.017Z,,,,,,,,,,,NaN,,,,,,,,high,high,,,,,,,false,,,,,false,1530762,1530761,,1530761,,1530764.1,5,600,,
break_continue,html.Screen,10_4_2,2024-04-26T18:20:57.017Z,,,,,,,,,,,NaN,,,,,,,,high,high,,,,,,,false,,,,,false,1530762,1530762,,1530762,,1530764.1,5,600,,
sequence,flow.Sequence,10_4,2024-04-26T18:20:57.018Z,,,,,,,,,,,9338.860000000102,completion,,,,,,,high,high,,,,,,,false,,,,,false,1530762,1530762,1521416.9,1521419,1521423.14,1530764.1,5,600,,
trial,html.Screen,10_5_0,2024-04-26T18:21:05.160Z,,,,1,0.0361875505619981,-0.0291457404567876,,0.04,false,hl,8139.899999999907,response,0.9013888878932071,1.0031571121550598,-1.1561543139937744,-0.9328095253308732,1.1499999999999997,-1.0011164440454479,high,low,,ISIC_0027480.JPG,3,ISIC_0068259.JPG,28,25,false,0.20000000000000007,hh,keypress(i),0,false,1538905,1538904,1530760.88,1530762,1530764.1,1538920.76,5,600,6,
break,html.Screen,10_5_1,2024-04-26T18:21:05.161Z,,,,,,,,,,,NaN,,,,,,,,high,low,,,,,,,false,,,,,false,1538906,1538905,,1538905,,1538920.76,5,600,,
break_continue,html.Screen,10_5_2,2024-04-26T18:21:05.161Z,,,,,,,,,,,NaN,,,,,,,,high,low,,,,,,,false,,,,,false,1538906,1538906,,1538906,,1538920.76,5,600,,
sequence,flow.Sequence,10_5,2024-04-26T18:21:05.161Z,,,,,,,,,,,8141.899999999907,completion,,,,,,,high,low,,,,,,,false,,,,,false,1538906,1538906,1530760.88,1530762,1530764.1,1538920.76,5,600,,
trial,html.Screen,10_6_0,2024-04-26T18:21:20.201Z,,,,1,0.0086413421586899,0.0360184993500958,,0.04,true,hh,15024.23999999999,response,0.9133847107512522,1.0031571121550598,-1.1561543139937744,1.1467555629414397,1.1499999999999997,-1.0011164440454479,high,high,,ISIC_0010767.JPG,20,ISIC_0032171.JPG,28,30,false,0.13,hh,keypress(i),0,false,1553945,1553945,1538904.68,1538906,1538920.76,1553949.7,5,600,7,
break,html.Screen,10_6_1,2024-04-26T18:21:20.202Z,,,,,,,,,,,NaN,,,,,,,,high,high,,,,,,,false,,,,,false,1553946,1553946,,1553945,,1553949.7,5,600,,
break_continue,html.Screen,10_6_2,2024-04-26T18:21:20.203Z,,,,,,,,,,,NaN,,,,,,,,high,high,,,,,,,false,,,,,false,1553947,1553947,,1553947,,1553949.7,5,600,,
sequence,flow.Sequence,10_6,2024-04-26T18:21:20.203Z,,,,,,,,,,,15026.23999999999,completion,,,,,,,high,high,,,,,,,false,,,,,false,1553947,1553947,1538904.68,1538906,1538920.76,1553949.7,5,600,,
trial,html.Screen,10_7_0,2024-04-26T18:21:27.607Z,,,,1,-0.0077673378094614,-0.0021810768579373,,0.04,true,ll,7401.300000000047,response,-1.086780249085418,1.0031571121550598,-1.1561543139937744,-0.8982771817382743,1.1499999999999997,-1.0011164440454479,low,low,,ISIC_0067621.JPG,1,ISIC_0057821.JPG,28,27,false,0.11,ll,keypress(f),0,false,1561351,1561351,1553945.54,1553947,1553949.7,1561355.74,5,600,8,
break,html.Screen,10_7_1,2024-04-26T18:21:27.608Z,,,,,,,,,,,NaN,,,,,,,,low,low,,,,,,,false,,,,,false,1561353,1561352,,1561352,,1561355.74,5,600,,
break_continue,html.Screen,10_7_2,2024-04-26T18:21:27.610Z,,,,,,,,,,,NaN,,,,,,,,low,low,,,,,,,false,,,,,false,1561353,1561353,,1561353,,1561355.74,5,600,,
sequence,flow.Sequence,10_7,2024-04-26T18:21:27.610Z,,,,,,,,,,,7403.300000000047,completion,,,,,,,low,low,,,,,,,false,,,,,false,1561353,1561353,1553945.54,1553947,1553949.7,1561355.74,5,600,,
trial,html.Screen,10_8_0,2024-04-26T18:21:32.707Z,,,,1,-0.012020985739544,0.0126097407389903,,0.04,false,hl,5095.260000000009,response,0.8591294258188253,1.0031571121550598,-1.1561543139937744,-0.870797302150167,1.1499999999999997,-1.0011164440454479,high,low,,ISIC_0069379.JPG,4,ISIC_0055841.JPG,28,25,false,0.20000000000000007,hh,keypress(i),0,false,1566451,1566451,1561352.14,1561354,1561355.74,1566459.92,5,600,9,
break,html.Screen,10_8_1,2024-04-26T18:21:32.707Z,,,,,,,,,,,NaN,,,,,,,,high,low,,,,,,,false,,,,,false,1566452,1566452,,1566451,,1566459.92,5,600,,
break_continue,html.Screen,10_8_2,2024-04-26T18:21:32.708Z,,,,,,,,,,,NaN,,,,,,,,high,low,,,,,,,false,,,,,false,1566452,1566452,,1566452,,1566459.92,5,600,,
sequence,flow.Sequence,10_8,2024-04-26T18:21:32.708Z,,,,,,,,,,,5096.260000000009,completion,,,,,,,high,low,,,,,,,false,,,,,false,1566453,1566452,1561352.14,1561353,1561355.74,1566459.92,5,600,,
trial,html.Screen,10_9_0,2024-04-26T18:21:44.600Z,,,,1,-0.0118555311043871,-0.0087774532070196,,0.04,false,hl,11884.080000000075,response,0.8152354890677903,1.0031571121550598,-1.1561543139937744,-1.10470584815077,1.1499999999999997,-1.0011164440454479,high,low,,ISIC_6488658.JPG,18,ISIC_0010283.JPG,28,25,false,0.20000000000000007,lh,keypress(e),0,false,1578345,1578344,1566451.08,1566453,1566459.92,1578352.96,5,600,10,
break,html.Screen,10_9_1,2024-04-26T18:21:44.601Z,,,,,,,,,,,NaN,,,,,,,,high,low,,,,,,,false,,,,,false,1578345,1578345,,1578345,,1578352.96,5,600,,
break_continue,html.Screen,10_9_2,2024-04-26T18:21:44.601Z,,,,,,,,,,,NaN,,,,,,,,high,low,,,,,,,false,,,,,false,1578346,1578346,,1578345,,1578352.96,5,600,,
sequence,flow.Sequence,10_9,2024-04-26T18:21:44.602Z,,,,,,,,,,,11886.080000000075,completion,,,,,,,high,low,,,,,,,false,,,,,false,1578346,1578346,1566451.08,1566453,1566459.92,1578352.96,5,600,,
trial,html.Screen,10_10_0,2024-04-26T18:21:51.256Z,,,,1,-0.0158987717472563,-0.0292472192292015,,0.04,true,ll,6647.040000000037,response,-1.1865123670952926,1.0031571121550598,-1.1561543139937744,-0.984272725788402,1.1499999999999997,-1.0011164440454479,low,low,,ISIC_1366765.JPG,29,ISIC_7096389.JPG,28,27,false,0.11,ll,keypress(f),0,false,1585000,1585000,1578344.54,1578346,1578352.96,1585008.4,5,600,11,
break,html.Screen,10_10_1,2024-04-26T18:21:51.257Z,,,,,,,,,,,NaN,,,,,,,,low,low,,,,,,,false,,,,,false,1585001,1585001,,1585000,,1585008.4,5,600,,
break_continue,html.Screen,10_10_2,2024-04-26T18:21:51.257Z,,,,,,,,,,,NaN,,,,,,,,low,low,,,,,,,false,,,,,false,1585001,1585001,,1585001,,1585008.4,5,600,,
sequence,flow.Sequence,10_10,2024-04-26T18:21:51.257Z,,,,,,,,,,,6648.040000000037,completion,,,,,,,low,low,,,,,,,false,,,,,false,1585001,1585001,1578344.54,1578346,1578352.96,1585008.4,5,600,,
trial,html.Screen,10_11_0,2024-04-26T18:22:00.505Z,,,,1,0.0127320821962457,-0.0315308940184827,,0.04,false,ll,9240.600000000093,response,-1.0667480038665316,1.0031571121550598,-1.1561543139937744,-0.9195011628288464,1.1499999999999997,-1.0011164440454479,low,low,,ISIC_8156101.JPG,14,ISIC_0062517.JPG,28,27,false,0.11,hh,keypress(i),0,false,1594250,1594249,1585000.2,1585001,1585008.4,1594265.96,5,600,12,
break,html.Screen,10_11_1,2024-04-26T18:22:00.506Z,,,,,,,,,,,NaN,,,,,,,,low,low,,,,,,,false,,,,,false,1594250,1594250,,1594250,,1594265.96,5,600,,
break_continue,html.Screen,10_11_2,2024-04-26T18:22:00.506Z,,,,,,,,,,,NaN,,,,,,,,low,low,,,,,,,false,,,,,false,1594251,1594251,,1594250,,1594265.96,5,600,,
sequence,flow.Sequence,10_11,2024-04-26T18:22:00.507Z,,,,,,,,,,,9242.600000000093,completion,,,,,,,low,low,,,,,,,false,,,,,false,1594251,1594251,1585000.2,1585001,1585008.4,1594265.96,5,600,,
trial,html.Screen,10_12_0,2024-04-26T18:22:09.561Z,,,,1,-0.0158987717472563,-0.0292472192292015,,0.04,false,ll,9039.040000000037,response,-1.084683602025889,1.0031571121550598,-1.1561543139937744,-1.0111744161375118,1.1499999999999997,-1.0011164440454479,low,low,,ISIC_1366765.JPG,0,ISIC_0069946.JPG,28,27,false,0.11,lh,keypress(e),0,false,1603306,1603305,1594249.9,1594251,1594265.96,1603306.66,5,600,13,
break,html.Screen,10_12_1,2024-04-26T18:22:09.563Z,,,,,,,,,,,NaN,,,,,,,,low,low,,,,,,,false,,,,,false,1603308,1603307,,1603306,,1603306.66,5,600,,
break_continue,html.Screen,10_12_2,2024-04-26T18:22:09.564Z,,,,,,,,,,,NaN,,,,,,,,low,low,,,,,,,false,,,,,false,1603308,1603308,,1603308,,1603306.66,5,600,,
sequence,flow.Sequence,10_12,2024-04-26T18:22:09.564Z,,,,,,,,,,,9042.040000000037,completion,,,,,,,low,low,,,,,,,false,,,,,false,1603309,1603308,1594249.9,1594251,1594265.96,1603306.66,5,600,,
trial,html.Screen,10_13_0,2024-04-26T18:22:16.825Z,,,,1,-0.012810673904807,0.00400964452501,,0.04,false,ll,7262.340000000084,response,-1.143881656046846,1.0031571121550598,-1.1561543139937744,-0.9998119797725442,1.1499999999999997,-1.0011164440454479,low,low,,ISIC_0064656.JPG,14,ISIC_8685259.JPG,28,27,false,0.11,hh,keypress(i),0,false,1610570,1610569,1603306.14,1603309,1603306.66,1610579.28,5,600,14,
break,html.Screen,10_13_1,2024-04-26T18:22:16.827Z,,,,,,,,,,,NaN,,,,,,,,low,low,,,,,,,false,,,,,false,1610571,1610571,,1610570,,1610579.28,5,600,,
break_continue,html.Screen,10_13_2,2024-04-26T18:22:16.827Z,,,,,,,,,,,NaN,,,,,,,,low,low,,,,,,,false,,,,,false,1610572,1610571,,1610571,,1610579.28,5,600,,
sequence,flow.Sequence,10_13,2024-04-26T18:22:16.828Z,,,,,,,,,,,7264.340000000084,completion,,,,,,,low,low,,,,,,,false,,,,,false,1610572,1610571,1603306.14,1603309,1603306.66,1610579.28,5,600,,
trial,html.Screen,10_14_0,2024-04-26T18:22:25.351Z,,,,1,-0.0399381815506136,-0.0177751789152893,,0.04,false,lh,8514.719999999972,response,-1.2463522959513311,1.0031571121550598,-1.1561543139937744,0.8691422647859491,1.1499999999999997,-1.0011164440454479,low,high,,ISIC_3981425.JPG,19,ISIC_0057192.JPG,28,27,false,0.29000000000000015,ll,keypress(f),0,false,1619095,1619094,1610570.1,1610572,1610579.28,1619102.9,5,600,15,
break,html.Screen,10_14_1,2024-04-26T18:22:25.351Z,,,,,,,,,,,NaN,,,,,,,,low,high,,,,,,,false,,,,,false,1619095,1619095,,1619095,,1619102.9,5,600,,
break_continue,html.Screen,10_14_2,2024-04-26T18:22:25.351Z,,,,,,,,,,,NaN,,,,,,,,low,high,,,,,,,false,,,,,false,1619095,1619095,,1619095,,1619102.9,5,600,,
sequence,flow.Sequence,10_14,2024-04-26T18:22:25.351Z,,,,,,,,,,,8515.719999999972,completion,,,,,,,low,high,,,,,,,false,,,,,false,1619095,1619095,1610570.1,1610572,1610579.28,1619102.9,5,600,,
trial,html.Screen,10_15_0,2024-04-26T18:22:31.926Z,,,,1,-0.0060934073440827,-0.0279108145883031,,0.04,false,hh,6567.100000000093,response,1.0581281450494728,1.0031571121550598,-1.1561543139937744,1.133169116569424,1.1499999999999997,-1.0011164440454479,high,high,,ISIC_0032604.JPG,19,ISIC_5490352.JPG,28,30,false,0.13,lh,keypress(e),0,false,1625670,1625670,1619095.06,1619095,1619102.9,1625674.94,5,600,16,
break,html.Screen,10_15_1,2024-04-26T18:22:31.926Z,,,,,,,,,,,NaN,,,,,,,,high,high,,,,,,,false,,,,,false,1625671,1625670,,1625670,,1625674.94,5,600,,
break_continue,html.Screen,10_15_2,2024-04-26T18:22:31.927Z,,,,,,,,,,,NaN,,,,,,,,high,high,,,,,,,false,,,,,false,1625671,1625671,,1625671,,1625674.94,5,600,,
sequence,flow.Sequence,10_15,2024-04-26T18:22:31.927Z,,,,,,,,,,,6568.100000000093,completion,,,,,,,high,high,,,,,,,false,,,,,false,1625671,1625671,1619095.06,1619095,1619102.9,1625674.94,5,600,,
trial,html.Screen,10_16_0,2024-04-26T18:22:38.440Z,,,,1,0.0361875505619981,-0.0291457404567876,,0.04,false,hl,6509.060000000056,response,1.064425982109969,1.0031571121550598,-1.1561543139937744,-0.958564243697126,1.1499999999999997,-1.0011164440454479,high,low,,ISIC_0027480.JPG,30,ISIC_3203344.JPG,28,25,false,0.20000000000000007,hh,keypress(i),0,false,1632184,1632184,1625670.4,1625671,1625674.94,1632196.92,5,600,17,
break,html.Screen,10_16_1,2024-04-26T18:22:38.440Z,,,,,,,,,,,NaN,,,,,,,,high,low,,,,,,,false,,,,,false,1632185,1632184,,1632184,,1632196.92,5,600,,
break_continue,html.Screen,10_16_2,2024-04-26T18:22:38.441Z,,,,,,,,,,,NaN,,,,,,,,high,low,,,,,,,false,,,,,false,1632185,1632185,,1632185,,1632196.92,5,600,,
sequence,flow.Sequence,10_16,2024-04-26T18:22:38.441Z,,,,,,,,,,,6510.060000000056,completion,,,,,,,high,low,,,,,,,false,,,,,false,1632185,1632185,1625670.4,1625671,1625674.94,1632196.92,5,600,,
trial,html.Screen,10_17_0,2024-04-26T18:22:45.719Z,,,,1,-0.0057914759495055,0.018500200317654,,0.04,false,ll,7267.0800000000745,response,-1.256013854574559,1.0031571121550598,-1.1561543139937744,-0.974030949255159,1.1499999999999997,-1.0011164440454479,low,low,,ISIC_0058723.JPG,18,ISIC_9024529.JPG,28,27,false,0.11,lh,keypress(e),0,false,1639464,1639464,1632184.4,1632185,1632196.92,1639469.54,5,600,18,
break,html.Screen,10_17_1,2024-04-26T18:22:45.720Z,,,,,,,,,,,NaN,,,,,,,,low,low,,,,,,,false,,,,,false,1639465,1639465,,1639464,,1639469.54,5,600,,
break_continue,html.Screen,10_17_2,2024-04-26T18:22:45.721Z,,,,,,,,,,,NaN,,,,,,,,low,low,,,,,,,false,,,,,false,1639465,1639465,,1639465,,1639469.54,5,600,,
sequence,flow.Sequence,10_17,2024-04-26T18:22:45.721Z,,,,,,,,,,,7268.0800000000745,completion,,,,,,,low,low,,,,,,,false,,,,,false,1639465,1639465,1632184.4,1632185,1632196.92,1639469.54,5,600,,
trial,html.Screen,10_18_0,2024-04-26T18:22:57.897Z,,,,1,0.0361875505619981,-0.0291457404567876,,0.04,false,hl,12171.459999999963,response,1.1235224875125256,1.0031571121550598,-1.1561543139937744,-0.8641223012137988,1.1499999999999997,-1.0011164440454479,high,low,,ISIC_0027480.JPG,16,ISIC_0033901.JPG,28,25,false,0.20000000000000007,hh,keypress(i),0,false,1651641,1651641,1639464.2,1639465,1639469.54,1651646.14,5,600,19,
break,html.Screen,10_18_1,2024-04-26T18:22:57.898Z,,,,,,,,,,,NaN,,,,,,,,high,low,,,,,,,false,,,,,false,1651642,1651642,,1651641,,1651646.14,5,600,,
break_continue,html.Screen,10_18_2,2024-04-26T18:22:57.898Z,,,,,,,,,,,NaN,,,,,,,,high,low,,,,,,,false,,,,,false,1651642,1651642,,1651642,,1651646.14,5,600,,
sequence,flow.Sequence,10_18,2024-04-26T18:22:57.898Z,,,,,,,,,,,12172.459999999963,completion,,,,,,,high,low,,,,,,,false,,,,,false,1651643,1651642,1639464.2,1639465,1639469.54,1651646.14,5,600,,
trial,html.Screen,10_19_0,2024-04-26T18:23:09.528Z,,,,1,0.0199897690678184,0.0312486875504497,,0.04,false,lh,11625.860000000102,response,-1.2463522959513311,1.0031571121550598,-1.1561543139937744,0.8691422647859491,1.1499999999999997,-1.0011164440454479,low,high,,ISIC_5482426.JPG,15,ISIC_0057192.JPG,28,27,false,0.29000000000000015,hl,keypress(j),0,false,1663272,1663272,1651641.24,1651643,1651646.14,1663288.98,5,600,20,
break,html.Screen,10_19_1,2024-04-26T18:23:09.529Z,,,,,,,,,,,NaN,,,,,,,,low,high,,,,,,,false,,,,,false,1663273,1663273,,1663273,,1663288.98,5,600,,
break_continue,html.Screen,10_19_2,2024-04-26T18:23:09.530Z,,,,,,,,,,,NaN,,,,,,,,low,high,,,,,,,false,,,,,false,1663274,1663274,,1663273,,1663288.98,5,600,,
sequence,flow.Sequence,10_19,2024-04-26T18:23:09.530Z,,,,,,,,,,,11627.860000000102,completion,,,,,,,low,high,,,,,,,false,,,,,false,1663274,1663274,1651641.24,1651643,1651646.14,1663288.98,5,600,,
trial,html.Screen,10_20_0,2024-04-26T18:23:21.997Z,,,,1,0.0063515208248796,0.0194177605767913,,0.04,false,hl,12452.020000000019,response,1.2018448523268856,1.0031571121550598,-1.1561543139937744,-0.8157731190790072,1.1499999999999997,-1.0011164440454479,high,low,,ISIC_5281908.JPG,29,ISIC_7662993.JPG,28,25,false,0.20000000000000007,hh,keypress(i),0,false,1675741,1675741,1663272.74,1663274,1663288.98,1675750.78,5,600,21,
break,html.Screen,10_20_1,2024-04-26T18:23:21.999Z,,,,,,,,,,,NaN,,,,,,,,high,low,,,,,,,false,,,,,false,1675743,1675742,,1675742,,1675750.78,5,600,,
break_continue,html.Screen,10_20_2,2024-04-26T18:23:21.999Z,,,,,,,,,,,NaN,,,,,,,,high,low,,,,,,,false,,,,,false,1675743,1675743,,1675743,,1675750.78,5,600,,
sequence,flow.Sequence,10_20,2024-04-26T18:23:21.999Z,,,,,,,,,,,12454.020000000019,completion,,,,,,,high,low,,,,,,,false,,,,,false,1675743,1675743,1663272.74,1663274,1663288.98,1675750.78,5,600,,
trial,html.Screen,10_21_0,2024-04-26T18:23:32.024Z,,,,1,-0.0060934073440827,-0.0279108145883031,,0.04,true,ll,10017.219999999972,response,-1.0570280672376675,1.0031571121550598,-1.1561543139937744,-1.0932046580095067,1.1499999999999997,-1.0011164440454479,low,low,,ISIC_0032604.JPG,8,ISIC_0061320.JPG,28,27,false,0.11,ll,keypress(f),0,false,1685769,1685768,1675742.16,1675743,1675750.78,1685775.48,5,600,22,
break,html.Screen,10_21_1,2024-04-26T18:23:32.025Z,,,,,,,,,,,NaN,,,,,,,,low,low,,,,,,,false,,,,,false,1685770,1685769,,1685769,,1685775.48,5,600,,
break_continue,html.Screen,10_21_2,2024-04-26T18:23:32.025Z,,,,,,,,,,,NaN,,,,,,,,low,low,,,,,,,false,,,,,false,1685770,1685770,,1685770,,1685775.48,5,600,,
sequence,flow.Sequence,10_21,2024-04-26T18:23:32.025Z,,,,,,,,,,,10019.219999999972,completion,,,,,,,low,low,,,,,,,false,,,,,false,1685770,1685770,1675742.16,1675743,1675750.78,1685775.48,5,600,,
trial,html.Screen,10_22_0,2024-04-26T18:23:40.647Z,,,,1,-0.0060934073440827,-0.0279108145883031,,0.04,false,hh,8615.520000000019,response,1.011737552725394,1.0031571121550598,-1.1561543139937744,1.0893360711742854,1.1499999999999997,-1.0011164440454479,high,high,,ISIC_0032604.JPG,5,ISIC_2998367.JPG,28,30,false,0.13,ll,keypress(f),0,false,1694392,1694391,1685768.52,1685770,1685775.48,1694399.18,5,600,23,
break,html.Screen,10_22_1,2024-04-26T18:23:40.647Z,,,,,,,,,,,NaN,,,,,,,,high,high,,,,,,,false,,,,,false,1694392,1694392,,1694392,,1694399.18,5,600,,
break_continue,html.Screen,10_22_2,2024-04-26T18:23:40.648Z,,,,,,,,,,,NaN,,,,,,,,high,high,,,,,,,false,,,,,false,1694392,1694392,,1694392,,1694399.18,5,600,,
sequence,flow.Sequence,10_22,2024-04-26T18:23:40.648Z,,,,,,,,,,,8616.520000000019,completion,,,,,,,high,high,,,,,,,false,,,,,false,1694392,1694392,1685768.52,1685770,1685775.48,1694399.18,5,600,,
trial,html.Screen,10_23_0,2024-04-26T18:23:51.913Z,,,,1,-0.012020985739544,0.0126097407389903,,0.04,true,ll,11257.820000000065,response,-1.086780249085418,1.0031571121550598,-1.1561543139937744,-0.8982771817382743,1.1499999999999997,-1.0011164440454479,low,low,,ISIC_0069379.JPG,12,ISIC_0057821.JPG,28,27,false,0.11,ll,keypress(f),0,false,1705657,1705657,1694391.28,1694393,1694399.18,1705658.38,5,600,24,
break,html.Screen,10_23_1,2024-04-26T18:23:51.915Z,,,,,,,,,,,NaN,,,,,,,,low,low,,,,,,,false,,,,,false,1705659,1705658,,1705658,,1705658.38,5,600,,
break_continue,html.Screen,10_23_2,2024-04-26T18:23:51.916Z,,,,,,,,,,,NaN,,,,,,,,low,low,,,,,,,false,,,,,false,1705660,1705659,,1705659,,1705658.38,5,600,,
sequence,flow.Sequence,10_23,2024-04-26T18:23:51.916Z,,,,,,,,,,,11259.820000000065,completion,,,,,,,low,low,,,,,,,false,,,,,false,1705660,1705659,1694391.28,1694393,1694399.18,1705658.38,5,600,,
trial,html.Screen,10_24_0,2024-04-26T18:24:01.176Z,,,,1,-0.0377791839943904,0.0227626648172468,,0.04,false,ll,9261.620000000112,response,-1.143881656046846,1.0031571121550598,-1.1561543139937744,-0.9998119797725442,1.1499999999999997,-1.0011164440454479,low,low,,ISIC_7167479.JPG,11,ISIC_8685259.JPG,28,27,false,0.11,hh,keypress(i),0,false,1714920,1714920,1705657.9,1705661,1705658.38,1714932.62,5,600,25,
break,html.Screen,10_24_1,2024-04-26T18:24:01.176Z,,,,,,,,,,,NaN,,,,,,,,low,low,,,,,,,false,,,,,false,1714920,1714920,,1714920,,1714932.62,5,600,,
break_continue,html.Screen,10_24_2,2024-04-26T18:24:01.177Z,,,,,,,,,,,NaN,,,,,,,,low,low,,,,,,,false,,,,,false,1714921,1714921,,1714921,,1714932.62,5,600,,
sequence,flow.Sequence,10_24,2024-04-26T18:24:01.177Z,,,,,,,,,,,9262.620000000112,completion,,,,,,,low,low,,,,,,,false,,,,,false,1714921,1714921,1705657.9,1705661,1705658.38,1714932.62,5,600,,
trial,html.Screen,10_25_0,2024-04-26T18:24:09.145Z,,,,1,-0.0166849894750452,0.0371614812368835,,0.04,true,hh,7956.379999999888,response,0.92935268789256,1.0031571121550598,-1.1561543139937744,1.2788476366175046,1.1499999999999997,-1.0011164440454479,high,high,,ISIC_6231450.JPG,8,ISIC_0025088.JPG,28,30,false,0.13,hh,keypress(i),0,false,1722889,1722889,1714920.22,1714921,1714932.62,1722905.8,5,600,26,
break,html.Screen,10_25_1,2024-04-26T18:24:09.146Z,,,,,,,,,,,NaN,,,,,,,,high,high,,,,,,,false,,,,,false,1722890,1722890,,1722889,,1722905.8,5,600,,
break_continue,html.Screen,10_25_2,2024-04-26T18:24:09.147Z,,,,,,,,,,,NaN,,,,,,,,high,high,,,,,,,false,,,,,false,1722891,1722890,,1722890,,1722905.8,5,600,,
sequence,flow.Sequence,10_25,2024-04-26T18:24:09.147Z,,,,,,,,,,,7957.379999999888,completion,,,,,,,high,high,,,,,,,false,,,,,false,1722891,1722890,1714920.22,1714921,1714932.62,1722905.8,5,600,,
trial,html.Screen,10_26_0,2024-04-26T18:24:17.441Z,,,,1,-0.0377791839943904,0.0227626648172468,,0.04,true,ll,8280.199999999953,response,-1.086780249085418,1.0031571121550598,-1.1561543139937744,-0.8982771817382743,1.1499999999999997,-1.0011164440454479,low,low,,ISIC_7167479.JPG,1,ISIC_0057821.JPG,28,27,false,0.11,ll,keypress(f),0,false,1731186,1731186,1722889.62,1722891,1722905.8,1731195.9,5,600,27,
break,html.Screen,10_26_1,2024-04-26T18:24:17.444Z,,,,,,,,,,,NaN,,,,,,,,low,low,,,,,,,false,,,,,false,1731188,1731187,,1731187,,1731195.9,5,600,,
break_continue,html.Screen,10_26_2,2024-04-26T18:24:17.445Z,,,,,,,,,,,NaN,,,,,,,,low,low,,,,,,,false,,,,,false,1731189,1731188,,1731188,,1731195.9,5,600,,
sequence,flow.Sequence,10_26,2024-04-26T18:24:17.445Z,,,,,,,,,,,8282.199999999953,completion,,,,,,,low,low,,,,,,,false,,,,,false,1731189,1731188,1722889.62,1722891,1722905.8,1731195.9,5,600,,
trial,html.Screen,10_27_0,2024-04-26T18:24:28.040Z,,,,1,0.0189295602385628,0.0128812415435153,,0.04,false,hh,10588.100000000093,response,1.0885984639975343,1.0031571121550598,-1.1561543139937744,1.2042618719491294,1.1499999999999997,-1.0011164440454479,high,high,,ISIC_0010372.JPG,19,ISIC_0012740.JPG,28,30,false,0.13,ll,keypress(f),0,false,1741784,1741784,1731186.44,1731189,1731195.9,1741787.88,5,600,28,
break,html.Screen,10_27_1,2024-04-26T18:24:28.041Z,,,,,,,,,,,NaN,,,,,,,,high,high,,,,,,,false,,,,,false,1741785,1741785,,1741784,,1741787.88,5,600,,
break_continue,html.Screen,10_27_2,2024-04-26T18:24:28.041Z,,,,,,,,,,,NaN,,,,,,,,high,high,,,,,,,false,,,,,false,1741786,1741786,,1741785,,1741787.88,5,600,,
sequence,flow.Sequence,10_27,2024-04-26T18:24:28.042Z,,,,,,,,,,,10590.100000000093,completion,,,,,,,high,high,,,,,,,false,,,,,false,1741786,1741786,1731186.44,1731189,1731195.9,1741787.88,5,600,,
trial,html.Screen,10_28_0,2024-04-26T18:24:36.933Z,,,,1,-0.0071892445601978,0.0246015408628738,,0.04,false,ll,8889.120000000112,response,-1.0698162624196283,1.0031571121550598,-1.1561543139937744,-1.0648460966097275,1.1499999999999997,-1.0011164440454479,low,low,,ISIC_0014133.JPG,19,ISIC_0030552.JPG,28,27,false,0.11,hh,keypress(i),0,false,1750677,1750677,1741784.62,1741786,1741787.88,1750678.48,5,600,29,
break,html.Screen,10_28_1,2024-04-26T18:24:36.933Z,,,,,,,,,,,NaN,,,,,,,,low,low,,,,,,,false,,,,,false,1750677,1750677,,1750677,,1750678.48,5,600,,
break_continue,html.Screen,10_28_2,2024-04-26T18:24:36.933Z,,,,,,,,,,,NaN,,,,,,,,low,low,,,,,,,false,,,,,false,1750677,1750677,,1750677,,1750678.48,5,600,,
sequence,flow.Sequence,10_28,2024-04-26T18:24:36.933Z,,,,,,,,,,,8889.120000000112,completion,,,,,,,low,low,,,,,,,false,,,,,false,1750677,1750677,1741784.62,1741786,1741787.88,1750678.48,5,600,,
trial,html.Screen,10_29_0,2024-04-26T18:24:44.265Z,,,,1,0.0199897690678184,0.0312486875504497,,0.04,true,ll,7331.520000000019,response,-1.12972273782631,1.0031571121550598,-1.1561543139937744,-1.0374079095766835,1.1499999999999997,-1.0011164440454479,low,low,,ISIC_5482426.JPG,17,ISIC_0032396.JPG,28,27,false,0.11,ll,keypress(f),0,false,1758010,1758010,1750677.04,1750677,1750678.48,1758017.8,5,600,30,
break,html.Screen,10_29_1,2024-04-26T18:24:44.266Z,,,,,,,,,,,NaN,,,,,,,,low,low,,,,,,,false,,,,,false,1758011,1758011,,1758010,,1758017.8,5,600,,
break_continue,html.Screen,10_29_2,2024-04-26T18:24:44.267Z,,,,,,,,,,,NaN,,,,,,,,low,low,,,,,,,false,,,,,false,1758012,1758011,,1758011,,1758017.8,5,600,,
sequence,flow.Sequence,10_29,2024-04-26T18:24:44.267Z,,,,,,,,,,,7332.520000000019,completion,,,,,,,low,low,,,,,,,false,,,,,false,1758012,1758011,1750677.04,1750677,1750678.48,1758017.8,5,600,,
trial,html.Screen,10_30_0,2024-04-26T18:24:53.784Z,,,,1,-0.012810673904807,0.00400964452501,,0.04,true,hh,9510.199999999953,response,0.9840050049609405,1.0031571121550598,-1.1561543139937744,1.1927876559115576,1.1499999999999997,-1.0011164440454479,high,high,,ISIC_0064656.JPG,7,ISIC_8651053.JPG,28,30,false,0.13,hh,keypress(i),0,false,1767528,1767528,1758009.98,1758012,1758017.8,1767542.26,5,600,31,
break,html.Screen,10_30_1,2024-04-26T18:24:53.786Z,,,,,,,,,,,NaN,,,,,,,,high,high,,,,,,,false,,,,,false,1767529,1767529,,1767529,,1767542.26,5,600,,
break_continue,html.Screen,10_30_2,2024-04-26T18:24:53.786Z,,,,,,,,,,,NaN,,,,,,,,high,high,,,,,,,false,,,,,false,1767530,1767530,,1767529,,1767542.26,5,600,,
sequence,flow.Sequence,10_30,2024-04-26T18:24:53.786Z,,,,,,,,,,,9512.199999999953,completion,,,,,,,high,high,,,,,,,false,,,,,false,1767530,1767530,1758009.98,1758012,1758017.8,1767542.26,5,600,,
trial,html.Screen,10_31_0,2024-04-26T18:25:03.142Z,,,,1,-0.0057914759495055,0.018500200317654,,0.04,false,lh,9344.73999999999,response,-0.9046170303418553,1.0031571121550598,-1.1561543139937744,1.0063426986460375,1.1499999999999997,-1.0011164440454479,low,high,,ISIC_0058723.JPG,16,ISIC_0055759.JPG,28,27,false,0.29000000000000015,hl,keypress(j),0,false,1776887,1776887,1767528.78,1767530,1767542.26,1776899.9,5,600,32,
break,html.Screen,10_31_1,2024-04-26T18:25:03.143Z,,,,,,,,,,,NaN,,,,,,,,low,high,,,,,,,false,,,,,false,1776887,1776887,,1776887,,1776899.9,5,600,,
break_continue,html.Screen,10_31_2,2024-04-26T18:25:03.143Z,,,,,,,,,,,NaN,,,,,,,,low,high,,,,,,,false,,,,,false,1776887,1776887,,1776887,,1776899.9,5,600,,
sequence,flow.Sequence,10_31,2024-04-26T18:25:03.143Z,,,,,,,,,,,9344.73999999999,completion,,,,,,,low,high,,,,,,,false,,,,,false,1776888,1776887,1767528.78,1767530,1767542.26,1776899.9,5,600,,
trial,html.Screen,10_32_0,2024-04-26T18:25:13.865Z,,,,1,0.0361875505619981,-0.0291457404567876,,0.04,true,hh,10710.100000000093,response,0.9537595754201148,1.0031571121550598,-1.1561543139937744,1.1342661775432377,1.1499999999999997,-1.0011164440454479,high,high,,ISIC_0027480.JPG,0,ISIC_0741694.JPG,28,30,false,0.13,hh,keypress(i),0,false,1787610,1787610,1776886.92,1776888,1776899.9,1787625.32,5,600,33,
break,html.Screen,10_32_1,2024-04-26T18:25:13.866Z,,,,,,,,,,,NaN,,,,,,,,high,high,,,,,,,false,,,,,false,1787610,1787610,,1787610,,1787625.32,5,600,,
break_continue,html.Screen,10_32_2,2024-04-26T18:25:13.866Z,,,,,,,,,,,NaN,,,,,,,,high,high,,,,,,,false,,,,,false,1787611,1787611,,1787610,,1787625.32,5,600,,
sequence,flow.Sequence,10_32,2024-04-26T18:25:13.867Z,,,,,,,,,,,10711.100000000093,completion,,,,,,,high,high,,,,,,,false,,,,,false,1787611,1787611,1776886.92,1776888,1776899.9,1787625.32,5,600,,
trial,html.Screen,10_33_0,2024-04-26T18:25:25.017Z,,,,1,-0.0060918352854008,0.029032683404407,,0.04,true,hl,11134.679999999935,response,0.9013888878932071,1.0031571121550598,-1.1561543139937744,-0.9328095253308732,1.1499999999999997,-1.0011164440454479,high,low,,ISIC_8436194.JPG,15,ISIC_0068259.JPG,28,25,false,0.20000000000000007,hl,keypress(j),0,false,1798760,1798760,1787609.8,1787611,1787625.32,1798767.76,5,600,34,
break,html.Screen,10_33_1,2024-04-26T18:25:25.018Z,,,,,,,,,,,NaN,,,,,,,,high,low,,,,,,,false,,,,,false,1798761,1798761,,1798760,,1798767.76,5,600,,
break_continue,html.Screen,10_33_2,2024-04-26T18:25:25.018Z,,,,,,,,,,,NaN,,,,,,,,high,low,,,,,,,false,,,,,false,1798762,1798761,,1798761,,1798767.76,5,600,,
sequence,flow.Sequence,10_33,2024-04-26T18:25:25.018Z,,,,,,,,,,,11135.679999999935,completion,,,,,,,high,low,,,,,,,false,,,,,false,1798762,1798761,1787609.8,1787611,1787625.32,1798767.76,5,600,,
trial,html.Screen,10_34_0,2024-04-26T18:25:32.745Z,,,,1,-0.0023664502831079,-0.0252784582169994,,0.04,false,lh,7721.239999999991,response,-1.0961318727760048,1.0031571121550598,-1.1561543139937744,1.2134960228256146,1.1499999999999997,-1.0011164440454479,low,high,,ISIC_4156010.JPG,28,ISIC_9768421.JPG,28,27,false,0.29000000000000015,hh,keypress(i),0,false,1806489,1806489,1798760.78,1798762,1798767.76,1806490.72,5,600,35,
break,html.Screen,10_34_1,2024-04-26T18:25:32.746Z,,,,,,,,,,,NaN,,,,,,,,low,high,,,,,,,false,,,,,false,1806491,1806489,,1806489,,1806490.72,5,600,,
break_continue,html.Screen,10_34_2,2024-04-26T18:25:32.747Z,,,,,,,,,,,NaN,,,,,,,,low,high,,,,,,,false,,,,,false,1806491,1806491,,1806491,,1806490.72,5,600,,
sequence,flow.Sequence,10_34,2024-04-26T18:25:32.747Z,,,,,,,,,,,7723.239999999991,completion,,,,,,,low,high,,,,,,,false,,,,,false,1806491,1806491,1798760.78,1798762,1798767.76,1806490.72,5,600,,
trial,html.Screen,10_35_0,2024-04-26T18:25:40.471Z,,,,1,0.0127320821962457,-0.0315308940184827,,0.04,true,ll,7724.280000000028,response,-1.1399925754091549,1.0031571121550598,-1.1561543139937744,-0.92577667404992,1.1499999999999997,-1.0011164440454479,low,low,,ISIC_8156101.JPG,19,ISIC_7331345.JPG,28,27,false,0.11,ll,keypress(f),0,false,1814215,1814215,1806489.44,1806491,1806490.72,1814230.38,5,600,36,
break,html.Screen,10_35_1,2024-04-26T18:25:40.471Z,,,,,,,,,,,NaN,,,,,,,,low,low,,,,,,,false,,,,,false,1814215,1814215,,1814215,,1814230.38,5,600,,
break_continue,html.Screen,10_35_2,2024-04-26T18:25:40.471Z,,,,,,,,,,,NaN,,,,,,,,low,low,,,,,,,false,,,,,false,1814215,1814215,,1814215,,1814230.38,5,600,,
sequence,flow.Sequence,10_35,2024-04-26T18:25:40.471Z,,,,,,,,,,,7724.280000000028,completion,,,,,,,low,low,,,,,,,false,,,,,false,1814215,1814215,1806489.44,1806491,1806490.72,1814230.38,5,600,,
trial,html.Screen,10_36_0,2024-04-26T18:25:50.072Z,,,,1,0.0321039635696159,0.020496766286318,,0.04,false,hl,9586.620000000112,response,0.9087169856594104,1.0031571121550598,-1.1561543139937744,-0.8835647084207277,1.1499999999999997,-1.0011164440454479,high,low,,ISIC_0058063.JPG,13,ISIC_0000349.JPG,28,25,false,0.20000000000000007,lh,keypress(e),0,false,1823817,1823817,1814214.72,1814215,1814230.38,1823821.54,5,600,37,
break,html.Screen,10_36_1,2024-04-26T18:25:50.073Z,,,,,,,,,,,NaN,,,,,,,,high,low,,,,,,,false,,,,,false,1823818,1823818,,1823817,,1823821.54,5,600,,
break_continue,html.Screen,10_36_2,2024-04-26T18:25:50.075Z,,,,,,,,,,,NaN,,,,,,,,high,low,,,,,,,false,,,,,false,1823818,1823818,,1823818,,1823821.54,5,600,,
sequence,flow.Sequence,10_36,2024-04-26T18:25:50.075Z,,,,,,,,,,,9587.620000000112,completion,,,,,,,high,low,,,,,,,false,,,,,false,1823818,1823818,1814214.72,1814215,1814230.38,1823821.54,5,600,,
trial,html.Screen,10_37_0,2024-04-26T18:26:01.032Z,,,,1,0.0361875505619981,-0.0291457404567876,,0.04,false,hh,10954.459999999963,response,0.881950258866775,1.0031571121550598,-1.1561543139937744,1.1045276933275867,1.1499999999999997,-1.0011164440454479,high,high,,ISIC_0027480.JPG,15,ISIC_4718237.JPG,28,30,false,0.13,hl,keypress(j),0,false,1834776,1834776,1823816.98,1823818,1823821.54,1834780.5,5,600,38,
break,html.Screen,10_37_1,2024-04-26T18:26:01.033Z,,,,,,,,,,,NaN,,,,,,,,high,high,,,,,,,false,,,,,false,1834777,1834777,,1834777,,1834780.5,5,600,,
break_continue,html.Screen,10_37_2,2024-04-26T18:26:01.034Z,,,,,,,,,,,NaN,,,,,,,,high,high,,,,,,,false,,,,,false,1834778,1834778,,1834777,,1834780.5,5,600,,
sequence,flow.Sequence,10_37,2024-04-26T18:26:01.034Z,,,,,,,,,,,10956.459999999963,completion,,,,,,,high,high,,,,,,,false,,,,,false,1834778,1834778,1823816.98,1823818,1823821.54,1834780.5,5,600,,
trial,html.Screen,10_38_0,2024-04-26T18:26:13.593Z,,,,1,0.0321039635696159,0.020496766286318,,0.04,false,hh,12556.5,response,0.8789245418555859,1.0031571121550598,-1.1561543139937744,1.207575413157872,1.1499999999999997,-1.0011164440454479,high,high,,ISIC_0058063.JPG,13,ISIC_0001602.JPG,28,30,false,0.13,hl,keypress(j),0,false,1847337,1847337,1834776.7,1834778,1834780.5,1847342.44,5,600,39,
break,html.Screen,10_38_1,2024-04-26T18:26:13.593Z,,,,,,,,,,,NaN,,,,,,,,high,high,,,,,,,false,,,,,false,1847338,1847338,,1847337,,1847342.44,5,600,,
break_continue,html.Screen,10_38_2,2024-04-26T18:26:13.594Z,,,,,,,,,,,NaN,,,,,,,,high,high,,,,,,,false,,,,,false,1847339,1847338,,1847338,,1847342.44,5,600,,
sequence,flow.Sequence,10_38,2024-04-26T18:26:13.594Z,,,,,,,,,,,12557.5,completion,,,,,,,high,high,,,,,,,false,,,,,false,1847339,1847338,1834776.7,1834778,1834780.5,1847342.44,5,600,,
trial,html.Screen,10_39_0,2024-04-26T18:26:29.303Z,,,,1,0.0361875505619981,-0.0291457404567876,,0.04,false,ll,15704.560000000056,response,-1.1399925754091549,1.0031571121550598,-1.1561543139937744,-0.92577667404992,1.1499999999999997,-1.0011164440454479,low,low,,ISIC_0027480.JPG,3,ISIC_7331345.JPG,28,27,false,0.11,lh,keypress(e),0,false,1863047,1863047,1847337.1,1847339,1847342.44,1863055.2,5,600,40,
break,html.Screen,10_39_1,2024-04-26T18:26:29.304Z,,,,,,,,,,,NaN,,,,,,,,low,low,,,,,,,false,,,,,false,1863048,1863048,,1863047,,1863055.2,5,600,,
break_continue,html.Screen,10_39_2,2024-04-26T18:26:29.304Z,,,,,,,,,,,NaN,,,,,,,,low,low,,,,,,,false,,,,,false,1863049,1863048,,1863048,,1863055.2,5,600,,
sequence,flow.Sequence,10_39,2024-04-26T18:26:29.305Z,,,,,,,,,,,15705.560000000056,completion,,,,,,,low,low,,,,,,,false,,,,,false,1863049,1863048,1847337.1,1847339,1847342.44,1863055.2,5,600,,
trial,html.Screen,10_40_0,2024-04-26T18:26:39.383Z,,,,1,0.0189295602385628,0.0128812415435153,,0.04,false,hl,10071.800000000047,response,0.849847885203758,1.0031571121550598,-1.1561543139937744,-0.973447384095442,1.1499999999999997,-1.0011164440454479,high,low,,ISIC_0010372.JPG,29,ISIC_9612228.JPG,28,25,false,0.20000000000000007,hh,keypress(i),0,false,1873127,1873127,1863047.78,1863049,1863055.2,1873130.08,5,600,41,
break,html.Screen,10_40_1,2024-04-26T18:26:39.383Z,,,,,,,,,,,NaN,,,,,,,,high,low,,,,,,,false,,,,,false,1873128,1873127,,1873127,,1873130.08,5,600,,
break_continue,html.Screen,10_40_2,2024-04-26T18:26:39.384Z,,,,,,,,,,,NaN,,,,,,,,high,low,,,,,,,false,,,,,false,1873128,1873128,,1873128,,1873130.08,5,600,,
sequence,flow.Sequence,10_40,2024-04-26T18:26:39.384Z,,,,,,,,,,,10072.800000000047,completion,,,,,,,high,low,,,,,,,false,,,,,false,1873128,1873128,1863047.78,1863049,1863055.2,1873130.08,5,600,,
trial,html.Screen,10_41_0,2024-04-26T18:26:46.953Z,,,,1,0.0327772618698018,-0.0056908372048728,,0.04,false,hh,7566.9199999999255,response,1.0730492496332733,1.0031571121550598,-1.1561543139937744,1.0252626598876022,1.1499999999999997,-1.0011164440454479,high,high,,ISIC_7897925.JPG,29,ISIC_0007029.JPG,28,30,false,0.13,hl,keypress(j),0,false,1880697,1880697,1873127.06,1873128,1873130.08,1880702.94,5,600,42,
break,html.Screen,10_41_1,2024-04-26T18:26:46.954Z,,,,,,,,,,,NaN,,,,,,,,high,high,,,,,,,false,,,,,false,1880698,1880698,,1880697,,1880702.94,5,600,,
break_continue,html.Screen,10_41_2,2024-04-26T18:26:46.955Z,,,,,,,,,,,NaN,,,,,,,,high,high,,,,,,,false,,,,,false,1880700,1880699,,1880698,,1880702.94,5,600,,
sequence,flow.Sequence,10_41,2024-04-26T18:26:46.955Z,,,,,,,,,,,7568.9199999999255,completion,,,,,,,high,high,,,,,,,false,,,,,false,1880700,1880699,1873127.06,1873128,1873130.08,1880702.94,5,600,,
trial,html.Screen,10_42_0,2024-04-26T18:26:59.735Z,,,,1,0.0321039635696159,0.020496766286318,,0.04,false,lh,12776.060000000056,response,-1.2463522959513311,1.0031571121550598,-1.1561543139937744,0.8691422647859491,1.1499999999999997,-1.0011164440454479,low,high,,ISIC_0058063.JPG,28,ISIC_0057192.JPG,28,27,false,0.29000000000000015,ll,keypress(f),0,false,1893479,1893479,1880697.86,1880700,1880702.94,1893480.04,5,600,43,
break,html.Screen,10_42_1,2024-04-26T18:26:59.736Z,,,,,,,,,,,NaN,,,,,,,,low,high,,,,,,,false,,,,,false,1893480,1893480,,1893480,,1893480.04,5,600,,
break_continue,html.Screen,10_42_2,2024-04-26T18:26:59.736Z,,,,,,,,,,,NaN,,,,,,,,low,high,,,,,,,false,,,,,false,1893480,1893480,,1893480,,1893480.04,5,600,,
sequence,flow.Sequence,10_42,2024-04-26T18:26:59.736Z,,,,,,,,,,,12777.060000000056,completion,,,,,,,low,high,,,,,,,false,,,,,false,1893481,1893480,1880697.86,1880700,1880702.94,1893480.04,5,600,,
trial,html.Screen,10_43_0,2024-04-26T18:27:07.816Z,,,,1,-0.0377791839943904,0.0227626648172468,,0.04,false,lh,8079.959999999963,response,-1.055319394932912,1.0031571121550598,-1.1561543139937744,1.409116680310466,1.1499999999999997,-1.0011164440454479,low,high,,ISIC_7167479.JPG,28,ISIC_6398669.JPG,28,27,false,0.29000000000000015,hl,keypress(j),0,false,1901560,1901560,1893479.44,1893481,1893480.04,1901569.98,5,600,44,
break,html.Screen,10_43_1,2024-04-26T18:27:07.817Z,,,,,,,,,,,NaN,,,,,,,,low,high,,,,,,,false,,,,,false,1901561,1901561,,1901561,,1901569.98,5,600,,
break_continue,html.Screen,10_43_2,2024-04-26T18:27:07.817Z,,,,,,,,,,,NaN,,,,,,,,low,high,,,,,,,false,,,,,false,1901561,1901561,,1901561,,1901569.98,5,600,,
sequence,flow.Sequence,10_43,2024-04-26T18:27:07.817Z,,,,,,,,,,,8080.959999999963,completion,,,,,,,low,high,,,,,,,false,,,,,false,1901562,1901561,1893479.44,1893481,1893480.04,1901569.98,5,600,,
trial,html.Screen,10_44_0,2024-04-26T18:27:19.488Z,,,,1,-0.012810673904807,0.00400964452501,,0.04,false,hl,11662.020000000019,response,1.00615481805876,1.0031571121550598,-1.1561543139937744,-0.8428903771195875,1.1499999999999997,-1.0011164440454479,high,low,,ISIC_0064656.JPG,1,ISIC_0069970.JPG,28,25,false,0.20000000000000007,hh,keypress(i),0,false,1913233,1913232,1901560.92,1901562,1901569.98,1913246.18,5,600,45,
break,html.Screen,10_44_1,2024-04-26T18:27:19.489Z,,,,,,,,,,,NaN,,,,,,,,high,low,,,,,,,false,,,,,false,1913234,1913234,,1913233,,1913246.18,5,600,,
break_continue,html.Screen,10_44_2,2024-04-26T18:27:19.490Z,,,,,,,,,,,NaN,,,,,,,,high,low,,,,,,,false,,,,,false,1913234,1913234,,1913234,,1913246.18,5,600,,
sequence,flow.Sequence,10_44,2024-04-26T18:27:19.490Z,,,,,,,,,,,11664.020000000019,completion,,,,,,,high,low,,,,,,,false,,,,,false,1913234,1913234,1901560.92,1901562,1901569.98,1913246.18,5,600,,
trial,html.Screen,10_45_0,2024-04-26T18:27:26.920Z,,,,1,-0.0071892445601978,0.0246015408628738,,0.04,false,ll,7416.820000000065,response,-1.056384093543893,1.0031571121550598,-1.1561543139937744,-0.9175933839600456,1.1499999999999997,-1.0011164440454479,low,low,,ISIC_0014133.JPG,19,ISIC_0064247.JPG,28,27,false,0.11,hl,keypress(j),0,false,1920663,1920663,1913232.66,1913234,1913246.18,1920668.92,5,600,46,
break,html.Screen,10_45_1,2024-04-26T18:27:26.921Z,,,,,,,,,,,NaN,,,,,,,,low,low,,,,,,,false,,,,,false,1920664,1920664,,1920663,,1920668.92,5,600,,
break_continue,html.Screen,10_45_2,2024-04-26T18:27:26.921Z,,,,,,,,,,,NaN,,,,,,,,low,low,,,,,,,false,,,,,false,1920665,1920665,,1920664,,1920668.92,5,600,,
sequence,flow.Sequence,10_45,2024-04-26T18:27:26.921Z,,,,,,,,,,,7418.820000000065,completion,,,,,,,low,low,,,,,,,false,,,,,false,1920665,1920665,1913232.66,1913234,1913246.18,1920668.92,5,600,,
trial,html.Screen,10_46_0,2024-04-26T18:27:32.322Z,,,,1,-0.0057914759495055,0.018500200317654,,0.04,true,hh,5397.0800000000745,response,0.8962405503857854,1.0031571121550598,-1.1561543139937744,1.1741471827707293,1.1499999999999997,-1.0011164440454479,high,high,,ISIC_0058723.JPG,29,ISIC_9278685.JPG,28,30,false,0.13,hh,keypress(i),0,false,1926067,1926066,1920663.92,1920665,1920668.92,1926073.32,5,600,47,
break,html.Screen,10_46_1,2024-04-26T18:27:32.324Z,,,,,,,,,,,NaN,,,,,,,,high,high,,,,,,,false,,,,,false,1926068,1926068,,1926067,,1926073.32,5,600,,
break_continue,html.Screen,10_46_2,2024-04-26T18:27:32.324Z,,,,,,,,,,,NaN,,,,,,,,high,high,,,,,,,false,,,,,false,1926069,1926069,,1926068,,1926073.32,5,600,,
sequence,flow.Sequence,10_46,2024-04-26T18:27:32.325Z,,,,,,,,,,,5400.0800000000745,completion,,,,,,,high,high,,,,,,,false,,,,,false,1926069,1926069,1920663.92,1920665,1920668.92,1926073.32,5,600,,
trial,html.Screen,10_47_0,2024-04-26T18:27:45.145Z,,,,1,0.0321039635696159,0.020496766286318,,0.04,false,ll,12814.679999999935,response,-1.0884048535189497,1.0031571121550598,-1.1561543139937744,-0.8993771458752091,1.1499999999999997,-1.0011164440454479,low,low,,ISIC_0058063.JPG,24,ISIC_4564960.JPG,28,27,false,0.11,hl,keypress(j),0,false,1938889,1938888,1926066.94,1926069,1926073.32,1938900.46,5,600,48,
break,html.Screen,10_47_1,2024-04-26T18:27:45.146Z,,,,,,,,,,,NaN,,,,,,,,low,low,,,,,,,false,,,,,false,1938890,1938890,,1938889,,1938900.46,5,600,,
break_continue,html.Screen,10_47_2,2024-04-26T18:27:45.147Z,,,,,,,,,,,NaN,,,,,,,,low,low,,,,,,,false,,,,,false,1938891,1938891,,1938890,,1938900.46,5,600,,
sequence,flow.Sequence,10_47,2024-04-26T18:27:45.147Z,,,,,,,,,,,12817.679999999935,completion,,,,,,,low,low,,,,,,,false,,,,,false,1938891,1938891,1926066.94,1926069,1926073.32,1938900.46,5,600,,
trial,html.Screen,10_48_0,2024-04-26T18:27:52.392Z,,,,1,0.0199897690678184,0.0312486875504497,,0.04,true,hl,7234.540000000037,response,1.00615481805876,1.0031571121550598,-1.1561543139937744,-0.8428903771195875,1.1499999999999997,-1.0011164440454479,high,low,,ISIC_5482426.JPG,2,ISIC_0069970.JPG,28,25,false,0.20000000000000007,hl,keypress(j),0,false,1946135,1946135,1938889.36,1938891,1938900.46,1946139.72,5,600,49,
break,html.Screen,10_48_1,2024-04-26T18:27:52.393Z,,,,,,,,,,,NaN,,,,,,,,high,low,,,,,,,false,,,,,false,1946136,1946136,,1946136,,1946139.72,5,600,,
break_continue,html.Screen,10_48_2,2024-04-26T18:27:52.393Z,,,,,,,,,,,NaN,,,,,,,,high,low,,,,,,,false,,,,,false,1946136,1946136,,1946136,,1946139.72,5,600,,
