sender,sender_type,sender_id,timestamp,meta,,age,blockNo,c1,c2,condition,control_tolerance,correct,correctResponse,duration,ended_on,f1,f1_high,f1_low,f2,f2_high,f2_low,feature_level1,feature_level2,gender,img_left,img_reveal,img_right,n_control_images,n_target_images,practice,range_tolerance,response,response_action,selection_duration,staircase,time_commit,time_end,time_render,time_run,time_show,time_switch,total_blocks,total_trials,trialNo,url
informed_consent,html.Screen,0,2023-11-27T17:39:14.224Z,"{""labjs_version"":""20.2.4"",""labjs_build"":{""flavor"":""development"",""commit"":""f5b4a49f956347addd546a832a3327688c2c0fef""},""location"":""https://labjs.felixhenninger.com/api/labjs_preview/index.html"",""userAgent"":""Mozilla/5.0 (Windows NT 10.0; Win64; x64) AppleWebKit/537.36 (KHTML, like Gecko) Chrome/119.0.0.0 Safari/537.36"",""platform"":""Win32"",""language"":""en-US"",""locale"":""en-US"",""timeZone"":""America/Chicago"",""timezoneOffset"":360,""screen_width"":1920,""screen_height"":1080,""scroll_width"":945,""scroll_height"":918,""window_innerWidth"":945,""window_innerHeight"":966,""devicePixelRatio"":1}",,,,,,,,,,21596.872,response,,,,,,,,,,,,,,,,,consent,click button,,,22556.799999952316,22547.5,933.95,1184.7999999523163,950.628,22317.428,,,,{}
Demography form,html.Form,1,2023-11-27T17:39:22.416Z,,,18,,,,,,,,8431.371999952316,form submission,,,,,,,,,female,,,,,,,,,,,,30748.89999985695,30748.799999952316,22300.715,22557.099999904633,22317.428,30483.996,,,,
Welcome,html.Screen,2,2023-11-27T17:40:30.464Z,,,,,,,"[""bor"",""col""]",,,,68311.40399985695,response,,,,,,,,,,,,,,,,,continue,click button,,,98796.09999990463,98795.39999985695,30467.356,30749,30483.996,98550.897,,,,
demo_instructions,html.Screen,3,2023-11-27T17:41:36.728Z,,,,,,,,,,,66508.50299985695,response,,,,,,,,,,,,,,,,,continue,click button,,,165059.89999985695,165059.39999985695,98534.081,98796.29999995232,98550.897,164817.518,,,,
trial,html.Screen,4_0_0,2023-11-27T17:41:54.271Z,,,,0,-1.1746004947382946,-1.2207657619249948,,,true,hh,17785.881999856938,response,1.2946277435220357,1.2,-1.2,1.255157480204324,1.2,-1.2,high,high,,ISIC_0012069.JPG,,ISIC_1870309.JPG,,25,true,0.14,hh,keypress(i),100,false,182603.59999990463,182603.39999985695,164801.016,165060.09999990463,164817.518,182367.68,1,16,1,
sequence,flow.Sequence,4_0,2023-11-27T17:41:54.272Z,,,,,,,,,,,17785.881999856938,completion,,,,,,,high,high,,,,,,,true,,,,,false,182604.09999990463,182603.39999985695,164801.016,165060.09999990463,164817.518,182367.68,1,16,,
trial,html.Screen,4_1_0,2023-11-27T17:42:04.938Z,,,,0,-1.0849202097813322,-1.0851127310415287,,,true,hh,10901.91999990464,response,1.252716660627398,1.2,-1.2,1.183977080937476,1.2,-1.2,high,high,,ISIC_0010289.JPG,,ISIC_0034194.JPG,,25,true,0.14,hh,keypress(i),100,false,193269.89999985695,193269.59999990463,182350.934,182604.19999980927,182367.68,193034.303,1,16,2,
sequence,flow.Sequence,4_1,2023-11-27T17:42:04.938Z,,,,,,,,,,,10901.91999990464,completion,,,,,,,high,high,,,,,,,true,,,,,false,193270.09999990463,193269.59999990463,182350.934,182604.09999990463,182367.68,193034.303,1,16,,
trial,html.Screen,4_2_0,2023-11-27T17:42:24.149Z,,,,0,-1.136677654701082,-1.2647850993872314,,,true,hh,19446.496999952302,response,1.0943527860463682,1.2,-1.2,1.124481746658104,1.2,-1.2,high,high,,ISIC_0015436.JPG,,ISIC_0438136.JPG,,25,true,0.14,hh,keypress(i),100,false,212481,212480.79999995232,193017.614,193270.39999985695,193034.303,212250.968,1,16,3,
sequence,flow.Sequence,4_2,2023-11-27T17:42:24.149Z,,,,,,,,,,,19446.496999952302,completion,,,,,,,high,high,,,,,,,true,,,,,false,212481.29999995232,212480.79999995232,193017.614,193270.29999995232,193034.303,212250.968,1,16,,
trial,html.Screen,4_3_0,2023-11-27T17:42:29.885Z,,,,0,-1.136677654701082,-1.2647850993872314,,,true,hh,5966.0320000000065,response,1.0943527860463682,1.2,-1.2,1.124481746658104,1.2,-1.2,high,high,,ISIC_0015436.JPG,,ISIC_0438136.JPG,,25,true,0.14,hh,keypress(i),100,false,218217.19999980927,218217,212234.458,212481.5,212250.968,217984.276,1,16,4,
sequence,flow.Sequence,4_3,2023-11-27T17:42:29.885Z,,,,,,,,,,,5966.0320000000065,completion,,,,,,,high,high,,,,,,,true,,,,,false,218217.39999985695,218217,212234.458,212481.5,212250.968,217984.276,1,16,,
trial,html.Screen,4_4_0,2023-11-27T17:42:46.243Z,,,,0,1.1843968275545205,1.2828739728067764,,,true,ll,16590.82399990462,response,-1.136677654701082,1.2,-1.2,-1.2647850993872314,1.2,-1.2,low,low,,ISIC_0002901.JPG,,ISIC_0015436.JPG,,30,true,0.13,ll,keypress(f),100,false,234575.19999980927,234575.09999990463,217967.639,218217.5,217984.276,234334.311,1,16,5,
sequence,flow.Sequence,4_4,2023-11-27T17:42:46.244Z,,,,,,,,,,,16590.82399990462,completion,,,,,,,low,low,,,,,,,true,,,,,false,234575.39999985695,234575.09999990463,217967.639,218217.39999985695,217984.276,234334.311,1,16,,
trial,html.Screen,4_5_0,2023-11-27T17:42:55.259Z,,,,0,1.2946277435220357,1.255157480204324,,,true,ll,9256.189000000013,response,-1.0769708994456726,1.2,-1.2,-1.2196503533725178,1.2,-1.2,low,low,,ISIC_1870309.JPG,,ISIC_0063824.JPG,,40,true,0.14,ll,keypress(f),100,false,243590.69999980927,243590.5,234317.629,234575.5,234334.311,243350.949,1,16,6,
sequence,flow.Sequence,4_5,2023-11-27T17:42:55.259Z,,,,,,,,,,,9256.189000000013,completion,,,,,,,low,low,,,,,,,true,,,,,false,243591,243590.5,234317.629,234575.5,234334.311,243350.949,1,16,,
trial,html.Screen,4_6_0,2023-11-27T17:43:00.115Z,,,,0,1.2253191093367526,1.241905252673026,,,true,ll,5095.850999952323,response,-1.1243896694621007,1.2,-1.2,-1.1772340944704969,1.2,-1.2,low,low,,ISIC_1195689.JPG,,ISIC_0062765.JPG,,40,true,0.14,ll,keypress(f),100,false,248446.89999985695,248446.79999995232,243334.299,243591.19999980927,243350.949,248217.707,1,16,7,
sequence,flow.Sequence,4_6,2023-11-27T17:43:00.115Z,,,,,,,,,,,5095.850999952323,completion,,,,,,,low,low,,,,,,,true,,,,,false,248447,248446.79999995232,243334.299,243591.09999990463,243350.949,248217.707,1,16,,
trial,html.Screen,4_7_0,2023-11-27T17:43:06.346Z,,,,0,1.2219550761700546,1.2809901875733454,,,true,ll,6460.293000000005,response,-1.1441767540243375,1.2,-1.2,-1.0949087392471728,1.2,-1.2,low,low,,ISIC_6463417.JPG,,ISIC_0054146.JPG,,40,true,0.14,ll,keypress(f),100,false,254678.19999980927,254678,248201.008,248447.09999990463,248217.707,254467.644,1,16,8,
sequence,flow.Sequence,4_7,2023-11-27T17:43:06.347Z,,,,,,,,,,,6460.293000000005,completion,,,,,,,low,low,,,,,,,true,,,,,false,254678.69999980927,254678,248201.008,248447.09999990463,248217.707,254467.644,1,16,,
trial,html.Screen,4_8_0,2023-11-27T17:43:18.712Z,,,,0,0.8926515927689261,-0.7935960767768927,,,true,lh,12575.755999856949,response,-1.2020012168275056,1.2,-1.2,0.923753102263735,1.2,-1.2,low,high,,ISIC_8901371.JPG,,ISIC_0000022.JPG,,27,true,0.40000000000000024,lh,keypress(e),100,false,267043.59999990463,267043.39999985695,254434.367,254678.89999985695,254467.644,266817.639,1,16,9,
sequence,flow.Sequence,4_8,2023-11-27T17:43:18.712Z,,,,,,,,,,,12575.755999856949,completion,,,,,,,low,high,,,,,,,true,,,,,false,267043.7999999523,267043.39999985695,254434.367,254678.79999995232,254467.644,266817.639,1,16,,
trial,html.Screen,4_9_0,2023-11-27T17:43:29.279Z,,,,0,0.989300717252516,-0.7908280206937478,,,true,lh,10793.360999999975,response,-0.8443403196524287,1.2,-1.2,0.8858525429102605,1.2,-1.2,low,high,,ISIC_6416533.JPG,,ISIC_8777813.JPG,,40,true,0.4500000000000003,lh,keypress(e),100,false,277611.2999999523,277611,266801.015,267043.89999985695,266817.639,277384.342,1,16,10,
sequence,flow.Sequence,4_9,2023-11-27T17:43:29.280Z,,,,,,,,,,,10793.360999999975,completion,,,,,,,low,high,,,,,,,true,,,,,false,277611.59999990463,277611,266801.015,267043.89999985695,266817.639,277384.342,1,16,,
trial,html.Screen,4_10_0,2023-11-27T17:43:44.391Z,,,,0,0.989300717252516,-0.7908280206937478,,,true,lh,15337.557999856945,response,-0.7856143618373893,1.2,-1.2,1.0273608829432213,1.2,-1.2,low,high,,ISIC_6416533.JPG,,ISIC_9303849.JPG,,40,true,0.4500000000000003,lh,keypress(e),100,false,292722.09999990463,292721.89999985695,277367.734,277611.69999980927,277384.342,292501.046,1,16,11,
sequence,flow.Sequence,4_10,2023-11-27T17:43:44.391Z,,,,,,,,,,,15337.557999856945,completion,,,,,,,low,high,,,,,,,true,,,,,false,292722.39999985695,292721.89999985695,277367.734,277611.69999980927,277384.342,292501.046,1,16,,
trial,html.Screen,4_11_0,2023-11-27T17:43:57.311Z,,,,0,1.0369885917487718,-0.8486937878412699,,,true,lh,13140.853999856976,response,-0.9662688541319592,1.2,-1.2,0.929746784178986,1.2,-1.2,low,high,,ISIC_6917681.JPG,,ISIC_0011077.JPG,,40,true,0.4500000000000003,lh,keypress(e),100,false,305642.19999980927,305641.89999985695,292467.763,292722.5,292501.046,305417.728,1,16,12,
sequence,flow.Sequence,4_11,2023-11-27T17:43:57.311Z,,,,,,,,,,,13140.853999856976,completion,,,,,,,low,high,,,,,,,true,,,,,false,305642.5,305641.89999985695,292467.763,292722.5,292501.046,305417.728,1,16,,
trial,html.Screen,4_12_0,2023-11-27T17:44:09.463Z,,,,0,-0.8987343013179191,0.8149073454566363,,,true,hl,12376.271999999997,response,1.0369885917487718,1.2,-1.2,-0.8486937878412699,1.2,-1.2,high,low,,ISIC_0472513.JPG,,ISIC_6917681.JPG,,26,true,0.4500000000000003,hl,keypress(j),100,false,317794.19999980927,317794,305384.41,305642.59999990463,305417.728,317567.742,1,16,13,
sequence,flow.Sequence,4_12,2023-11-27T17:44:09.463Z,,,,,,,,,,,12376.271999999997,completion,,,,,,,high,low,,,,,,,true,,,,,false,317794.5,317794,305384.41,305642.59999990463,305417.728,317567.742,1,16,,
trial,html.Screen,4_13_0,2023-11-27T17:44:16.103Z,,,,0,-0.8307508446051526,1.1707575338936729,,,true,hl,6865.957999809238,response,1.0369885917487718,1.2,-1.2,-0.8486937878412699,1.2,-1.2,high,low,,ISIC_0028606.JPG,,ISIC_6917681.JPG,,26,true,0.4500000000000003,hl,keypress(j),100,false,324433.7999999523,324433.69999980927,317551.09,317794.59999990463,317567.742,324201.062,1,16,14,
sequence,flow.Sequence,4_13,2023-11-27T17:44:16.103Z,,,,,,,,,,,6865.957999809238,completion,,,,,,,high,low,,,,,,,true,,,,,false,324434,324433.69999980927,317551.09,317794.59999990463,317567.742,324201.062,1,16,,
trial,html.Screen,4_14_0,2023-11-27T17:44:21.893Z,,,,0,-1.0788024398087033,0.9911875460374616,,,true,hl,6022.837999856973,response,1.0887164761389951,1.2,-1.2,-1.5357518752548716,1.2,-1.2,high,low,,ISIC_5951430.JPG,,ISIC_0028127.JPG,,26,true,0.4500000000000003,hl,keypress(j),100,false,330224.09999990463,330223.89999985695,324184.406,324434,324201.062,330001.094,1,16,15,
sequence,flow.Sequence,4_14,2023-11-27T17:44:21.893Z,,,,,,,,,,,6022.837999856973,completion,,,,,,,high,low,,,,,,,true,,,,,false,330224.39999985695,330223.89999985695,324184.406,324434,324201.062,330001.094,1,16,,
trial,html.Screen,4_15_0,2023-11-27T17:44:31.358Z,,,,0,-0.8987343013179191,0.8149073454566363,,,true,hl,9687.805999856966,response,1.3046390428588206,1.2,-1.2,-0.7942099232219556,1.2,-1.2,high,low,,ISIC_0472513.JPG,,ISIC_0013096.JPG,,26,true,0.4500000000000003,hl,keypress(j),100,false,339688.89999985695,339688.89999985695,329967.766,330224.5,330001.094,339451.114,1,16,16,
sequence,flow.Sequence,4_15,2023-11-27T17:44:31.358Z,,,,,,,,,,,9687.805999856966,completion,,,,,,,high,low,,,,,,,true,,,,,false,339689.09999990463,339688.89999985695,329967.766,330224.5,330001.094,339451.114,1,16,,
demonstration_loop,flow.Loop,4,2023-11-27T17:44:31.358Z,,,,,,,,,,,174871.38199985694,completion,,,,,,,,,,,,,,,true,,,,,false,339689.19999980927,339688.89999985695,164801.016,165060.09999990463,164817.518,339451.114,1,16,,
practice_instructions,html.Screen,5,2023-11-27T17:44:45.737Z,,,,,,,,,,,14608.185999952315,response,,,,,,,,,,,,,,,,,continue,click button,,,354068.09999990463,354059.2999999523,339434.412,339689.19999980927,339451.114,353851.116,,,,
trial,html.Screen,6_0_0,2023-11-27T17:44:57.610Z,,,,1,-0.9089402323867112,0.8034544077281132,,,true,hl,12075.483999904653,response,0.7883321712536753,1.2,-1.2,-1.0011430756825364,1.2,-1.2,high,low,,ISIC_3585381.JPG,,ISIC_9828853.JPG,,26,true,0.4500000000000003,hl,keypress(j),0,false,365941.2999999523,365926.59999990463,353801.169,354068.2999999523,353851.116,365684.483,1,40,1,
sequence,flow.Sequence,6_0,2023-11-27T17:44:57.610Z,,,,,,,,,,,12075.483999904653,completion,,,,,,,high,low,,,,,,,true,,,,,false,365941.59999990463,365926.59999990463,353801.169,354068.2999999523,353851.116,365684.483,1,40,,
trial,html.Screen,6_1_0,2023-11-27T17:45:04.489Z,,,,1,-1.0865209011322887,-1.1401461171952545,,,true,hh,7135.816999952309,response,0.8040154393530985,1.2,-1.2,1.4244737913484802,1.2,-1.2,high,high,,ISIC_0016145.JPG,,ISIC_3291765.JPG,,203,true,0.40000000000000024,hh,keypress(i),0,false,372820.5,372820.2999999523,365667.827,365941.69999980927,365684.483,372567.785,1,40,2,
sequence,flow.Sequence,6_1,2023-11-27T17:45:04.490Z,,,,,,,,,,,7135.816999952309,completion,,,,,,,high,high,,,,,,,true,,,,,false,372820.7999999523,372820.2999999523,365667.827,365941.59999990463,365684.483,372567.785,1,40,,
trial,html.Screen,6_2_0,2023-11-27T17:45:14.554Z,,,,1,-1.2691569063625474,-1.1264228993232308,,,true,hh,10317.514999952342,response,1.2219550761700546,1.2,-1.2,1.2809901875733454,1.2,-1.2,high,high,,ISIC_4980656.JPG,,ISIC_6463417.JPG,,25,true,0.14,hh,keypress(i),0,false,382885.59999990463,382885.2999999523,372550.912,372820.7999999523,372567.785,382634.495,1,40,3,
sequence,flow.Sequence,6_2,2023-11-27T17:45:14.555Z,,,,,,,,,,,10317.514999952342,completion,,,,,,,high,high,,,,,,,true,,,,,false,382886.09999990463,382885.2999999523,372550.912,372820.7999999523,372567.785,382634.495,1,40,,
trial,html.Screen,6_3_0,2023-11-27T17:45:20.594Z,,,,1,1.2100527057059796,1.2159112471537263,,,true,ll,6290.104999904637,response,-1.0773466327271526,1.2,-1.2,-1.1601445610079184,1.2,-1.2,low,low,,ISIC_0008055.JPG,,ISIC_0055169.JPG,,30,true,0.13,ll,keypress(f),0,false,388924.7999999523,388924.59999990463,382617.599,382886.2999999523,382634.495,388684.535,1,40,4,
sequence,flow.Sequence,6_3,2023-11-27T17:45:20.594Z,,,,,,,,,,,6290.104999904637,completion,,,,,,,low,low,,,,,,,true,,,,,false,388925.19999980927,388924.59999990463,382617.599,382886.2999999523,382634.495,388684.535,1,40,,
trial,html.Screen,6_4_0,2023-11-27T17:45:23.994Z,,,,1,-1.1117876838408909,-1.2957497771092716,,,true,hh,3639.9650000000256,response,1.2541318165695772,1.2,-1.2,1.085289936617366,1.2,-1.2,high,high,,ISIC_0061915.JPG,,ISIC_4277207.JPG,,25,true,0.14,hh,keypress(i),0,false,392324.7999999523,392324.5,388651.197,388925.2999999523,388684.535,392101.178,1,40,5,
sequence,flow.Sequence,6_4,2023-11-27T17:45:23.994Z,,,,,,,,,,,3639.9650000000256,completion,,,,,,,high,high,,,,,,,true,,,,,false,392325.09999990463,392324.5,388651.197,388925.19999980927,388684.535,392101.178,1,40,,
trial,html.Screen,6_5_0,2023-11-27T17:45:34.065Z,,,,1,-0.8067116931297591,1.215898074058027,,,true,hl,10294.921999904618,response,1.2578167348825195,1.2,-1.2,-0.8371819698254004,1.2,-1.2,high,low,,ISIC_1457687.JPG,,ISIC_9613570.JPG,,26,true,0.4500000000000003,hl,keypress(j),0,false,402396.39999985695,402396.09999990463,392051.322,392325.2999999523,392101.178,402167.837,1,40,6,
sequence,flow.Sequence,6_5,2023-11-27T17:45:34.065Z,,,,,,,,,,,10294.921999904618,completion,,,,,,,high,low,,,,,,,true,,,,,false,402396.59999990463,402396.09999990463,392051.322,392325.2999999523,392101.178,402167.837,1,40,,
trial,html.Screen,6_6_0,2023-11-27T17:45:41.225Z,,,,1,-0.9138670886161264,0.8414121478342018,,,true,hl,7388.362999809266,response,1.075512775389519,1.2,-1.2,-1.0454702683049502,1.2,-1.2,high,low,,ISIC_6709052.JPG,,ISIC_0033603.JPG,,26,true,0.4500000000000003,hl,keypress(j),0,false,409556.39999985695,409556.19999980927,402134.335,402396.69999980927,402167.837,409334.537,1,40,7,
sequence,flow.Sequence,6_6,2023-11-27T17:45:41.225Z,,,,,,,,,,,7388.362999809266,completion,,,,,,,high,low,,,,,,,true,,,,,false,409556.59999990463,409556.19999980927,402134.335,402396.69999980927,402167.837,409334.537,1,40,,
trial,html.Screen,6_7_0,2023-11-27T17:45:47.450Z,,,,1,-0.9633172970727744,0.8472659344792351,,,true,hl,6446.162999809254,response,0.8830264383952469,1.2,-1.2,-0.8635562538060516,1.2,-1.2,high,low,,ISIC_0067172.JPG,,ISIC_0032258.JPG,,26,true,0.4500000000000003,hl,keypress(j),0,false,415781,415780.69999980927,409284.428,409556.69999980927,409334.537,415551.143,1,40,8,
sequence,flow.Sequence,6_7,2023-11-27T17:45:47.451Z,,,,,,,,,,,6446.162999809254,completion,,,,,,,high,low,,,,,,,true,,,,,false,415781.19999980927,415780.69999980927,409284.428,409556.59999990463,409334.537,415551.143,1,40,,
trial,html.Screen,6_8_0,2023-11-27T17:45:52.218Z,,,,1,-1.2020012168275056,0.923753102263735,,,true,hl,4996.956999904651,response,0.7991459998473059,1.2,-1.2,-1.0280788723474688,1.2,-1.2,high,low,,ISIC_0000022.JPG,,ISIC_7951202.JPG,,26,true,0.4500000000000003,hl,keypress(j),0,false,420548.19999980927,420548.09999990463,415517.824,415781.39999985695,415551.143,420317.869,1,40,9,
sequence,flow.Sequence,6_8,2023-11-27T17:45:52.218Z,,,,,,,,,,,4996.956999904651,completion,,,,,,,high,low,,,,,,,true,,,,,false,420548.39999985695,420548.09999990463,415517.824,415781.39999985695,415551.143,420317.869,1,40,,
trial,html.Screen,6_9_0,2023-11-27T17:46:00.930Z,,,,1,0.8830264383952469,-0.8635562538060516,,,true,lh,8942.230999904627,response,-1.2081146885025262,1.2,-1.2,1.195668832085049,1.2,-1.2,low,high,,ISIC_0032258.JPG,,ISIC_7369690.JPG,,27,true,0.40000000000000024,lh,keypress(e),0,false,429260.2999999523,429260.09999990463,420284.387,420548.5,420317.869,429017.866,1,40,10,
sequence,flow.Sequence,6_9,2023-11-27T17:46:00.930Z,,,,,,,,,,,8942.230999904627,completion,,,,,,,low,high,,,,,,,true,,,,,false,429260.39999985695,429260.09999990463,420284.387,420548.5,420317.869,429017.866,1,40,,
trial,html.Screen,6_10_0,2023-11-27T17:46:06.529Z,,,,1,1.0943527860463682,1.124481746658104,,,true,ll,5842.13400000002,response,-0.9875642924581955,1.2,-1.2,-1.317791815535,1.2,-1.2,low,low,,ISIC_0438136.JPG,,ISIC_0062443.JPG,,359,true,0.4500000000000003,ll,keypress(f),0,false,434860.19999980927,434860,429001.038,429260.5,429017.866,434618.078,1,40,11,
sequence,flow.Sequence,6_10,2023-11-27T17:46:06.530Z,,,,,,,,,,,5842.13400000002,completion,,,,,,,low,low,,,,,,,true,,,,,false,434860.19999980927,434860,429001.038,429260.39999985695,429017.866,434618.078,1,40,,
trial,html.Screen,6_11_0,2023-11-27T17:46:09.914Z,,,,1,1.3379750533585932,1.1671342614509763,,,true,ll,3626.221999952337,response,-1.1048559518249943,1.2,-1.2,-1.2252457981338687,1.2,-1.2,low,low,,ISIC_0063556.JPG,,ISIC_0060817.JPG,,40,true,0.14,ll,keypress(f),0,false,438244.39999985695,438244.2999999523,434601.214,434860.2999999523,434618.078,438017.888,1,40,12,
sequence,flow.Sequence,6_11,2023-11-27T17:46:09.914Z,,,,,,,,,,,3626.221999952337,completion,,,,,,,low,low,,,,,,,true,,,,,false,438244.7999999523,438244.2999999523,434601.214,434860.2999999523,434618.078,438017.888,1,40,,
trial,html.Screen,6_12_0,2023-11-27T17:46:17.778Z,,,,1,0.7518277461369444,-1.3860759020802074,,,true,lh,8090.211999904655,response,-0.8500530224490773,1.2,-1.2,1.0893360711742854,1.2,-1.2,low,high,,ISIC_7967397.JPG,,ISIC_2998367.JPG,,27,true,0.40000000000000024,lh,keypress(e),0,false,446108.2999999523,446108.09999990463,437984.696,438245,438017.888,445869.248,1,40,13,
sequence,flow.Sequence,6_12,2023-11-27T17:46:17.778Z,,,,,,,,,,,8090.211999904655,completion,,,,,,,low,high,,,,,,,true,,,,,false,446108.2999999523,446108.09999990463,437984.696,438244.89999985695,438017.888,445869.248,1,40,,
trial,html.Screen,6_13_0,2023-11-27T17:46:26.747Z,,,,1,-0.9138670886161264,0.8414121478342018,,,true,hl,9207.951999809244,response,1.058275612142778,1.2,-1.2,-0.7824898568540655,1.2,-1.2,high,low,,ISIC_6709052.JPG,,ISIC_4906385.JPG,,26,true,0.4500000000000003,hl,keypress(j),0,false,455077.39999985695,455077.19999980927,445834.367,446108.39999985695,445869.248,454834.661,1,40,14,
sequence,flow.Sequence,6_13,2023-11-27T17:46:26.747Z,,,,,,,,,,,9207.951999809244,completion,,,,,,,high,low,,,,,,,true,,,,,false,455078,455077.19999980927,445834.367,446108.39999985695,445869.248,454834.661,1,40,,
trial,html.Screen,6_14_0,2023-11-27T17:46:34.874Z,,,,1,1.2804054832904397,1.171271535505083,,,true,ll,8369.638999952294,response,-1.5071832387433577,1.2,-1.2,-1.0383223796934642,1.2,-1.2,low,low,,ISIC_7889838.JPG,,ISIC_0000519.JPG,,288,true,0.40000000000000024,ll,keypress(f),0,false,463204.39999985695,463204.2999999523,454817.682,455078.09999990463,454834.661,463001.289,1,40,15,
sequence,flow.Sequence,6_14,2023-11-27T17:46:34.874Z,,,,,,,,,,,8369.638999952294,completion,,,,,,,low,low,,,,,,,true,,,,,false,463204.59999990463,463204.2999999523,454817.682,455078.09999990463,454834.661,463001.289,1,40,,
trial,html.Screen,6_15_0,2023-11-27T17:46:43.242Z,,,,1,1.2054195059663604,-0.7760611240296147,,,true,lh,8570.910999809275,response,-0.8987343013179191,1.2,-1.2,0.8149073454566363,1.2,-1.2,low,high,,ISIC_8712559.JPG,,ISIC_0472513.JPG,,27,true,0.40000000000000024,lh,keypress(e),0,false,471572.39999985695,471572.19999980927,462934.487,463204.69999980927,463001.289,471317.965,1,40,16,
sequence,flow.Sequence,6_15,2023-11-27T17:46:43.242Z,,,,,,,,,,,8570.910999809275,completion,,,,,,,low,high,,,,,,,true,,,,,false,471572.5,471572.19999980927,462934.487,463204.69999980927,463001.289,471317.965,1,40,,
trial,html.Screen,6_16_0,2023-11-27T17:46:48.762Z,,,,1,-1.1746004947382946,-1.2207657619249948,,,true,hh,5774.134999904607,response,0.7584502386393838,1.2,-1.2,0.9825823454317724,1.2,-1.2,high,high,,ISIC_0012069.JPG,,ISIC_9820910.JPG,,265,true,0.4500000000000003,hh,keypress(i),0,false,477092.19999980927,477092.09999990463,471301.005,471572.59999990463,471317.965,476851.323,1,40,17,
sequence,flow.Sequence,6_16,2023-11-27T17:46:48.762Z,,,,,,,,,,,5774.134999904607,completion,,,,,,,high,high,,,,,,,true,,,,,false,477092.39999985695,477092.09999990463,471301.005,471572.59999990463,471317.965,476851.323,1,40,,
trial,html.Screen,6_17_0,2023-11-27T17:46:51.866Z,,,,1,1.3246728710248594,1.1527736000922424,,,true,ll,3344.8769998092903,response,-1.0773466327271526,1.2,-1.2,-1.1601445610079184,1.2,-1.2,low,low,,ISIC_6876281.JPG,,ISIC_0055169.JPG,,30,true,0.13,ll,keypress(f),0,false,480196.39999985695,480196.19999980927,476834.609,477092.39999985695,476851.323,479951.323,1,40,18,
sequence,flow.Sequence,6_17,2023-11-27T17:46:51.866Z,,,,,,,,,,,3344.8769998092903,completion,,,,,,,low,low,,,,,,,true,,,,,false,480196.59999990463,480196.19999980927,476834.609,477092.39999985695,476851.323,479951.323,1,40,,
trial,html.Screen,6_18_0,2023-11-27T17:46:55.346Z,,,,1,-1.1017564906891342,-1.293633394635193,,,true,hh,3724.576999856974,response,1.3379750533585932,1.2,-1.2,1.1671342614509763,1.2,-1.2,high,high,,ISIC_0029026.JPG,,ISIC_0063556.JPG,,25,true,0.14,hh,keypress(i),0,false,483676.09999990463,483675.89999985695,479934.519,480196.69999980927,479951.323,483451.273,1,40,19,
sequence,flow.Sequence,6_18,2023-11-27T17:46:55.346Z,,,,,,,,,,,3724.576999856974,completion,,,,,,,high,high,,,,,,,true,,,,,false,483676.2999999523,483675.89999985695,479934.519,480196.69999980927,479951.323,483451.273,1,40,,
trial,html.Screen,6_19_0,2023-11-27T17:47:01.410Z,,,,1,1.0453124399868816,-0.8986747280184286,,,true,lh,6289.02699995233,response,-0.8987343013179191,1.2,-1.2,0.8149073454566363,1.2,-1.2,low,high,,ISIC_0013967.JPG,,ISIC_0472513.JPG,,27,true,0.40000000000000024,lh,keypress(e),0,false,489740.5,489740.2999999523,483417.854,483676.2999999523,483451.273,489484.676,1,40,20,
sequence,flow.Sequence,6_19,2023-11-27T17:47:01.410Z,,,,,,,,,,,6289.02699995233,completion,,,,,,,low,high,,,,,,,true,,,,,false,489740.7999999523,489740.2999999523,483417.854,483676.2999999523,483451.273,489484.676,1,40,,
trial,html.Screen,6_20_0,2023-11-27T17:47:05.522Z,,,,1,-1.0773466327271526,-1.1601445610079184,,,true,hh,4367.623999952339,response,1.4799548704796182,1.2,-1.2,0.9439295748587228,1.2,-1.2,high,high,,ISIC_0055169.JPG,,ISIC_8002729.JPG,,265,true,0.4500000000000003,hh,keypress(i),0,false,493852.59999990463,493852.2999999523,489467.915,489740.89999985695,489484.676,493601.286,1,40,21,
sequence,flow.Sequence,6_20,2023-11-27T17:47:05.522Z,,,,,,,,,,,4367.623999952339,completion,,,,,,,high,high,,,,,,,true,,,,,false,493852.7999999523,493852.2999999523,489467.915,489740.89999985695,489484.676,493601.286,1,40,,
trial,html.Screen,6_21_0,2023-11-27T17:47:10.226Z,,,,1,1.2541318165695772,1.085289936617366,,,true,ll,4954.613999856927,response,-1.082709423673037,1.2,-1.2,-1.1184338818466155,1.2,-1.2,low,low,,ISIC_4277207.JPG,,ISIC_0058666.JPG,,30,true,0.13,ll,keypress(f),0,false,498556.09999990463,498555.89999985695,493584.624,493853,493601.286,498334.65,1,40,22,
sequence,flow.Sequence,6_21,2023-11-27T17:47:10.226Z,,,,,,,,,,,4954.613999856927,completion,,,,,,,low,low,,,,,,,true,,,,,false,498556.19999980927,498555.89999985695,493584.624,493852.89999985695,493601.286,498334.65,1,40,,
trial,html.Screen,6_22_0,2023-11-27T17:47:24.234Z,,,,1,-0.8500530224490773,1.0893360711742854,,,true,hl,14229.549999809242,response,0.9653573371180936,1.2,-1.2,-0.854766800381037,1.2,-1.2,high,low,,ISIC_2998367.JPG,,ISIC_9640145.JPG,,26,true,0.4500000000000003,hl,keypress(j),0,false,512564.19999980927,512564.19999980927,498284.622,498556.19999980927,498334.65,512318.048,1,40,23,
sequence,flow.Sequence,6_22,2023-11-27T17:47:24.234Z,,,,,,,,,,,14229.549999809242,completion,,,,,,,high,low,,,,,,,true,,,,,false,512564.39999985695,512564.19999980927,498284.622,498556.19999980927,498334.65,512318.048,1,40,,
trial,html.Screen,6_23_0,2023-11-27T17:47:27.634Z,,,,1,1.2246024683501224,1.2904526351590244,,,true,ll,3646.2519999523065,response,-1.4098342162090252,1.2,-1.2,-1.2314462547613187,1.2,-1.2,low,low,,ISIC_4730066.JPG,,ISIC_0063753.JPG,,288,true,0.40000000000000024,ll,keypress(f),0,false,515964.5,515964.2999999523,512300.93,512564.5,512318.048,515751.296,1,40,24,
sequence,flow.Sequence,6_23,2023-11-27T17:47:27.634Z,,,,,,,,,,,3646.2519999523065,completion,,,,,,,low,low,,,,,,,true,,,,,false,515964.7999999523,515964.2999999523,512300.93,512564.39999985695,512318.048,515751.296,1,40,,
trial,html.Screen,6_24_0,2023-11-27T17:47:33.370Z,,,,1,-0.8500530224490773,1.0893360711742854,,,true,hl,5949.30399990466,response,0.8110121381849364,1.2,-1.2,-0.7563142141851558,1.2,-1.2,high,low,,ISIC_2998367.JPG,,ISIC_0033605.JPG,,26,true,0.4500000000000003,hl,keypress(j),0,false,521700.7999999523,521700.59999990463,515701.262,515965,515751.296,521468.019,1,40,25,
sequence,flow.Sequence,6_24,2023-11-27T17:47:33.371Z,,,,,,,,,,,5949.30399990466,completion,,,,,,,high,low,,,,,,,true,,,,,false,521701.19999980927,521700.59999990463,515701.262,515964.89999985695,515751.296,521468.019,1,40,,
trial,html.Screen,6_25_0,2023-11-27T17:47:44.106Z,,,,1,0.8472024037189965,-0.986370061404882,,,true,lh,10968.380999856978,response,-0.8867328775712738,1.2,-1.2,1.0063426986460375,1.2,-1.2,low,high,,ISIC_0054355.JPG,,ISIC_0055759.JPG,,27,true,0.40000000000000024,lh,keypress(e),0,false,532436.5999999046,532436.399999857,521434.628,521701.2999999523,521468.019,532201.352,1,40,26,
sequence,flow.Sequence,6_25,2023-11-27T17:47:44.106Z,,,,,,,,,,,10968.380999856978,completion,,,,,,,low,high,,,,,,,true,,,,,false,532436.7999999523,532436.399999857,521434.628,521701.2999999523,521468.019,532201.352,1,40,,
trial,html.Screen,6_26_0,2023-11-27T17:47:51.810Z,,,,1,0.8472024037189965,-0.986370061404882,,,true,lh,7938.547999856994,response,-1.0926414044454305,1.2,-1.2,0.7741624649032207,1.2,-1.2,low,high,,ISIC_0054355.JPG,,ISIC_2355513.JPG,,40,true,0.4500000000000003,lh,keypress(e),0,false,540139.899999857,540139.899999857,532167.654,532436.899999857,532201.352,539884.686,1,40,27,
sequence,flow.Sequence,6_26,2023-11-27T17:47:51.810Z,,,,,,,,,,,7938.547999856994,completion,,,,,,,low,high,,,,,,,true,,,,,false,540140.0999999046,540139.899999857,532167.654,532436.899999857,532201.352,539884.686,1,40,,
trial,html.Screen,6_27_0,2023-11-27T17:47:55.762Z,,,,1,-1.1302628852630028,-1.288906469447243,,,true,hh,4207.513999809278,response,1.3767118546295212,1.2,-1.2,1.1425568931764498,1.2,-1.2,high,high,,ISIC_0071050.JPG,,ISIC_2804864.JPG,,265,true,0.4500000000000003,hh,keypress(i),0,false,544092.399999857,544092.1999998093,539867.898,540140.1999998093,539884.686,543884.707,1,40,28,
sequence,flow.Sequence,6_27,2023-11-27T17:47:55.762Z,,,,,,,,,,,4207.513999809278,completion,,,,,,,high,high,,,,,,,true,,,,,false,544092.5999999046,544092.1999998093,539867.898,540140.1999998093,539884.686,543884.707,1,40,,
trial,html.Screen,6_28_0,2023-11-27T17:48:05.794Z,,,,1,-1.045301444872812,1.0872560254441277,,,true,hl,10239.39299990458,response,0.7883321712536753,1.2,-1.2,-1.0011430756825364,1.2,-1.2,high,low,,ISIC_4507700.JPG,,ISIC_9828853.JPG,,26,true,0.4500000000000003,hl,keypress(j),0,false,554124.1999998093,554124.0999999046,543834.581,544092.6999998093,543884.707,553868.03,1,40,29,
sequence,flow.Sequence,6_28,2023-11-27T17:48:05.794Z,,,,,,,,,,,10239.39299990458,completion,,,,,,,high,low,,,,,,,true,,,,,false,554124.2999999523,554124.0999999046,543834.581,544092.5999999046,543884.707,553868.03,1,40,,
trial,html.Screen,6_29_0,2023-11-27T17:48:09.530Z,,,,1,-1.1243896694621007,-1.1772340944704969,,,true,hh,3991.7699999522883,response,1.3246728710248594,1.2,-1.2,1.1527736000922424,1.2,-1.2,high,high,,ISIC_0062765.JPG,,ISIC_6876281.JPG,,203,true,0.40000000000000024,hh,keypress(i),0,false,557860,557859.7999999523,553851.186,554124.399999857,553868.03,557651.388,1,40,30,
sequence,flow.Sequence,6_29,2023-11-27T17:48:09.530Z,,,,,,,,,,,3991.7699999522883,completion,,,,,,,high,high,,,,,,,true,,,,,false,557860.1999998093,557859.7999999523,553851.186,554124.2999999523,553868.03,557651.388,1,40,,
trial,html.Screen,6_30_0,2023-11-27T17:48:16.763Z,,,,1,1.0887164761389951,-1.5357518752548716,,,true,lh,7441.31199980923,response,-0.8067116931297591,1.2,-1.2,1.215898074058027,1.2,-1.2,low,high,,ISIC_0028127.JPG,,ISIC_1457687.JPG,,27,true,0.40000000000000024,lh,keypress(e),0,false,565093,565092.6999998093,557601.555,557860.1999998093,557651.388,564851.593,1,40,31,
sequence,flow.Sequence,6_30,2023-11-27T17:48:16.763Z,,,,,,,,,,,7441.31199980923,completion,,,,,,,low,high,,,,,,,true,,,,,false,565093.399999857,565092.6999998093,557601.555,557860.1999998093,557651.388,564851.593,1,40,,
trial,html.Screen,6_31_0,2023-11-27T17:48:19.211Z,,,,1,-1.236306205926646,-1.116612676102794,,,true,hh,2689.006999904639,response,0.8778738400881212,1.2,-1.2,0.8629033386879579,1.2,-1.2,high,high,,ISIC_0054341.JPG,,ISIC_5607702.JPG,,265,true,0.4500000000000003,hh,keypress(i),0,false,567540.899999857,567540.5999999046,564834.615,565093.5,564851.593,567302.38,1,40,32,
sequence,flow.Sequence,6_31,2023-11-27T17:48:19.211Z,,,,,,,,,,,2689.006999904639,completion,,,,,,,high,high,,,,,,,true,,,,,false,567541.1999998093,567540.5999999046,564834.615,565093.399999857,564851.593,567302.38,1,40,,
trial,html.Screen,6_32_0,2023-11-27T17:48:24.355Z,,,,1,1.160746324899676,1.1927876559115576,,,true,ll,5382.419999952312,response,-1.1243896694621007,1.2,-1.2,-1.1772340944704969,1.2,-1.2,low,low,,ISIC_8651053.JPG,,ISIC_0062765.JPG,,30,true,0.13,ll,keypress(f),0,false,572685,572684.7999999523,567268.199,567541.399999857,567302.38,572434.733,1,40,33,
sequence,flow.Sequence,6_32,2023-11-27T17:48:24.355Z,,,,,,,,,,,5382.419999952312,completion,,,,,,,low,low,,,,,,,true,,,,,false,572685.399999857,572684.7999999523,567268.199,567541.399999857,567302.38,572434.733,1,40,,
trial,html.Screen,6_33_0,2023-11-27T17:48:26.755Z,,,,1,1.160746324899676,1.1927876559115576,,,true,ll,2649.866999904625,response,-1.1195710731537871,1.2,-1.2,-1.1961732733209125,1.2,-1.2,low,low,,ISIC_8651053.JPG,,ISIC_0067170.JPG,,40,true,0.14,ll,keypress(f),0,false,575084.899999857,575084.5999999046,572418.026,572685.5999999046,572434.733,574834.732,1,40,34,
sequence,flow.Sequence,6_33,2023-11-27T17:48:26.755Z,,,,,,,,,,,2649.866999904625,completion,,,,,,,low,low,,,,,,,true,,,,,false,575085.2999999523,575084.5999999046,572418.026,572685.5999999046,572434.733,574834.732,1,40,,
trial,html.Screen,6_34_0,2023-11-27T17:48:38.042Z,,,,1,1.0659165756604234,1.0867497316848906,,,true,ll,11537.567999952356,response,-1.268445326285509,1.2,-1.2,-1.173734476257662,1.2,-1.2,low,low,,ISIC_5807608.JPG,,ISIC_5216586.JPG,,40,true,0.14,ll,keypress(f),0,false,586372.5,586372.2999999523,574818.168,575085.5,574834.732,586151.415,1,40,35,
sequence,flow.Sequence,6_34,2023-11-27T17:48:38.042Z,,,,,,,,,,,11537.567999952356,completion,,,,,,,low,low,,,,,,,true,,,,,false,586372.6999998093,586372.2999999523,574818.168,575085.5,574834.732,586151.415,1,40,,
trial,html.Screen,6_35_0,2023-11-27T17:48:44.347Z,,,,1,1.0887164761389951,-1.5357518752548716,,,true,lh,6525.284999809228,response,-1.2594580992890123,1.2,-1.2,0.8833175387485132,1.2,-1.2,low,high,,ISIC_0028127.JPG,,ISIC_0011933.JPG,,27,true,0.40000000000000024,lh,keypress(e),0,false,592676.899999857,592676.6999998093,586101.156,586372.6999998093,586151.415,592451.44,1,40,36,
sequence,flow.Sequence,6_35,2023-11-27T17:48:44.347Z,,,,,,,,,,,6525.284999809228,completion,,,,,,,low,high,,,,,,,true,,,,,false,592677.399999857,592676.6999998093,586101.156,586372.6999998093,586151.415,592451.44,1,40,,
trial,html.Screen,6_36_0,2023-11-27T17:48:56.827Z,,,,1,-0.8067116931297591,1.215898074058027,,,true,hl,12705.159999904688,response,0.9754077946987664,1.2,-1.2,-1.1821868813141057,1.2,-1.2,high,low,,ISIC_1457687.JPG,,ISIC_0024317.JPG,,26,true,0.4500000000000003,hl,keypress(j),0,false,605156.7999999523,605156.5999999046,592417.968,592677.5999999046,592451.44,604934.796,1,40,37,
sequence,flow.Sequence,6_36,2023-11-27T17:48:56.827Z,,,,,,,,,,,12705.159999904688,completion,,,,,,,high,low,,,,,,,true,,,,,false,605157.0999999046,605156.5999999046,592417.968,592677.5,592451.44,604934.796,1,40,,
trial,html.Screen,6_37_0,2023-11-27T17:49:04.338Z,,,,1,0.8034318937720549,-1.0024917298189338,,,true,lh,7733.30399990466,response,-0.8067116931297591,1.2,-1.2,1.215898074058027,1.2,-1.2,low,high,,ISIC_0032766.JPG,,ISIC_1457687.JPG,,27,true,0.40000000000000024,lh,keypress(e),0,false,612668.2999999523,612668.0999999046,604884.396,605157.1999998093,604934.796,612434.809,1,40,38,
sequence,flow.Sequence,6_37,2023-11-27T17:49:04.338Z,,,,,,,,,,,7733.30399990466,completion,,,,,,,low,high,,,,,,,true,,,,,false,612668.399999857,612668.0999999046,604884.396,605157.1999998093,604934.796,612434.809,1,40,,
trial,html.Screen,6_38_0,2023-11-27T17:49:17.099Z,,,,1,0.8830264383952469,-0.8635562538060516,,,true,lh,12993.790999904624,response,-0.8500530224490773,1.2,-1.2,1.0893360711742854,1.2,-1.2,low,high,,ISIC_0032258.JPG,,ISIC_2998367.JPG,,40,true,0.4500000000000003,lh,keypress(e),0,false,625428.7999999523,625428.5999999046,612401.318,612668.399999857,612434.809,625184.872,1,40,39,
sequence,flow.Sequence,6_38,2023-11-27T17:49:17.099Z,,,,,,,,,,,12993.790999904624,completion,,,,,,,low,high,,,,,,,true,,,,,false,625429.2999999523,625428.5999999046,612401.318,612668.399999857,612434.809,625184.872,1,40,,
trial,html.Screen,6_39_0,2023-11-27T17:49:26.298Z,,,,1,-1.236306205926646,-1.116612676102794,,,true,hh,9443.128000000026,response,0.9867903749582616,1.2,-1.2,0.779537769597012,1.2,-1.2,high,high,,ISIC_0054341.JPG,,ISIC_7168122.JPG,,265,true,0.4500000000000003,hh,keypress(i),0,false,634628.0999999046,634628,625167.706,625429.5999999046,625184.872,634384.845,1,40,40,
sequence,flow.Sequence,6_39,2023-11-27T17:49:26.298Z,,,,,,,,,,,9443.128000000026,completion,,,,,,,high,high,,,,,,,true,,,,,false,634628.2999999523,634628,625167.706,625429.5,625184.872,634384.845,1,40,,
practice_loop,flow.Loop,6,2023-11-27T17:49:26.298Z,,,,,,,,,,,280776.884,completion,,,,,,,,,,,,,,,true,,,,,false,634628.399999857,634628,353801.169,354068.2999999523,353851.116,634384.845,1,40,,
stair_instructions,html.Screen,7,2023-11-27T17:49:47.770Z,,,,,,,,,,,21714.554999856977,response,,,,,,,,,,,,,,,,,continue,click button,,,656099.899999857,656099.399999857,634367.985,634628.5,634384.845,655868.179,,,,
trial,html.Screen,8_0_0,2023-11-27T17:50:03.581Z,,,,2,-0.001445457736793,-0.0165307427449982,,0.04,,,15800.042000000016,timeout,-1.045301444872812,1.2,-1.2,1.0872560254441277,1.2,-1.2,low,high,,ISIC_0027350.JPG,,ISIC_4507700.JPG,28,27,false,0.40000000000000024,,,0,true,671910.399999857,671910.2999999523,655834.894,656100,655868.179,671668.221,1,40,1,
sequence,flow.Sequence,8_0,2023-11-27T17:50:03.581Z,,,,,,,,,,,16042.120999952313,completion,,,,,,,low,high,,,,,,,false,,,,,true,671910.5999999046,671910.2999999523,655834.894,656100,655868.179,671668.221,1,40,,
trial,html.Screen,8_1_0,2023-11-27T17:50:10.528Z,,,,2,-0.0088741920055285,-0.0058246074740588,,0.04,true,ll,7189.578999952297,response,-1.236306205926646,1.2,-1.2,-1.116612676102794,1.2,-1.2,low,low,,ISIC_4136663.JPG,,ISIC_0054341.JPG,28,30,false,0.13,ll,keypress(f),0,true,678857.899999857,678857.7999999523,671651.655,671910.6999998093,671668.221,678618.472,1,40,2,
sequence,flow.Sequence,8_1,2023-11-27T17:50:10.528Z,,,,,,,,,,,7189.578999952297,completion,,,,,,,low,low,,,,,,,false,,,,,true,678858,678857.7999999523,671651.655,671910.6999998093,671668.221,678618.472,1,40,,
trial,html.Screen,8_2_0,2023-11-27T17:50:14.774Z,,,,2,0.0118382036798625,0.0300588245877227,,0.04,true,ll,4485.028000000049,response,-1.0865209011322887,1.15,-1.15,-1.1401461171952545,1.15,-1.15,low,low,,ISIC_4748605.JPG,,ISIC_0016145.JPG,28,27,false,0.1,ll,keypress(f),0,true,683103.5999999046,683103.5,678601.554,678858.0999999046,678618.472,682851.556,1,40,3,
sequence,flow.Sequence,8_2,2023-11-27T17:50:14.774Z,,,,,,,,,,,4485.028000000049,completion,,,,,,,low,low,,,,,,,false,,,,,true,683103.6999998093,683103.5,678601.554,678858.0999999046,678618.472,682851.556,1,40,,
trial,html.Screen,8_3_0,2023-11-27T17:50:19.458Z,,,,2,0.0044063257337227,0.0172548282859886,,0.04,false,lh,4936.444000000018,response,-0.9633172970727744,1.15,-1.078379396649024,0.8472659344792351,1.15,-1.078379396649024,low,high,,ISIC_7413786.JPG,,ISIC_0067172.JPG,28,25,false,0.31000000000000016,hh,keypress(i),0,true,687788.1999998093,687788,682834.961,683103.899999857,682851.556,687534.897,1,40,4,
sequence,flow.Sequence,8_3,2023-11-27T17:50:19.458Z,,,,,,,,,,,4936.444000000018,completion,,,,,,,low,high,,,,,,,false,,,,,true,687788.2999999523,687788,682834.961,683103.899999857,682851.556,687534.897,1,40,,
trial,html.Screen,8_4_0,2023-11-27T17:50:26.394Z,,,,2,-0.0109416414475118,-0.005246498750811,,0.04,false,hh,7189.002999856952,response,1.109799097093339,1.15,-1.128379396649024,1.091507924157762,1.15,-1.078379396649024,high,high,,ISIC_0064279.JPG,,ISIC_0765584.JPG,28,27,false,0.14,lh,keypress(e),0,true,694723.899999857,694723.899999857,687518.244,687788.2999999523,687534.897,694468.241,1,40,5,
sequence,flow.Sequence,8_4,2023-11-27T17:50:26.394Z,,,,,,,,,,,7189.002999856952,completion,,,,,,,high,high,,,,,,,false,,,,,true,694724,694723.899999857,687518.244,687788.2999999523,687534.897,694468.241,1,40,,
trial,html.Screen,8_5_0,2023-11-27T17:50:37.756Z,,,,2,-0.0088741920055285,-0.0058246074740588,,0.04,false,hh,11617.15899985691,response,1.2415939235112592,1.15,-1.128379396649024,0.8158008958972826,0.9193869293184986,-1.078379396649024,high,high,,ISIC_4136663.JPG,,ISIC_1356715.JPG,28,25,false,0.11,hl,keypress(j),0,true,706085.6999998093,706085.399999857,694451.379,694724.0999999046,694468.241,705851.562,1,40,6,
sequence,flow.Sequence,8_5,2023-11-27T17:50:37.756Z,,,,,,,,,,,11617.15899985691,completion,,,,,,,high,high,,,,,,,false,,,,,true,706086,706085.399999857,694451.379,694724.0999999046,694468.241,705851.562,1,40,,
trial,html.Screen,8_6_0,2023-11-27T17:50:43.899Z,,,,2,-0.0088741920055285,-0.0058246074740588,,0.04,true,hl,6377.337999856914,response,0.8830264383952469,1.15,-1.128379396649024,-0.8635562538060516,0.9693869293184987,-1.078379396649024,high,low,,ISIC_4136663.JPG,,ISIC_0032258.JPG,28,25,false,0.3500000000000002,hl,keypress(j),0,true,712229,712228.899999857,705818.043,706086.0999999046,705851.562,711984.904,1,40,7,
sequence,flow.Sequence,8_6,2023-11-27T17:50:43.900Z,,,,,,,,,,,6377.337999856914,completion,,,,,,,high,low,,,,,,,false,,,,,true,712229.399999857,712228.899999857,705818.043,706086.0999999046,705851.562,711984.904,1,40,,
trial,html.Screen,8_7_0,2023-11-27T17:50:51.419Z,,,,2,0.0283578106329894,-0.0088840758711548,,0.04,false,hl,7763.09600000002,response,1.0369885917487718,1.0999999999999999,-1.128379396649024,-0.8486937878412699,0.9693869293184987,-1.078379396649024,high,low,,ISIC_0060707.JPG,,ISIC_6917681.JPG,28,25,false,0.3400000000000002,lh,keypress(e),0,true,719748.1999998093,719748,711968.189,712229.5999999046,711984.904,719501.61,1,40,8,
sequence,flow.Sequence,8_7,2023-11-27T17:50:51.419Z,,,,,,,,,,,7763.09600000002,completion,,,,,,,high,low,,,,,,,false,,,,,true,719748.2999999523,719748,711968.189,712229.5,711984.904,719501.61,1,40,,
trial,html.Screen,8_8_0,2023-11-27T17:50:58.539Z,,,,2,-0.0199950873045219,-0.0172506388509166,,0.04,false,hl,7366.390000000014,response,1.2578167348825195,1.15,-1.128379396649024,-0.8371819698254004,0.9693869293184987,-1.128379396649024,high,low,,ISIC_0029906.JPG,,ISIC_9613570.JPG,28,25,false,0.39000000000000024,hh,keypress(i),0,true,726868.0999999046,726868,719484.796,719748.2999999523,719501.61,726618.236,1,40,9,
sequence,flow.Sequence,8_8,2023-11-27T17:50:58.539Z,,,,,,,,,,,7366.390000000014,completion,,,,,,,high,low,,,,,,,false,,,,,true,726868.1999998093,726868,719484.796,719748.2999999523,719501.61,726618.236,1,40,,
trial,html.Screen,8_9_0,2023-11-27T17:51:06.458Z,,,,2,0.0044063257337227,0.0172548282859886,,0.04,false,lh,8169.563999952283,response,-0.9544693251394116,1.15,-1.128379396649024,1.0727539917203766,0.9693869293184987,-1.1783793966490241,low,high,,ISIC_7413786.JPG,,ISIC_0055147.JPG,28,27,false,0.28000000000000014,ll,keypress(f),0,true,734787.899999857,734787.7999999523,726601.487,726868.2999999523,726618.236,734534.921,1,40,10,
sequence,flow.Sequence,8_9,2023-11-27T17:51:06.459Z,,,,,,,,,,,8169.563999952283,completion,,,,,,,low,high,,,,,,,false,,,,,true,734788,734787.7999999523,726601.487,726868.2999999523,726618.236,734534.921,1,40,,
trial,html.Screen,8_10_0,2023-11-27T17:51:18.579Z,,,,2,0.0220026381002083,-0.0170756452911772,,0.04,true,lh,12373.67899990466,response,-0.9198276163642348,1.15,-1.128379396649024,0.7754915110667046,1.0193869293184987,-1.1783793966490241,low,high,,ISIC_5347806.JPG,,ISIC_7840728.JPG,28,26,false,0.28000000000000014,lh,keypress(e),0,true,746908.6999998093,746908.5999999046,734518.052,734788,734534.921,746685.021,1,40,11,
sequence,flow.Sequence,8_10,2023-11-27T17:51:18.579Z,,,,,,,,,,,12373.67899990466,completion,,,,,,,low,high,,,,,,,false,,,,,true,746908.7999999523,746908.5999999046,734518.052,734788,734534.921,746685.021,1,40,,
trial,html.Screen,8_11_0,2023-11-27T17:51:25.276Z,,,,2,-0.0198696495649504,0.0387952353063878,,0.04,false,hh,6919.97900000005,response,1.2541318165695772,1.15,-1.078379396649024,1.085289936617366,1.0193869293184987,-1.1783793966490241,high,high,,ISIC_6735970.JPG,,ISIC_4277207.JPG,28,31,false,0.13,lh,keypress(e),0,true,753605.2999999523,753605,746669.65,746909,746685.021,753351.695,1,40,12,
sequence,flow.Sequence,8_11,2023-11-27T17:51:25.276Z,,,,,,,,,,,6919.97900000005,completion,,,,,,,high,high,,,,,,,false,,,,,true,753605.5999999046,753605,746669.65,746909,746685.021,753351.695,1,40,,
trial,html.Screen,8_12_0,2023-11-27T17:51:30.899Z,,,,2,-0.0109416414475118,-0.005246498750811,,0.04,true,hh,5876.404999904684,response,1.1756375305897409,1.15,-1.078379396649024,0.910735965353392,0.8803907238420352,-1.1783793966490241,high,high,,ISIC_0064279.JPG,,ISIC_0005769.JPG,28,25,false,0.12,hh,keypress(i),0,true,759228.2999999523,759228.0999999046,753334.898,753605.899999857,753351.695,758985.059,1,40,13,
sequence,flow.Sequence,8_12,2023-11-27T17:51:30.899Z,,,,,,,,,,,5876.404999904684,completion,,,,,,,high,high,,,,,,,false,,,,,true,759228.399999857,759228.0999999046,753334.898,753605.7999999523,753351.695,758985.059,1,40,,
trial,html.Screen,8_13_0,2023-11-27T17:51:39.315Z,,,,2,0.0118382036798625,0.0300588245877227,,0.04,false,ll,8659.040999904624,response,-0.9912923619519602,1.15,-1.078379396649024,-1.1419452407123123,0.8803907238420352,-1.1783793966490241,low,low,,ISIC_4748605.JPG,,ISIC_0064863.JPG,28,30,false,0.1,hl,keypress(j),0,true,767644.2999999523,767644.0999999046,758968.282,759228.399999857,758985.059,767401.681,1,40,14,
sequence,flow.Sequence,8_13,2023-11-27T17:51:39.315Z,,,,,,,,,,,8659.040999904624,completion,,,,,,,low,low,,,,,,,false,,,,,true,767644.399999857,767644.0999999046,758968.282,759228.399999857,758985.059,767401.681,1,40,,
trial,html.Screen,8_14_0,2023-11-27T17:51:42.195Z,,,,2,0.0220026381002083,-0.0170756452911772,,0.04,false,hl,3122.7189998569665,response,1.0453124399868816,1.15,-1.128379396649024,-0.8986747280184286,0.8803907238420352,-1.1783793966490241,high,low,,ISIC_5347806.JPG,,ISIC_0013967.JPG,28,26,false,0.41000000000000025,hh,keypress(i),0,true,770524.5,770524.399999857,767384.721,767644.5,767401.681,770285.01,1,40,15,
sequence,flow.Sequence,8_14,2023-11-27T17:51:42.195Z,,,,,,,,,,,3122.7189998569665,completion,,,,,,,high,low,,,,,,,false,,,,,true,770524.6999998093,770524.399999857,767384.721,767644.399999857,767401.681,770285.01,1,40,,
trial,html.Screen,8_15_0,2023-11-27T17:51:46.316Z,,,,2,0.0258224118104549,-0.0029364553353019,,0.04,false,hl,4360.089999904623,response,1.075512775389519,1.0999999999999999,-1.128379396649024,-1.0454702683049502,0.8803907238420352,-1.1783793966490241,high,low,,ISIC_8325226.JPG,,ISIC_0033603.JPG,28,28,false,0.40000000000000024,hh,keypress(i),0,true,774645.5,774645.0999999046,770251.824,770524.7999999523,770285.01,774418.351,1,40,16,
sequence,flow.Sequence,8_15,2023-11-27T17:51:46.317Z,,,,,,,,,,,4360.089999904623,completion,,,,,,,high,low,,,,,,,false,,,,,true,774646.0999999046,774645.0999999046,770251.824,770524.6999998093,770285.01,774418.351,1,40,,
trial,html.Screen,8_16_0,2023-11-27T17:51:59.172Z,,,,2,-0.039520186367207,-0.0377961575607372,,0.04,true,lh,13082.848999809241,response,-1.32845627319459,1.0999999999999999,-1.128379396649024,0.6826298758999687,0.8803907238420352,-1.1783793966490241,low,high,,ISIC_6356149.JPG,,ISIC_3026660.JPG,28,28,false,0.2300000000000001,lh,keypress(e),0,true,787501.5,787501.1999998093,774385.124,774646.399999857,774418.351,787251.715,1,40,17,
sequence,flow.Sequence,8_16,2023-11-27T17:51:59.173Z,,,,,,,,,,,13082.848999809241,completion,,,,,,,low,high,,,,,,,false,,,,,true,787501.7999999523,787501.1999998093,774385.124,774646.399999857,774418.351,787251.715,1,40,,
trial,html.Screen,8_17_0,2023-11-27T17:52:02.331Z,,,,2,0.0286056110007553,0.036125199756515,,0.04,true,ll,3408.384999904665,response,-1.1243896694621007,1.0999999999999999,-1.128379396649024,-1.1772340944704969,0.8303907238420352,-1.1783793966490241,low,low,,ISIC_6535558.JPG,,ISIC_0062765.JPG,28,28,false,0.1,ll,keypress(f),0,true,790660.1999998093,790660.0999999046,787234.567,787502,787251.715,790418.568,1,40,18,
sequence,flow.Sequence,8_17,2023-11-27T17:52:02.331Z,,,,,,,,,,,3408.384999904665,completion,,,,,,,low,low,,,,,,,false,,,,,true,790660.5,790660.0999999046,787234.567,787501.899999857,787251.715,790418.568,1,40,,
trial,html.Screen,8_18_0,2023-11-27T17:52:07.235Z,,,,2,0.0286056110007553,0.036125199756515,,0.04,false,hh,5145.631999809295,response,1.0852045470239868,1.0999999999999999,-1.1008118819662986,0.8198446376049053,0.8303907238420352,-1.1783793966490241,high,high,,ISIC_6535558.JPG,,ISIC_1805921.JPG,28,27,false,0.1,lh,keypress(e),0,true,795564.2999999523,795564.1999998093,790401.634,790660.5,790418.568,795335.054,1,40,19,
sequence,flow.Sequence,8_18,2023-11-27T17:52:07.235Z,,,,,,,,,,,5145.631999809295,completion,,,,,,,high,high,,,,,,,false,,,,,true,795564.5,795564.1999998093,790401.634,790660.5,790418.568,795335.054,1,40,,
trial,html.Screen,8_19_0,2023-11-27T17:52:13.644Z,,,,2,-0.0065172941585523,0.0118857043117315,,0.04,false,hl,6637.645999809261,response,1.075512775389519,1.15,-1.1008118819662986,-1.0454702683049502,0.8303907238420352,-1.1783793966490241,high,low,,ISIC_6119202.JPG,,ISIC_0033603.JPG,28,26,false,0.41000000000000025,lh,keypress(e),0,true,801972.899999857,801972.6999998093,795301.616,795564.5999999046,795335.054,801718.391,1,40,20,
sequence,flow.Sequence,8_19,2023-11-27T17:52:13.644Z,,,,,,,,,,,6637.645999809261,completion,,,,,,,high,low,,,,,,,false,,,,,true,801973.0999999046,801972.6999998093,795301.616,795564.5,795335.054,801718.391,1,40,,
trial,html.Screen,8_20_0,2023-11-27T17:52:17.859Z,,,,2,-0.0241900387072296,0.0339955304424736,,0.04,true,hh,4469.7089999046875,response,1.086808687078377,1.15,-1.1008118819662986,0.8881204850517516,0.8303907238420352,-1.1783793966490241,high,high,,ISIC_0010789.JPG,,ISIC_4014307.JPG,28,29,false,0.12,hh,keypress(i),0,true,806188.1999998093,806188.0999999046,801701.725,801973.2999999523,801718.391,805935.014,1,40,21,
sequence,flow.Sequence,8_20,2023-11-27T17:52:17.859Z,,,,,,,,,,,4469.7089999046875,completion,,,,,,,high,high,,,,,,,false,,,,,true,806188.399999857,806188.0999999046,801701.725,801973.2999999523,801718.391,805935.014,1,40,,
trial,html.Screen,8_21_0,2023-11-27T17:52:19.811Z,,,,2,-0.0388334549081915,0.0303399972963369,,0.04,true,hh,2205.3859998569824,response,1.0777929856705222,1.15,-1.1008118819662986,1.0139833925057518,0.9374645860650643,-1.1783793966490241,high,high,,ISIC_4961708.JPG,,ISIC_6171084.JPG,28,26,false,0.12,hh,keypress(i),0,true,808140.5999999046,808140.399999857,805918.248,806188.399999857,805935.014,807885.086,1,40,22,
sequence,flow.Sequence,8_21,2023-11-27T17:52:19.812Z,,,,,,,,,,,2205.3859998569824,completion,,,,,,,high,high,,,,,,,false,,,,,true,808140.7999999523,808140.399999857,805918.248,806188.399999857,805935.014,807885.086,1,40,,
trial,html.Screen,8_22_0,2023-11-27T17:52:23.259Z,,,,2,0.0258224118104549,-0.0029364553353019,,0.04,true,ll,3703.113999809255,response,-1.071312313440387,0.9958881890881368,-1.1008118819662986,-1.0935391476164529,0.9374645860650643,-1.1783793966490241,low,low,,ISIC_8325226.JPG,,ISIC_0063680.JPG,28,29,false,0.1,ll,keypress(f),0,true,811588.399999857,811588.1999998093,807868.567,808140.899999857,807885.086,811351.734,1,40,23,
sequence,flow.Sequence,8_22,2023-11-27T17:52:23.259Z,,,,,,,,,,,3703.113999809255,completion,,,,,,,low,low,,,,,,,false,,,,,true,811588.5,811588.1999998093,807868.567,808140.899999857,807885.086,811351.734,1,40,,
trial,html.Screen,8_23_0,2023-11-27T17:52:28.396Z,,,,2,0.0367744112927588,0.0324865661712824,,0.04,true,lh,5373.665999856894,response,-1.0099417584598938,0.9958881890881368,-1.1008118819662986,0.6898515052486707,0.9374645860650643,-1.1783793966490241,low,high,,ISIC_4523565.JPG,,ISIC_8929288.JPG,28,28,false,0.2600000000000001,lh,keypress(e),0,true,816725.5999999046,816725.399999857,811318.342,811588.6999998093,811351.734,816485.228,1,40,24,
sequence,flow.Sequence,8_23,2023-11-27T17:52:28.397Z,,,,,,,,,,,5373.665999856894,completion,,,,,,,low,high,,,,,,,false,,,,,true,816726,816725.399999857,811318.342,811588.6999998093,811351.734,816485.228,1,40,,
trial,html.Screen,8_24_0,2023-11-27T17:52:30.979Z,,,,2,-0.0374659946425444,-0.0086043094957617,,0.04,true,ll,2823.171999856946,response,-1.001135039205613,0.9958881890881368,-1.0508118819662986,-1.2664651062241792,0.8874645860650643,-1.1783793966490241,low,low,,ISIC_0033051.JPG,,ISIC_0068886.JPG,28,36,false,0.1,ll,keypress(f),0,true,819308.5,819308.399999857,816468.259,816726.1999998093,816485.228,819068.793,1,40,25,
sequence,flow.Sequence,8_24,2023-11-27T17:52:30.979Z,,,,,,,,,,,2823.171999856946,completion,,,,,,,low,low,,,,,,,false,,,,,true,819308.6999998093,819308.399999857,816468.259,816726.1999998093,816485.228,819068.793,1,40,,
trial,html.Screen,8_25_0,2023-11-27T17:52:35.980Z,,,,2,-0.0088741920055285,-0.0058246074740588,,0.04,false,hl,5239.906999809318,response,0.7308116448711435,0.9958881890881368,-1.0508118819662986,-0.908713834988551,0.8874645860650643,-1.0838000727148962,high,low,,ISIC_4136663.JPG,,ISIC_7811951.JPG,28,26,false,0.30000000000000016,lh,keypress(e),0,true,824308.899999857,824308.6999998093,819035.11,819308.7999999523,819068.793,824068.399,1,40,26,
sequence,flow.Sequence,8_25,2023-11-27T17:52:35.980Z,,,,,,,,,,,5239.906999809318,completion,,,,,,,high,low,,,,,,,false,,,,,true,824309.1999998093,824308.6999998093,819035.11,819308.7999999523,819068.793,824068.399,1,40,,
trial,html.Screen,8_26_0,2023-11-27T17:52:41.316Z,,,,2,0.0200295718112167,0.0155559071275806,,0.04,false,lh,5576.601000000024,response,-1.0116417541846066,1.0458881890881369,-1.0508118819662986,1.033442916947398,0.8874645860650643,-1.1338000727148962,low,high,,ISIC_0061343.JPG,,ISIC_0031389.JPG,28,25,false,0.21000000000000008,ll,keypress(f),0,true,829645.1999998093,829645,824051.711,824309.399999857,824068.399,829401.785,1,40,27,
sequence,flow.Sequence,8_26,2023-11-27T17:52:41.316Z,,,,,,,,,,,5576.601000000024,completion,,,,,,,low,high,,,,,,,false,,,,,true,829645.5999999046,829645,824051.711,824309.2999999523,824068.399,829401.785,1,40,,
trial,html.Screen,8_27_0,2023-11-27T17:52:43.267Z,,,,2,-0.0088741920055285,-0.0058246074740588,,0.04,true,ll,2194.3149999046,response,-0.970732112511705,1.0458881890881369,-0.9563883966951099,-1.166572336354465,0.9374645860650643,-1.1338000727148962,low,low,,ISIC_4136663.JPG,,ISIC_0010778.JPG,28,35,false,0.1,ll,keypress(f),0,true,831596.1999998093,831596.0999999046,829384.999,829645.7999999523,829401.785,831351.755,1,40,28,
sequence,flow.Sequence,8_27,2023-11-27T17:52:43.267Z,,,,,,,,,,,2194.3149999046,completion,,,,,,,low,low,,,,,,,false,,,,,true,831596.399999857,831596.0999999046,829384.999,829645.6999998093,829401.785,831351.755,1,40,,
trial,html.Screen,8_28_0,2023-11-27T17:52:48.155Z,,,,2,-0.0109416414475118,-0.005246498750811,,0.04,false,hl,5132.044999952312,response,0.8513427412482127,1.0458881890881369,-0.9563883966951099,-0.9295303568095064,0.9374645860650643,-1.1338000727148962,high,low,,ISIC_0064279.JPG,,ISIC_0034164.JPG,28,28,false,0.3500000000000002,hh,keypress(i),0,true,836484,836483.7999999523,831335.131,831596.399999857,831351.755,836235.093,1,40,29,
sequence,flow.Sequence,8_28,2023-11-27T17:52:48.155Z,,,,,,,,,,,5132.044999952312,completion,,,,,,,high,low,,,,,,,false,,,,,true,836484.0999999046,836483.7999999523,831335.131,831596.399999857,831351.755,836235.093,1,40,,
trial,html.Screen,8_29_0,2023-11-27T17:52:55.356Z,,,,2,0.0367706518941078,-0.0161069838272154,,0.04,false,hl,7449.806999856955,response,0.9754077946987664,1.0458881890881369,-0.9563883966951099,-1.1821868813141057,0.9374645860650643,-1.1838000727148963,high,low,,ISIC_0033419.JPG,,ISIC_0024317.JPG,28,26,false,0.3600000000000002,hh,keypress(i),0,true,843685.1999998093,843684.899999857,836218.38,836484.0999999046,836235.093,843435.092,1,40,30,
sequence,flow.Sequence,8_29,2023-11-27T17:52:55.356Z,,,,,,,,,,,7449.806999856955,completion,,,,,,,high,low,,,,,,,false,,,,,true,843685.5,843684.899999857,836218.38,836484.0999999046,836235.093,843435.092,1,40,,
trial,html.Screen,8_30_0,2023-11-27T17:53:07.908Z,,,,2,-0.0074667911845194,0.018500200317654,,0.04,false,lh,12801.60799980932,response,-1.045301444872812,0.8633752679734895,-0.9563883966951099,1.0872560254441277,0.9374645860650643,-1.1838000727148963,low,high,,ISIC_0058723.JPG,,ISIC_4507700.JPG,28,29,false,0.19000000000000006,hl,keypress(j),0,true,856236.7999999523,856236.6999998093,843418.216,843685.6999998093,843435.092,855985.124,1,40,31,
sequence,flow.Sequence,8_30,2023-11-27T17:53:07.908Z,,,,,,,,,,,12801.60799980932,completion,,,,,,,low,high,,,,,,,false,,,,,true,856237.0999999046,856236.6999998093,843418.216,843685.6999998093,843435.092,855985.124,1,40,,
trial,html.Screen,8_31_0,2023-11-27T17:53:23.547Z,,,,2,-0.0388334549081915,0.0303399972963369,,0.04,true,hl,15891.175999952364,response,1.075512775389519,0.8633752679734895,-1.00638839669511,-1.0454702683049502,0.9874645860650644,-1.1838000727148963,high,low,,ISIC_4961708.JPG,,ISIC_0033603.JPG,28,25,false,0.28000000000000014,hl,keypress(j),0,true,871876.5,871876.2999999523,855968.101,856237.2999999523,855985.124,871652.032,1,40,32,
sequence,flow.Sequence,8_31,2023-11-27T17:53:23.548Z,,,,,,,,,,,15891.175999952364,completion,,,,,,,high,low,,,,,,,false,,,,,true,871876.6999998093,871876.2999999523,855968.101,856237.1999998093,855985.124,871652.032,1,40,,
trial,html.Screen,8_32_0,2023-11-27T17:53:25.979Z,,,,2,-0.0241900387072296,0.0339955304424736,,0.04,true,ll,2656.2679999523098,response,-0.9818230031674032,0.8633752679734895,-1.00638839669511,-1.2791121042047748,0.9874645860650644,-1.1838000727148963,low,low,,ISIC_0010789.JPG,,ISIC_0057286.JPG,28,37,false,0.1,ll,keypress(f),0,true,874308.5,874308.2999999523,871635.263,871876.7999999523,871652.032,874069.682,1,40,33,
sequence,flow.Sequence,8_32,2023-11-27T17:53:25.980Z,,,,,,,,,,,2656.2679999523098,completion,,,,,,,low,low,,,,,,,false,,,,,true,874308.6999998093,874308.2999999523,871635.263,871876.7999999523,871652.032,874069.682,1,40,,
trial,html.Screen,8_33_0,2023-11-27T17:53:29.516Z,,,,2,-0.0164027439304477,0.0082910758715273,,0.04,true,hh,3775.217999856919,response,0.8596006200412799,0.8633752679734895,-1.00638839669511,0.9571430175944712,0.9874645860650644,-1.080467553686089,high,high,,ISIC_7381224.JPG,,ISIC_0663824.JPG,28,39,false,0.1,hh,keypress(i),0,true,877845.2999999523,877844.899999857,874035.147,874308.7999999523,874069.682,877601.856,1,40,34,
sequence,flow.Sequence,8_33,2023-11-27T17:53:29.517Z,,,,,,,,,,,3775.217999856919,completion,,,,,,,high,high,,,,,,,false,,,,,true,877845.7999999523,877844.899999857,874035.147,874308.7999999523,874069.682,877601.856,1,40,,
trial,html.Screen,8_34_0,2023-11-27T17:53:37.684Z,,,,2,-0.0388334549081915,0.0303399972963369,,0.04,false,ll,8411.04399985692,response,-0.9766645409582418,0.8583718188178755,-1.00638839669511,-1.086167902767275,0.9874645860650644,-1.080467553686089,low,low,,ISIC_4961708.JPG,,ISIC_0011526.JPG,28,46,false,0.1,lh,keypress(e),0,true,886013.0999999046,886012.899999857,877585.212,877845.899999857,877601.856,885768.582,1,40,35,
sequence,flow.Sequence,8_34,2023-11-27T17:53:37.684Z,,,,,,,,,,,8411.04399985692,completion,,,,,,,low,low,,,,,,,false,,,,,true,886013.5,886012.899999857,877585.212,877845.899999857,877601.856,885768.582,1,40,,
trial,html.Screen,8_35_0,2023-11-27T17:53:42.228Z,,,,2,-0.0388181790775959,0.0049623405709465,,0.04,true,ll,4788.217999952263,response,-0.970732112511705,0.8583718188178755,-0.9563883966951099,-1.166572336354465,0.9874645860650644,-1.130467553686089,low,low,,ISIC_0061880.JPG,,ISIC_0010778.JPG,28,36,false,0.1,ll,keypress(f),0,true,890557.0999999046,890556.7999999523,885751.668,886013.5999999046,885768.582,890318.492,1,40,36,
sequence,flow.Sequence,8_35,2023-11-27T17:53:42.228Z,,,,,,,,,,,4788.217999952263,completion,,,,,,,low,low,,,,,,,false,,,,,true,890557.5,890556.7999999523,885751.668,886013.5999999046,885768.582,890318.492,1,40,,
trial,html.Screen,8_36_0,2023-11-27T17:53:53.452Z,,,,2,-0.039520186367207,-0.0377961575607372,,0.04,true,lh,11461.90799985698,response,-0.9089402323867112,0.8583718188178755,-0.9563883966951099,0.8034544077281132,0.9874645860650644,-1.130467553686089,low,high,,ISIC_6356149.JPG,,ISIC_3585381.JPG,28,30,false,0.22000000000000008,lh,keypress(e),0,true,901780.5,901780.399999857,890285.073,890557.5999999046,890318.492,901535.384,1,40,37,
sequence,flow.Sequence,8_36,2023-11-27T17:53:53.452Z,,,,,,,,,,,11461.90799985698,completion,,,,,,,low,high,,,,,,,false,,,,,true,901780.6999998093,901780.399999857,890285.073,890557.5999999046,890318.492,901535.384,1,40,,
trial,html.Screen,8_37_0,2023-11-27T17:53:57.979Z,,,,2,-0.0065172941585523,0.0118857043117315,,0.04,false,hh,4772.315999809303,response,0.8071149391753215,0.8583718188178755,-0.9063883966951098,0.9485840589720004,0.9374645860650643,-1.130467553686089,high,high,,ISIC_6119202.JPG,,ISIC_2784686.JPG,28,45,false,0.1,lh,keypress(e),0,true,906307.7999999523,906307.6999998093,901518.093,901780.7999999523,901535.384,906051.841,1,40,38,
sequence,flow.Sequence,8_37,2023-11-27T17:53:57.979Z,,,,,,,,,,,4772.315999809303,completion,,,,,,,high,high,,,,,,,false,,,,,true,906307.899999857,906307.6999998093,901518.093,901780.7999999523,901535.384,906051.841,1,40,,
trial,html.Screen,8_38_0,2023-11-27T17:54:09.709Z,,,,2,-0.0388334549081915,0.0303399972963369,,0.04,false,hh,11985.258999904618,response,0.8583713655302294,0.9083718188178755,-0.9063883966951098,0.865522810053245,0.9374645860650643,-1.130467553686089,high,high,,ISIC_4961708.JPG,,ISIC_4320200.JPG,28,39,false,0.1,hl,keypress(j),0,true,918037.2999999523,918037.0999999046,906035.2,906307.899999857,906051.841,917785.269,1,40,39,
sequence,flow.Sequence,8_38,2023-11-27T17:54:09.709Z,,,,,,,,,,,11985.258999904618,completion,,,,,,,high,high,,,,,,,false,,,,,true,918037.5999999046,918037.0999999046,906035.2,906307.899999857,906051.841,917785.269,1,40,,
trial,html.Screen,8_39_0,2023-11-27T17:54:24.459Z,,,,2,0.0009714874637896,-0.0174815595031679,,0.04,false,lh,15002.830999904661,response,-0.8443403196524287,0.9083718188178755,-0.9063883966951098,0.8858525429102605,0.9874645860650644,-1.130467553686089,low,high,,ISIC_9848743.JPG,,ISIC_8777813.JPG,28,25,false,0.19000000000000006,hh,keypress(i),0,true,932788.1999998093,932788.0999999046,917768.219,918037.7999999523,917785.269,932535.177,1,40,40,
sequence,flow.Sequence,8_39,2023-11-27T17:54:24.460Z,,,,,,,,,,,15002.830999904661,completion,,,,,,,low,high,,,,,,,false,,,,,true,932788.2999999523,932788.0999999046,917768.219,918037.6999998093,917785.269,932535.177,1,40,,
stair_loop,flow.Loop,8,2023-11-27T17:54:24.460Z,,,,,,,,,,,276919.9209999046,completion,,,,,,,,,,,,,,,false,,,,,true,932788.399999857,932788.0999999046,655834.894,656099.899999857,655868.179,932535.177,1,40,,
exp_instructions,html.Screen,9,2023-11-27T17:54:42.404Z,,,,,,,,,,,18196.722999856924,response,,,,,,,,,,,,,,,,,continue,keypress(Space),,,950732.2999999523,950731.899999857,932518.014,932788.399999857,932535.177,950485.232,,,,
trial,html.Screen,10_0_0,2023-11-27T17:54:48.042Z,,,,1,0.0220026381002083,-0.0170756452911772,,0.04,false,hl,5885.167999856989,response,0.653428169925849,0.9585418748753156,-1.001936616540026,-1.1440026895944202,0.942110892953913,-1.1462785220383456,high,low,,ISIC_5347806.JPG,9,ISIC_0031214.JPG,28,26,false,0.31000000000000016,ll,keypress(f),0,false,956370.5,956370.399999857,950467.968,950732.399999857,950485.232,956135.264,5,600,1,
break,html.Screen,10_0_1,2023-11-27T17:54:48.043Z,,,,,,,,,,,NaN,,,,,,,,high,low,,,,,,,false,,,,,false,956371.2999999523,956371.0999999046,,956370.6999998093,,956135.264,5,600,,
break_continue,html.Screen,10_0_2,2023-11-27T17:54:48.043Z,,,,,,,,,,,NaN,,,,,,,,high,low,,,,,,,false,,,,,false,956371.7999999523,956371.6999998093,,956371.399999857,,956135.264,5,600,,
sequence,flow.Sequence,10_0,2023-11-27T17:54:48.044Z,,,,,,,,,,,5886.467999809305,completion,,,,,,,high,low,,,,,,,false,,,,,false,956372.0999999046,956371.6999998093,950467.968,950732.399999857,950485.232,956135.264,5,600,,
trial,html.Screen,10_1_0,2023-11-27T17:54:52.260Z,,,,1,-0.0199950873045219,-0.0172506388509166,,0.04,false,hl,4452.935999809299,response,0.8513427412482127,0.9585418748753156,-1.001936616540026,-0.9295303568095064,0.942110892953913,-1.1462785220383456,high,low,,ISIC_0029906.JPG,9,ISIC_0034164.JPG,28,26,false,0.31000000000000016,hh,keypress(i),0,false,960588.5,960588.1999998093,956101.884,956372.1999998093,956135.264,960351.947,5,600,2,
break,html.Screen,10_1_1,2023-11-27T17:54:52.261Z,,,,,,,,,,,NaN,,,,,,,,high,low,,,,,,,false,,,,,false,960589.1999998093,960589,,960588.6999998093,,960351.947,5,600,,
break_continue,html.Screen,10_1_2,2023-11-27T17:54:52.261Z,,,,,,,,,,,NaN,,,,,,,,high,low,,,,,,,false,,,,,false,960589.5999999046,960589.399999857,,960589.2999999523,,960351.947,5,600,,
sequence,flow.Sequence,10_1,2023-11-27T17:54:52.261Z,,,,,,,,,,,4454.135999856982,completion,,,,,,,high,low,,,,,,,false,,,,,false,960589.6999998093,960589.399999857,956101.884,956372.1999998093,956135.264,960351.947,5,600,,
trial,html.Screen,10_2_0,2023-11-27T17:54:59.924Z,,,,1,-0.0388334549081915,0.0303399972963369,,0.04,false,hl,7900.052999999956,response,0.6742481921837281,0.9585418748753156,-1.001936616540026,-0.9118635731669033,0.942110892953913,-1.1462785220383456,high,low,,ISIC_4961708.JPG,9,ISIC_7961365.JPG,28,26,false,0.31000000000000016,lh,keypress(e),0,false,968252.0999999046,968252,960318.641,960589.7999999523,960351.947,968001.937,5,600,3,
break,html.Screen,10_2_1,2023-11-27T17:54:59.924Z,,,,,,,,,,,NaN,,,,,,,,high,low,,,,,,,false,,,,,false,968252.5,968252.399999857,,968252.2999999523,,968001.937,5,600,,
break_continue,html.Screen,10_2_2,2023-11-27T17:54:59.924Z,,,,,,,,,,,NaN,,,,,,,,high,low,,,,,,,false,,,,,false,968252.6999998093,968252.5999999046,,968252.5999999046,,968001.937,5,600,,
sequence,flow.Sequence,10_2,2023-11-27T17:54:59.924Z,,,,,,,,,,,7900.652999904589,completion,,,,,,,high,low,,,,,,,false,,,,,false,968252.6999998093,968252.5999999046,960318.641,960589.7999999523,960351.947,968001.937,5,600,,
trial,html.Screen,10_3_0,2023-11-27T17:55:05.628Z,,,,1,-0.0198696495649504,0.0387952353063878,,0.04,true,hl,5954.462999856914,response,0.6761556401281956,0.9585418748753156,-1.001936616540026,-0.9655386457143784,0.942110892953913,-1.1462785220383456,high,low,,ISIC_6735970.JPG,10,ISIC_8268025.JPG,28,26,false,0.31000000000000016,hl,keypress(j),0,false,973956.5999999046,973956.399999857,967985.38,968252.7999999523,968001.937,973701.99,5,600,4,
break,html.Screen,10_3_1,2023-11-27T17:55:05.629Z,,,,,,,,,,,NaN,,,,,,,,high,low,,,,,,,false,,,,,false,973957.2999999523,973957.0999999046,,973956.7999999523,,973701.99,5,600,,
break_continue,html.Screen,10_3_2,2023-11-27T17:55:05.629Z,,,,,,,,,,,NaN,,,,,,,,high,low,,,,,,,false,,,,,false,973957.7999999523,973957.5999999046,,973957.5,,973701.99,5,600,,
sequence,flow.Sequence,10_3,2023-11-27T17:55:05.629Z,,,,,,,,,,,5955.662999904598,completion,,,,,,,high,low,,,,,,,false,,,,,false,973958,973957.5999999046,967985.38,968252.7999999523,968001.937,973701.99,5,600,,
trial,html.Screen,10_4_0,2023-11-27T17:55:11.835Z,,,,1,-0.0199950873045219,-0.0172506388509166,,0.04,false,hh,6461.909999856958,response,1.0122348575830964,0.9585418748753156,-1.001936616540026,1.007833368115011,0.942110892953913,-1.1462785220383456,high,high,,ISIC_0029906.JPG,9,ISIC_8145260.JPG,28,33,false,0.1,lh,keypress(e),0,false,980164,980163.899999857,973685.187,973958.0999999046,973701.99,979918.715,5,600,5,
break,html.Screen,10_4_1,2023-11-27T17:55:11.836Z,,,,,,,,,,,NaN,,,,,,,,high,high,,,,,,,false,,,,,false,980164.2999999523,980164.1999998093,,980164.0999999046,,979918.715,5,600,,
break_continue,html.Screen,10_4_2,2023-11-27T17:55:11.836Z,,,,,,,,,,,NaN,,,,,,,,high,high,,,,,,,false,,,,,false,980164.5,980164.399999857,,980164.399999857,,979918.715,5,600,,
sequence,flow.Sequence,10_4,2023-11-27T17:55:11.836Z,,,,,,,,,,,6462.409999856958,completion,,,,,,,high,high,,,,,,,false,,,,,false,980164.5999999046,980164.399999857,973685.187,973958.0999999046,973701.99,979918.715,5,600,,
trial,html.Screen,10_5_0,2023-11-27T17:55:20.187Z,,,,1,0.0367706518941078,-0.0161069838272154,,0.04,false,ll,8597.184999856981,response,-1.0679712388489528,0.9585418748753156,-1.001936616540026,-1.0509600192807842,0.942110892953913,-1.1462785220383456,low,low,,ISIC_0033419.JPG,8,ISIC_0015180.JPG,28,39,false,0.1,hl,keypress(j),0,false,988516,988515.899999857,979902.016,980164.6999998093,979918.715,988268.724,5,600,6,
break,html.Screen,10_5_1,2023-11-27T17:55:20.188Z,,,,,,,,,,,NaN,,,,,,,,low,low,,,,,,,false,,,,,false,988516.2999999523,988516.1999998093,,988516,,988268.724,5,600,,
break_continue,html.Screen,10_5_2,2023-11-27T17:55:20.188Z,,,,,,,,,,,NaN,,,,,,,,low,low,,,,,,,false,,,,,false,988516.5,988516.399999857,,988516.2999999523,,988268.724,5,600,,
sequence,flow.Sequence,10_5,2023-11-27T17:55:20.188Z,,,,,,,,,,,8597.684999856981,completion,,,,,,,low,low,,,,,,,false,,,,,false,988516.5,988516.399999857,979902.016,980164.6999998093,979918.715,988268.724,5,600,,
trial,html.Screen,10_6_0,2023-11-27T17:55:25.813Z,,,,1,-0.0074667911845194,0.018500200317654,,0.04,true,hh,5872.175999856903,response,0.8664556873113695,0.9585418748753156,-1.001936616540026,0.9753511680199736,0.942110892953913,-1.1462785220383456,high,high,,ISIC_0058723.JPG,9,ISIC_0340453.JPG,28,33,false,0.1,hh,keypress(i),0,false,994141.1999998093,994140.899999857,988251.893,988516.5,988268.724,993918.642,5,600,7,
break,html.Screen,10_6_1,2023-11-27T17:55:25.814Z,,,,,,,,,,,NaN,,,,,,,,high,high,,,,,,,false,,,,,false,994142.1999998093,994141.7999999523,,994141.5,,993918.642,5,600,,
break_continue,html.Screen,10_6_2,2023-11-27T17:55:25.814Z,,,,,,,,,,,NaN,,,,,,,,high,high,,,,,,,false,,,,,false,994142.7999999523,994142.5,,994142.399999857,,993918.642,5,600,,
sequence,flow.Sequence,10_6,2023-11-27T17:55:25.815Z,,,,,,,,,,,5873.775999999954,completion,,,,,,,high,high,,,,,,,false,,,,,false,994143,994142.5,988251.893,988516.5,988268.724,993918.642,5,600,,
trial,html.Screen,10_7_0,2023-11-27T17:55:28.236Z,,,,1,0.0257631352671967,0.0202837002774028,,0.04,false,hl,2645.3580000000075,response,0.6526724457046548,0.9585418748753156,-1.001936616540026,-1.080229511722363,0.942110892953913,-1.1462785220383456,high,low,,ISIC_0032797.JPG,9,ISIC_4876193.JPG,28,26,false,0.31000000000000016,hh,keypress(i),0,false,996564.1999998093,996564,993868.535,994143.1999998093,993918.642,996318.899,5,600,8,
break,html.Screen,10_7_1,2023-11-27T17:55:28.236Z,,,,,,,,,,,NaN,,,,,,,,high,low,,,,,,,false,,,,,false,996564.5,996564.399999857,,996564.2999999523,,996318.899,5,600,,
break_continue,html.Screen,10_7_2,2023-11-27T17:55:28.236Z,,,,,,,,,,,NaN,,,,,,,,high,low,,,,,,,false,,,,,false,996564.6999998093,996564.6999998093,,996564.5999999046,,996318.899,5,600,,
sequence,flow.Sequence,10_7,2023-11-27T17:55:28.236Z,,,,,,,,,,,2646.0579998092726,completion,,,,,,,high,low,,,,,,,false,,,,,false,996564.7999999523,996564.6999998093,993868.535,994143.1999998093,993918.642,996318.899,5,600,,
trial,html.Screen,10_8_0,2023-11-27T17:55:33.204Z,,,,1,0.0286056110007553,0.036125199756515,,0.04,false,hh,5213.200999904657,response,1.035964430384965,0.9585418748753156,-1.001936616540026,0.9471381332169626,0.942110892953913,-1.1462785220383456,high,high,,ISIC_6535558.JPG,9,ISIC_8622204.JPG,28,33,false,0.1,lh,keypress(e),0,false,1001532.1999998093,1001532.0999999046,996302.068,996564.899999857,996318.899,1001285.405,5,600,9,
break,html.Screen,10_8_1,2023-11-27T17:55:33.204Z,,,,,,,,,,,NaN,,,,,,,,high,high,,,,,,,false,,,,,false,1001532.5,1001532.5,,1001532.2999999523,,1001285.405,5,600,,
break_continue,html.Screen,10_8_2,2023-11-27T17:55:33.204Z,,,,,,,,,,,NaN,,,,,,,,high,high,,,,,,,false,,,,,false,1001532.7999999523,1001532.6999998093,,1001532.5999999046,,1001285.405,5,600,,
sequence,flow.Sequence,10_8,2023-11-27T17:55:33.204Z,,,,,,,,,,,5213.800999809289,completion,,,,,,,high,high,,,,,,,false,,,,,false,1001532.899999857,1001532.6999998093,996302.068,996564.899999857,996318.899,1001285.405,5,600,,
trial,html.Screen,10_9_0,2023-11-27T17:55:43.821Z,,,,1,-0.0088741920055285,-0.0058246074740588,,0.04,false,hh,10863.494999856921,response,1.0325421457475312,0.9585418748753156,-1.001936616540026,1.0219157566370058,0.942110892953913,-1.1462785220383456,high,high,,ISIC_4136663.JPG,9,ISIC_5336548.JPG,28,33,false,0.1,hl,keypress(j),0,false,1012149.1999998093,1012148.899999857,1001268.559,1001532.899999857,1001285.405,1011902.029,5,600,10,
break,html.Screen,10_9_1,2023-11-27T17:55:43.822Z,,,,,,,,,,,NaN,,,,,,,,high,high,,,,,,,false,,,,,false,1012150.1999998093,1012150,,1012149.5,,1011902.029,5,600,,
break_continue,html.Screen,10_9_2,2023-11-27T17:55:43.822Z,,,,,,,,,,,NaN,,,,,,,,high,high,,,,,,,false,,,,,false,1012151,1012150.5999999046,,1012150.399999857,,1011902.029,5,600,,
sequence,flow.Sequence,10_9,2023-11-27T17:55:43.823Z,,,,,,,,,,,10865.194999904605,completion,,,,,,,high,high,,,,,,,false,,,,,false,1012151.1999998093,1012150.5999999046,1001268.559,1001532.899999857,1001285.405,1011902.029,5,600,,
trial,html.Screen,10_10_0,2023-11-27T17:55:48.572Z,,,,1,-0.0109416414475118,-0.005246498750811,,0.04,false,hh,4997.870999856968,response,1.0058354021163274,0.9585418748753156,-1.001936616540026,0.8916720716393026,0.942110892953913,-1.1462785220383456,high,high,,ISIC_0064279.JPG,8,ISIC_5581936.JPG,28,33,false,0.1,hl,keypress(j),0,false,1016900.0999999046,1016899.899999857,1011885.461,1012151.399999857,1011902.029,1016652.003,5,600,11,
break,html.Screen,10_10_1,2023-11-27T17:55:48.572Z,,,,,,,,,,,NaN,,,,,,,,high,high,,,,,,,false,,,,,false,1016900.399999857,1016900.2999999523,,1016900.0999999046,,1016652.003,5,600,,
break_continue,html.Screen,10_10_2,2023-11-27T17:55:48.572Z,,,,,,,,,,,NaN,,,,,,,,high,high,,,,,,,false,,,,,false,1016900.5999999046,1016900.5,,1016900.5,,1016652.003,5,600,,
sequence,flow.Sequence,10_10,2023-11-27T17:55:48.572Z,,,,,,,,,,,4998.47100000002,completion,,,,,,,high,high,,,,,,,false,,,,,false,1016900.5999999046,1016900.5,1011885.461,1012151.2999999523,1011902.029,1016652.003,5,600,,
trial,html.Screen,10_11_0,2023-11-27T17:56:03.245Z,,,,1,-0.0088741920055285,-0.0058246074740588,,0.04,false,lh,14920.896999856923,response,-1.0685314915436992,0.9585418748753156,-1.001936616540026,0.8203833713472237,0.942110892953913,-1.1462785220383456,low,high,,ISIC_4136663.JPG,9,ISIC_0029374.JPG,28,27,false,0.22000000000000008,ll,keypress(f),0,false,1031573.1999998093,1031572.899999857,1016635.226,1016900.6999998093,1016652.003,1031318.747,5,600,12,
break,html.Screen,10_11_1,2023-11-27T17:56:03.246Z,,,,,,,,,,,NaN,,,,,,,,low,high,,,,,,,false,,,,,false,1031574.0999999046,1031573.7999999523,,1031573.399999857,,1031318.747,5,600,,
break_continue,html.Screen,10_11_2,2023-11-27T17:56:03.246Z,,,,,,,,,,,NaN,,,,,,,,low,high,,,,,,,false,,,,,false,1031574.6999998093,1031574.399999857,,1031574.2999999523,,1031318.747,5,600,,
sequence,flow.Sequence,10_11,2023-11-27T17:56:03.247Z,,,,,,,,,,,14922.396999856923,completion,,,,,,,low,high,,,,,,,false,,,,,false,1031574.899999857,1031574.399999857,1016635.226,1016900.6999998093,1016652.003,1031318.747,5,600,,
trial,html.Screen,10_12_0,2023-11-27T17:56:09.444Z,,,,1,-0.0074667911845194,0.018500200317654,,0.04,false,hh,6453.852999904659,response,0.8596006200412799,0.9585418748753156,-1.001936616540026,0.9571430175944712,0.942110892953913,-1.1462785220383456,high,high,,ISIC_0058723.JPG,9,ISIC_0663824.JPG,28,33,false,0.1,lh,keypress(e),0,false,1037772.7999999523,1037772.5999999046,1031302.071,1031575.0999999046,1031318.747,1037518.701,5,600,13,
break,html.Screen,10_12_1,2023-11-27T17:56:09.445Z,,,,,,,,,,,NaN,,,,,,,,high,high,,,,,,,false,,,,,false,1037773.399999857,1037773.1999998093,,1037773,,1037518.701,5,600,,
break_continue,html.Screen,10_12_2,2023-11-27T17:56:09.445Z,,,,,,,,,,,NaN,,,,,,,,high,high,,,,,,,false,,,,,false,1037773.7999999523,1037773.5999999046,,1037773.5,,1037518.701,5,600,,
sequence,flow.Sequence,10_12,2023-11-27T17:56:09.446Z,,,,,,,,,,,6454.852999904659,completion,,,,,,,high,high,,,,,,,false,,,,,false,1037773.899999857,1037773.5999999046,1031302.071,1031575.0999999046,1031318.747,1037518.701,5,600,,
trial,html.Screen,10_13_0,2023-11-27T17:56:14.972Z,,,,1,0.0118382036798625,0.0300588245877227,,0.04,true,lh,5781.598999952315,response,-0.9089402323867112,0.9585418748753156,-1.001936616540026,0.8034544077281132,0.942110892953913,-1.1462785220383456,low,high,,ISIC_4748605.JPG,9,ISIC_3585381.JPG,28,27,false,0.22000000000000008,lh,keypress(e),0,false,1043300.5,1043300.2999999523,1037502.06,1037774,1037518.701,1043052.064,5,600,14,
break,html.Screen,10_13_1,2023-11-27T17:56:14.973Z,,,,,,,,,,,NaN,,,,,,,,low,high,,,,,,,false,,,,,false,1043301,1043300.899999857,,1043300.5999999046,,1043052.064,5,600,,
break_continue,html.Screen,10_13_2,2023-11-27T17:56:14.973Z,,,,,,,,,,,NaN,,,,,,,,low,high,,,,,,,false,,,,,false,1043301.2999999523,1043301.2999999523,,1043301.0999999046,,1043052.064,5,600,,
sequence,flow.Sequence,10_13,2023-11-27T17:56:14.973Z,,,,,,,,,,,5782.598999952315,completion,,,,,,,low,high,,,,,,,false,,,,,false,1043301.5,1043301.2999999523,1037502.06,1037774,1037518.701,1043052.064,5,600,,
trial,html.Screen,10_14_0,2023-11-27T17:56:18.356Z,,,,1,0.0308384937406319,-0.0038396364323947,,0.04,true,ll,3631.835999856936,response,-0.9294281370493894,0.9585418748753156,-1.001936616540026,-1.1327283202367815,0.942110892953913,-1.1462785220383456,low,low,,ISIC_0029825.JPG,10,ISIC_0072953.JPG,28,39,false,0.1,ll,keypress(f),0,false,1046684,1046683.899999857,1043035.423,1043301.5999999046,1043052.064,1046435.354,5,600,15,
break,html.Screen,10_14_1,2023-11-27T17:56:18.356Z,,,,,,,,,,,NaN,,,,,,,,low,low,,,,,,,false,,,,,false,1046684.2999999523,1046684.1999998093,,1046684.0999999046,,1046435.354,5,600,,
break_continue,html.Screen,10_14_2,2023-11-27T17:56:18.356Z,,,,,,,,,,,NaN,,,,,,,,low,low,,,,,,,false,,,,,false,1046684.5,1046684.5,,1046684.2999999523,,1046435.354,5,600,,
sequence,flow.Sequence,10_14,2023-11-27T17:56:18.356Z,,,,,,,,,,,3632.435999999987,completion,,,,,,,low,low,,,,,,,false,,,,,false,1046684.5,1046684.5,1043035.423,1043301.5999999046,1043052.064,1046435.354,5,600,,
trial,html.Screen,10_15_0,2023-11-27T17:56:20.333Z,,,,1,0.0044063257337227,0.0172548282859886,,0.04,true,ll,2225.5459998568986,response,-1.061329542878903,0.9585418748753156,-1.001936616540026,-1.0605755702127622,0.942110892953913,-1.1462785220383456,low,low,,ISIC_7413786.JPG,9,ISIC_0065622.JPG,28,39,false,0.1,ll,keypress(f),0,false,1048661.1999998093,1048660.899999857,1046418.786,1046684.6999998093,1046435.354,1048418.743,5,600,16,
break,html.Screen,10_15_1,2023-11-27T17:56:20.334Z,,,,,,,,,,,NaN,,,,,,,,low,low,,,,,,,false,,,,,false,1048662.0999999046,1048661.899999857,,1048661.5,,1048418.743,5,600,,
break_continue,html.Screen,10_15_2,2023-11-27T17:56:20.334Z,,,,,,,,,,,NaN,,,,,,,,low,low,,,,,,,false,,,,,false,1048662.6999998093,1048662.5,,1048662.2999999523,,1048418.743,5,600,,
sequence,flow.Sequence,10_15,2023-11-27T17:56:20.335Z,,,,,,,,,,,2227.1459999999497,completion,,,,,,,low,low,,,,,,,false,,,,,false,1048662.899999857,1048662.5,1046418.786,1046684.5999999046,1046435.354,1048418.743,5,600,,
trial,html.Screen,10_16_0,2023-11-27T17:56:32.612Z,,,,1,-0.0074667911845194,0.018500200317654,,0.04,false,lh,12521.256999999983,response,-1.2020012168275056,0.9585418748753156,-1.001936616540026,0.923753102263735,0.942110892953913,-1.1462785220383456,low,high,,ISIC_0058723.JPG,9,ISIC_0000022.JPG,28,27,false,0.22000000000000008,ll,keypress(f),0,false,1060940.0999999046,1060940,1048402.253,1048663.1999998093,1048418.743,1060702.064,5,600,17,
break,html.Screen,10_16_1,2023-11-27T17:56:32.612Z,,,,,,,,,,,NaN,,,,,,,,low,high,,,,,,,false,,,,,false,1060940.399999857,1060940.2999999523,,1060940.1999998093,,1060702.064,5,600,,
break_continue,html.Screen,10_16_2,2023-11-27T17:56:32.612Z,,,,,,,,,,,NaN,,,,,,,,low,high,,,,,,,false,,,,,false,1060940.5999999046,1060940.399999857,,1060940.399999857,,1060702.064,5,600,,
sequence,flow.Sequence,10_16,2023-11-27T17:56:32.612Z,,,,,,,,,,,12521.656999856932,completion,,,,,,,low,high,,,,,,,false,,,,,false,1060940.5999999046,1060940.399999857,1048402.253,1048663.0999999046,1048418.743,1060702.064,5,600,,
trial,html.Screen,10_17_0,2023-11-27T17:56:40.988Z,,,,1,0.0118382036798625,0.0300588245877227,,0.04,true,hl,8613.735999952303,response,0.653428169925849,0.9585418748753156,-1.001936616540026,-1.1440026895944202,0.942110892953913,-1.1462785220383456,high,low,,ISIC_4748605.JPG,9,ISIC_0031214.JPG,28,26,false,0.31000000000000016,hl,keypress(j),0,false,1069315.899999857,1069315.7999999523,1060668.636,1060940.6999998093,1060702.064,1069068.739,5,600,18,
break,html.Screen,10_17_1,2023-11-27T17:56:40.988Z,,,,,,,,,,,NaN,,,,,,,,high,low,,,,,,,false,,,,,false,1069316.2999999523,1069316.0999999046,,1069316.0999999046,,1069068.739,5,600,,
break_continue,html.Screen,10_17_2,2023-11-27T17:56:40.988Z,,,,,,,,,,,NaN,,,,,,,,high,low,,,,,,,false,,,,,false,1069316.399999857,1069316.399999857,,1069316.2999999523,,1069068.739,5,600,,
sequence,flow.Sequence,10_17,2023-11-27T17:56:40.988Z,,,,,,,,,,,8614.335999856936,completion,,,,,,,high,low,,,,,,,false,,,,,false,1069316.5,1069316.399999857,1060668.636,1060940.6999998093,1060702.064,1069068.739,5,600,,
trial,html.Screen,10_18_0,2023-11-27T17:56:46.125Z,,,,1,-0.0388181790775959,0.0049623405709465,,0.04,true,lh,5384.160999856889,response,-0.8350129142228142,0.9585418748753156,-1.001936616540026,0.8172547818270586,0.942110892953913,-1.1462785220383456,low,high,,ISIC_0061880.JPG,10,ISIC_0301568.JPG,28,27,false,0.22000000000000008,lh,keypress(e),0,false,1074453.1999998093,1074452.899999857,1069051.842,1069316.5999999046,1069068.739,1074202.064,5,600,19,
break,html.Screen,10_18_1,2023-11-27T17:56:46.126Z,,,,,,,,,,,NaN,,,,,,,,low,high,,,,,,,false,,,,,false,1074454.1999998093,1074454,,1074453.5,,1074202.064,5,600,,
break_continue,html.Screen,10_18_2,2023-11-27T17:56:46.127Z,,,,,,,,,,,NaN,,,,,,,,low,high,,,,,,,false,,,,,false,1074454.7999999523,1074454.5,,1074454.2999999523,,1074202.064,5,600,,
sequence,flow.Sequence,10_18,2023-11-27T17:56:46.127Z,,,,,,,,,,,5385.76099999994,completion,,,,,,,low,high,,,,,,,false,,,,,false,1074455.0999999046,1074454.5,1069051.842,1069316.5,1069068.739,1074202.064,5,600,,
trial,html.Screen,10_19_0,2023-11-27T17:56:58.204Z,,,,1,-0.0198696495649504,0.0387952353063878,,0.04,false,ll,12330.03599990462,response,-0.9985175466432205,0.9585418748753156,-1.001936616540026,-1.1132725606321277,0.942110892953913,-1.1462785220383456,low,low,,ISIC_6735970.JPG,9,ISIC_0034002.JPG,28,39,false,0.1,hl,keypress(j),0,false,1086532.1999998093,1086532.0999999046,1074185.254,1074455.1999998093,1074202.064,1086285.432,5,600,20,
break,html.Screen,10_19_1,2023-11-27T17:56:58.204Z,,,,,,,,,,,NaN,,,,,,,,low,low,,,,,,,false,,,,,false,1086532.5,1086532.399999857,,1086532.2999999523,,1086285.432,5,600,,
break_continue,html.Screen,10_19_2,2023-11-27T17:56:58.205Z,,,,,,,,,,,NaN,,,,,,,,low,low,,,,,,,false,,,,,false,1086532.6999998093,1086532.5999999046,,1086532.5,,1086285.432,5,600,,
sequence,flow.Sequence,10_19,2023-11-27T17:56:58.205Z,,,,,,,,,,,12330.53599990462,completion,,,,,,,low,low,,,,,,,false,,,,,false,1086532.7999999523,1086532.5999999046,1074185.254,1074455.1999998093,1074202.064,1086285.432,5,600,,
trial,html.Screen,10_20_0,2023-11-27T17:57:01.020Z,,,,1,0,-0.0102871556606504,,0.04,false,lh,3062.8679999522865,response,-0.9617893983965208,0.9585418748753156,-1.001936616540026,0.9453006131304652,0.942110892953913,-1.1462785220383456,low,high,,ISIC_1805163.JPG,8,ISIC_4229473.JPG,28,27,false,0.22000000000000008,ll,keypress(f),0,false,1089348.5,1089348.2999999523,1086268.671,1086532.7999999523,1086285.432,1089102.086,5,600,21,
break,html.Screen,10_20_1,2023-11-27T17:57:01.021Z,,,,,,,,,,,NaN,,,,,,,,low,high,,,,,,,false,,,,,false,1089349,1089348.899999857,,1089348.6999998093,,1089102.086,5,600,,
break_continue,html.Screen,10_20_2,2023-11-27T17:57:01.021Z,,,,,,,,,,,NaN,,,,,,,,low,high,,,,,,,false,,,,,false,1089349.2999999523,1089349.1999998093,,1089349.1999998093,,1089102.086,5,600,,
sequence,flow.Sequence,10_20,2023-11-27T17:57:01.021Z,,,,,,,,,,,3063.7679998092353,completion,,,,,,,low,high,,,,,,,false,,,,,false,1089349.399999857,1089349.1999998093,1086268.671,1086532.7999999523,1086285.432,1089102.086,5,600,,
trial,html.Screen,10_21_0,2023-11-27T17:57:13.132Z,,,,1,-0.0109416414475118,-0.005246498750811,,0.04,false,hl,12357.813999857055,response,1.199471562817528,0.9585418748753156,-1.001936616540026,-0.8631260534979347,0.942110892953913,-1.1462785220383456,high,low,,ISIC_0064279.JPG,10,ISIC_0030754.JPG,28,26,false,0.31000000000000016,lh,keypress(e),0,false,1101460,1101459.899999857,1089085.435,1089349.5,1089102.086,1101218.79,5,600,22,
break,html.Screen,10_21_1,2023-11-27T17:57:13.132Z,,,,,,,,,,,NaN,,,,,,,,high,low,,,,,,,false,,,,,false,1101460.2999999523,1101460.2999999523,,1101460.0999999046,,1101218.79,5,600,,
break_continue,html.Screen,10_21_2,2023-11-27T17:57:13.132Z,,,,,,,,,,,NaN,,,,,,,,high,low,,,,,,,false,,,,,false,1101460.5999999046,1101460.5,,1101460.399999857,,1101218.79,5,600,,
sequence,flow.Sequence,10_21,2023-11-27T17:57:13.133Z,,,,,,,,,,,12358.414000000106,completion,,,,,,,high,low,,,,,,,false,,,,,false,1101460.6999998093,1101460.5,1089085.435,1089349.5,1089102.086,1101218.79,5,600,,
trial,html.Screen,10_22_0,2023-11-27T17:57:24.477Z,,,,1,-0.0388334549081915,0.0303399972963369,,0.04,false,hl,11586.509999952279,response,1.2578167348825195,0.9585418748753156,-1.001936616540026,-0.8371819698254004,0.942110892953913,-1.1462785220383456,high,low,,ISIC_4961708.JPG,9,ISIC_9613570.JPG,28,26,false,0.31000000000000016,lh,keypress(e),0,false,1112805.5,1112805.2999999523,1101202.184,1101460.6999998093,1101218.79,1112552.166,5,600,23,
break,html.Screen,10_22_1,2023-11-27T17:57:24.478Z,,,,,,,,,,,NaN,,,,,,,,high,low,,,,,,,false,,,,,false,1112806.399999857,1112806.1999998093,,1112805.6999998093,,1112552.166,5,600,,
break_continue,html.Screen,10_22_2,2023-11-27T17:57:24.479Z,,,,,,,,,,,NaN,,,,,,,,high,low,,,,,,,false,,,,,false,1112806.899999857,1112806.6999998093,,1112806.5,,1112552.166,5,600,,
sequence,flow.Sequence,10_22,2023-11-27T17:57:24.479Z,,,,,,,,,,,11587.909999809228,completion,,,,,,,high,low,,,,,,,false,,,,,false,1112807.0999999046,1112806.6999998093,1101202.184,1101460.6999998093,1101218.79,1112552.166,5,600,,
trial,html.Screen,10_23_0,2023-11-27T17:57:34.812Z,,,,1,-0.0374659946425444,-0.0086043094957617,,0.04,false,lh,10588.033999809297,response,-0.7856143618373893,0.9585418748753156,-1.001936616540026,1.0273608829432213,0.942110892953913,-1.1462785220383456,low,high,,ISIC_0033051.JPG,9,ISIC_9303849.JPG,28,27,false,0.22000000000000008,ll,keypress(f),0,false,1123140.399999857,1123140.1999998093,1112535.525,1112807.399999857,1112552.166,1122902.157,5,600,24,
break,html.Screen,10_23_1,2023-11-27T17:57:34.813Z,,,,,,,,,,,NaN,,,,,,,,low,high,,,,,,,false,,,,,false,1123140.7999999523,1123140.5999999046,,1123140.5,,1122902.157,5,600,,
break_continue,html.Screen,10_23_2,2023-11-27T17:57:34.813Z,,,,,,,,,,,NaN,,,,,,,,low,high,,,,,,,false,,,,,false,1123141,1123140.899999857,,1123140.7999999523,,1122902.157,5,600,,
sequence,flow.Sequence,10_23,2023-11-27T17:57:34.813Z,,,,,,,,,,,10588.73399985698,completion,,,,,,,low,high,,,,,,,false,,,,,false,1123141.0999999046,1123140.899999857,1112535.525,1112807.2999999523,1112552.166,1122902.157,5,600,,
trial,html.Screen,10_24_0,2023-11-27T17:57:41.317Z,,,,1,-0.0241900387072296,0.0339955304424736,,0.04,true,hl,6742.9429999047425,response,0.6960508345579705,0.9585418748753156,-1.001936616540026,-0.8641223012137988,0.942110892953913,-1.1462785220383456,high,low,,ISIC_0010789.JPG,9,ISIC_0033901.JPG,28,26,false,0.31000000000000016,hl,keypress(j),0,false,1129645.399999857,1129645.0999999046,1122868.99,1123141.0999999046,1122902.157,1129418.826,5,600,25,
break,html.Screen,10_24_1,2023-11-27T17:57:41.319Z,,,,,,,,,,,NaN,,,,,,,,high,low,,,,,,,false,,,,,false,1129646.7999999523,1129646.5,,1129645.7999999523,,1129418.826,5,600,,
break_continue,html.Screen,10_24_2,2023-11-27T17:57:41.320Z,,,,,,,,,,,NaN,,,,,,,,high,low,,,,,,,false,,,,,false,1129647.899999857,1129647.2999999523,,1129647,,1129418.826,5,600,,
sequence,flow.Sequence,10_24,2023-11-27T17:57:41.320Z,,,,,,,,,,,6745.142999952426,completion,,,,,,,high,low,,,,,,,false,,,,,false,1129648.2999999523,1129647.2999999523,1122868.99,1123141.0999999046,1122902.157,1129418.826,5,600,,
trial,html.Screen,10_25_0,2023-11-27T17:57:46.189Z,,,,1,0.0119001144851157,-0.0063430114540141,,0.04,false,hl,5097.6740000001155,response,0.8034318937720549,0.9585418748753156,-1.001936616540026,-1.0024917298189338,0.942110892953913,-1.1462785220383456,high,low,,ISIC_0003822.JPG,8,ISIC_0032766.JPG,28,26,false,0.31000000000000016,lh,keypress(e),0,false,1134516.6999998093,1134516.5,1129385.329,1129648.6999998093,1129418.826,1134268.813,5,600,26,
break,html.Screen,10_25_1,2023-11-27T17:57:46.189Z,,,,,,,,,,,NaN,,,,,,,,high,low,,,,,,,false,,,,,false,1134517.399999857,1134517.1999998093,,1134516.899999857,,1134268.813,5,600,,
break_continue,html.Screen,10_25_2,2023-11-27T17:57:46.190Z,,,,,,,,,,,NaN,,,,,,,,high,low,,,,,,,false,,,,,false,1134517.899999857,1134517.6999998093,,1134517.5,,1134268.813,5,600,,
sequence,flow.Sequence,10_25,2023-11-27T17:57:46.190Z,,,,,,,,,,,5098.873999809381,completion,,,,,,,high,low,,,,,,,false,,,,,false,1134518,1134517.6999998093,1129385.329,1129648.5,1129418.826,1134268.813,5,600,,
trial,html.Screen,10_26_0,2023-11-27T17:57:56.821Z,,,,1,-0.0388334549081915,0.0303399972963369,,0.04,false,hh,10879.686999999918,response,0.9249180304825352,0.9585418748753156,-1.001936616540026,0.9557254346276748,0.942110892953913,-1.1462785220383456,high,high,,ISIC_4961708.JPG,9,ISIC_6778515.JPG,28,33,false,0.1,lh,keypress(e),0,false,1145148.5999999046,1145148.5,1134252.226,1134518.0999999046,1134268.813,1144902.188,5,600,27,
break,html.Screen,10_26_1,2023-11-27T17:57:56.821Z,,,,,,,,,,,NaN,,,,,,,,high,high,,,,,,,false,,,,,false,1145149.1999998093,1145149,,1145148.7999999523,,1144902.188,5,600,,
break_continue,html.Screen,10_26_2,2023-11-27T17:57:56.822Z,,,,,,,,,,,NaN,,,,,,,,high,high,,,,,,,false,,,,,false,1145149.5,1145149.2999999523,,1145149.1999998093,,1144902.188,5,600,,
sequence,flow.Sequence,10_26,2023-11-27T17:57:56.822Z,,,,,,,,,,,10880.486999952234,completion,,,,,,,high,high,,,,,,,false,,,,,false,1145149.5999999046,1145149.2999999523,1134252.226,1134518.0999999046,1134268.813,1144902.188,5,600,,
trial,html.Screen,10_27_0,2023-11-27T17:58:04.349Z,,,,1,-0.001445457736793,-0.0165307427449982,,0.04,false,hh,7774.811999999918,response,0.875928844868032,0.9585418748753156,-1.001936616540026,1.0147952958458766,0.942110892953913,-1.1462785220383456,high,high,,ISIC_0027350.JPG,8,ISIC_7492682.JPG,28,33,false,0.1,lh,keypress(e),0,false,1152677.1999998093,1152677,1144885.478,1145149.6999998093,1144902.188,1152435.558,5,600,28,
break,html.Screen,10_27_1,2023-11-27T17:58:04.350Z,,,,,,,,,,,NaN,,,,,,,,high,high,,,,,,,false,,,,,false,1152678,1152677.899999857,,1152677.5,,1152435.558,5,600,,
break_continue,html.Screen,10_27_2,2023-11-27T17:58:04.351Z,,,,,,,,,,,NaN,,,,,,,,high,high,,,,,,,false,,,,,false,1152678.7999999523,1152678.399999857,,1152678.1999998093,,1152435.558,5,600,,
sequence,flow.Sequence,10_27,2023-11-27T17:58:04.351Z,,,,,,,,,,,7776.211999856867,completion,,,,,,,high,high,,,,,,,false,,,,,false,1152679,1152678.399999857,1144885.478,1145149.6999998093,1144902.188,1152435.558,5,600,,
trial,html.Screen,10_28_0,2023-11-27T17:58:20.122Z,,,,1,-0.0388334549081915,0.0303399972963369,,0.04,,,15783.334999999963,timeout,-0.9682677628288195,0.9585418748753156,-1.001936616540026,-1.1060047717990744,0.942110892953913,-1.1462785220383456,low,low,,ISIC_4961708.JPG,9,ISIC_0011505.JPG,28,39,false,0.1,,,0,false,1168450.2999999523,1168450,1152418.545,1152679.0999999046,1152435.558,1168218.893,5,600,29,
break,html.Screen,10_28_1,2023-11-27T17:58:20.123Z,,,,,,,,,,,NaN,,,,,,,,low,low,,,,,,,false,,,,,false,1168451.1999998093,1168451,,1168450.6999998093,,1168218.893,5,600,,
break_continue,html.Screen,10_28_2,2023-11-27T17:58:20.124Z,,,,,,,,,,,NaN,,,,,,,,low,low,,,,,,,false,,,,,false,1168452,1168451.5999999046,,1168451.5,,1168218.893,5,600,,
sequence,flow.Sequence,10_28,2023-11-27T17:58:20.124Z,,,,,,,,,,,16016.041999904672,completion,,,,,,,low,low,,,,,,,false,,,,,false,1168452.1999998093,1168451.5999999046,1152418.545,1152679.0999999046,1152435.558,1168218.893,5,600,,
trial,html.Screen,10_29_0,2023-11-27T17:58:28.342Z,,,,1,-0.0065172941585523,0.0118857043117315,,0.04,true,lh,8450.306999809342,response,-0.8500530224490773,0.9585418748753156,-1.001936616540026,1.0893360711742854,0.942110892953913,-1.1462785220383456,low,high,,ISIC_6119202.JPG,8,ISIC_2998367.JPG,28,27,false,0.22000000000000008,lh,keypress(e),0,false,1176669.5,1176669.1999998093,1168185.73,1168452.399999857,1168218.893,1176418.914,5,600,30,
break,html.Screen,10_29_1,2023-11-27T17:58:28.342Z,,,,,,,,,,,NaN,,,,,,,,low,high,,,,,,,false,,,,,false,1176670.2999999523,1176670.0999999046,,1176669.7999999523,,1176418.914,5,600,,
break_continue,html.Screen,10_29_2,2023-11-27T17:58:28.343Z,,,,,,,,,,,NaN,,,,,,,,low,high,,,,,,,false,,,,,false,1176671.0999999046,1176670.6999998093,,1176670.5,,1176418.914,5,600,,
sequence,flow.Sequence,10_29,2023-11-27T17:58:28.343Z,,,,,,,,,,,8451.806999809342,completion,,,,,,,low,high,,,,,,,false,,,,,false,1176671.1999998093,1176670.6999998093,1168185.73,1168452.2999999523,1168218.893,1176418.914,5,600,,
trial,html.Screen,10_30_0,2023-11-27T17:58:30.653Z,,,,1,0.0009714874637896,-0.0174815595031679,,0.04,true,ll,2561.88599995221,response,-1.0292044988574756,0.9585418748753156,-1.001936616540026,-1.1493680331134628,0.942110892953913,-1.1462785220383456,low,low,,ISIC_9848743.JPG,9,ISIC_0061647.JPG,28,39,false,0.1,ll,keypress(f),0,false,1178981.0999999046,1178980.7999999523,1176401.914,1176671.399999857,1176418.914,1178735.602,5,600,31,
break,html.Screen,10_30_1,2023-11-27T17:58:30.654Z,,,,,,,,,,,NaN,,,,,,,,low,low,,,,,,,false,,,,,false,1178982,1178981.7999999523,,1178981.399999857,,1178735.602,5,600,,
break_continue,html.Screen,10_30_2,2023-11-27T17:58:30.655Z,,,,,,,,,,,NaN,,,,,,,,low,low,,,,,,,false,,,,,false,1178982.6999998093,1178982.399999857,,1178982.1999998093,,1178735.602,5,600,,
sequence,flow.Sequence,10_30,2023-11-27T17:58:30.655Z,,,,,,,,,,,2563.4859998568427,completion,,,,,,,low,low,,,,,,,false,,,,,false,1178982.899999857,1178982.399999857,1176401.914,1176671.399999857,1176418.914,1178735.602,5,600,,
trial,html.Screen,10_31_0,2023-11-27T17:58:38.244Z,,,,1,-0.0164027439304477,0.0082910758715273,,0.04,false,ll,7836.398000000045,response,-1.048482877784125,0.9585418748753156,-1.001936616540026,-1.0716857765902368,0.942110892953913,-1.1462785220383456,low,low,,ISIC_7381224.JPG,10,ISIC_0063961.JPG,28,39,false,0.1,hl,keypress(j),0,false,1186572.0999999046,1186572,1178718.874,1178983,1178735.602,1186318.904,5,600,32,
break,html.Screen,10_31_1,2023-11-27T17:58:38.245Z,,,,,,,,,,,NaN,,,,,,,,low,low,,,,,,,false,,,,,false,1186572.399999857,1186572.399999857,,1186572.1999998093,,1186318.904,5,600,,
break_continue,html.Screen,10_31_2,2023-11-27T17:58:38.245Z,,,,,,,,,,,NaN,,,,,,,,low,low,,,,,,,false,,,,,false,1186572.5999999046,1186572.5,,1186572.399999857,,1186318.904,5,600,,
sequence,flow.Sequence,10_31,2023-11-27T17:58:38.245Z,,,,,,,,,,,7836.898000000045,completion,,,,,,,low,low,,,,,,,false,,,,,false,1186572.6999998093,1186572.5,1178718.874,1178983,1178735.602,1186318.904,5,600,,
trial,html.Screen,10_32_0,2023-11-27T17:58:42.685Z,,,,1,0.0076984477620101,0.0069458408496562,,0.04,false,hl,4693.695999904536,response,0.8472024037189965,0.9585418748753156,-1.001936616540026,-0.986370061404882,0.942110892953913,-1.1462785220383456,high,low,,ISIC_0000434.JPG,9,ISIC_0054355.JPG,28,26,false,0.31000000000000016,ll,keypress(f),0,false,1191012.899999857,1191012.5999999046,1186302.448,1186572.6999998093,1186318.904,1190768.91,5,600,33,
break,html.Screen,10_32_1,2023-11-27T17:58:42.686Z,,,,,,,,,,,NaN,,,,,,,,high,low,,,,,,,false,,,,,false,1191013.5,1191013.399999857,,1191013.0999999046,,1190768.91,5,600,,
break_continue,html.Screen,10_32_2,2023-11-27T17:58:42.686Z,,,,,,,,,,,NaN,,,,,,,,high,low,,,,,,,false,,,,,false,1191014,1191013.899999857,,1191013.6999998093,,1190768.91,5,600,,
sequence,flow.Sequence,10_32,2023-11-27T17:58:42.686Z,,,,,,,,,,,4694.995999856852,completion,,,,,,,high,low,,,,,,,false,,,,,false,1191014.2999999523,1191013.899999857,1186302.448,1186572.6999998093,1186318.904,1190768.91,5,600,,
trial,html.Screen,10_33_0,2023-11-27T17:58:51.941Z,,,,1,-0.0199950873045219,-0.0172506388509166,,0.04,true,hl,9499.3899999524,response,0.7518277461369444,0.9585418748753156,-1.001936616540026,-1.3860759020802074,0.942110892953913,-1.1462785220383456,high,low,,ISIC_0029906.JPG,9,ISIC_7967397.JPG,28,26,false,0.31000000000000016,hl,keypress(j),0,false,1200268.399999857,1200268.2999999523,1190752.267,1191014.399999857,1190768.91,1200018.904,5,600,34,
break,html.Screen,10_33_1,2023-11-27T17:58:51.941Z,,,,,,,,,,,NaN,,,,,,,,high,low,,,,,,,false,,,,,false,1200268.6999998093,1200268.6999998093,,1200268.5,,1200018.904,5,600,,
break_continue,html.Screen,10_33_2,2023-11-27T17:58:51.941Z,,,,,,,,,,,NaN,,,,,,,,high,low,,,,,,,false,,,,,false,1200269,1200268.7999999523,,1200268.7999999523,,1200018.904,5,600,,
sequence,flow.Sequence,10_33,2023-11-27T17:58:51.941Z,,,,,,,,,,,9499.8899999524,completion,,,,,,,high,low,,,,,,,false,,,,,false,1200269.0999999046,1200268.7999999523,1190752.267,1191014.2999999523,1190768.91,1200018.904,5,600,,
trial,html.Screen,10_34_0,2023-11-27T17:58:57.973Z,,,,1,-0.0199950873045219,-0.0172506388509166,,0.04,false,hh,6281.295999809168,response,1.0211808747755002,0.9585418748753156,-1.001936616540026,0.9580728810269548,0.942110892953913,-1.1462785220383456,high,high,,ISIC_0029906.JPG,9,ISIC_1211506.JPG,28,33,false,0.1,hl,keypress(j),0,false,1206300.2999999523,1206300.1999998093,1200002.115,1200269.0999999046,1200018.904,1206052.235,5,600,35,
break,html.Screen,10_34_1,2023-11-27T17:58:57.973Z,,,,,,,,,,,NaN,,,,,,,,high,high,,,,,,,false,,,,,false,1206300.6999998093,1206300.6999998093,,1206300.5,,1206052.235,5,600,,
break_continue,html.Screen,10_34_2,2023-11-27T17:58:57.973Z,,,,,,,,,,,NaN,,,,,,,,high,high,,,,,,,false,,,,,false,1206301.0999999046,1206301,,1206300.899999857,,1206052.235,5,600,,
sequence,flow.Sequence,10_34,2023-11-27T17:58:57.974Z,,,,,,,,,,,6282.095999999903,completion,,,,,,,high,high,,,,,,,false,,,,,false,1206301.1999998093,1206301,1200002.115,1200269.0999999046,1200018.904,1206052.235,5,600,,
trial,html.Screen,10_35_0,2023-11-27T17:59:09.973Z,,,,1,0,-0.0102871556606504,,0.04,false,hh,12248.164999856846,response,0.8596006200412799,0.9585418748753156,-1.001936616540026,0.9571430175944712,0.942110892953913,-1.1462785220383456,high,high,,ISIC_1805163.JPG,10,ISIC_0663824.JPG,28,33,false,0.1,lh,keypress(e),0,false,1218300.5,1218300.399999857,1206035.401,1206301.2999999523,1206052.235,1218052.266,5,600,36,
break,html.Screen,10_35_1,2023-11-27T17:59:09.973Z,,,,,,,,,,,NaN,,,,,,,,high,high,,,,,,,false,,,,,false,1218300.899999857,1218300.7999999523,,1218300.5999999046,,1218052.266,5,600,,
break_continue,html.Screen,10_35_2,2023-11-27T17:59:09.974Z,,,,,,,,,,,NaN,,,,,,,,high,high,,,,,,,false,,,,,false,1218301.1999998093,1218301.0999999046,,1218300.899999857,,1218052.266,5,600,,
sequence,flow.Sequence,10_35,2023-11-27T17:59:09.974Z,,,,,,,,,,,12248.86499990453,completion,,,,,,,high,high,,,,,,,false,,,,,false,1218301.2999999523,1218301.0999999046,1206035.401,1206301.2999999523,1206052.235,1218052.266,5,600,,
trial,html.Screen,10_36_0,2023-11-27T17:59:14.310Z,,,,1,-0.0241900387072296,0.0339955304424736,,0.04,true,ll,4585.133999856887,response,-0.9430679164922772,0.9585418748753156,-1.001936616540026,-1.124157865127501,0.942110892953913,-1.1462785220383456,low,low,,ISIC_0010789.JPG,9,ISIC_0062111.JPG,28,39,false,0.1,ll,keypress(f),0,false,1222637.7999999523,1222637.399999857,1218035.624,1218301.399999857,1218052.266,1222402.295,5,600,37,
break,html.Screen,10_36_1,2023-11-27T17:59:14.311Z,,,,,,,,,,,NaN,,,,,,,,low,low,,,,,,,false,,,,,false,1222638.899999857,1222638.5999999046,,1222638.0999999046,,1222402.295,5,600,,
break_continue,html.Screen,10_36_2,2023-11-27T17:59:14.312Z,,,,,,,,,,,NaN,,,,,,,,low,low,,,,,,,false,,,,,false,1222639.6999998093,1222639.399999857,,1222639.0999999046,,1222402.295,5,600,,
sequence,flow.Sequence,10_36,2023-11-27T17:59:14.312Z,,,,,,,,,,,4587.133999856887,completion,,,,,,,low,low,,,,,,,false,,,,,false,1222640,1222639.399999857,1218035.624,1218301.399999857,1218052.266,1222402.295,5,600,,
trial,html.Screen,10_37_0,2023-11-27T17:59:25.325Z,,,,1,0.0257631352671967,0.0202837002774028,,0.04,false,lh,11250.00499995239,response,-1.2020012168275056,0.9585418748753156,-1.001936616540026,0.923753102263735,0.942110892953913,-1.1462785220383456,low,high,,ISIC_0032797.JPG,8,ISIC_0000022.JPG,28,27,false,0.22000000000000008,hl,keypress(j),0,false,1233652.2999999523,1233652.2999999523,1222369.054,1222640.1999998093,1222402.295,1233402.287,5,600,38,
break,html.Screen,10_37_1,2023-11-27T17:59:25.325Z,,,,,,,,,,,NaN,,,,,,,,low,high,,,,,,,false,,,,,false,1233652.5999999046,1233652.5999999046,,1233652.5,,1233402.287,5,600,,
