sender,sender_type,sender_id,timestamp,meta,,age,blockNo,c1,c2,condition,control_tolerance,correct,correctResponse,duration,ended_on,f1,f1_high,f1_low,f2,f2_high,f2_low,feature_level1,feature_level2,gender,img_left,img_reveal,img_right,n_control_images,n_target_images,practice,range_tolerance,response,response_action,selection_duration,staircase,time_commit,time_end,time_render,time_run,time_show,time_switch,total_blocks,total_trials,trialNo,url
informed_consent,html.Screen,0,2024-03-04T20:28:27.737Z,"{""labjs_version"":""20.2.4"",""labjs_build"":{""flavor"":""development"",""commit"":""f5b4a49f956347addd546a832a3327688c2c0fef""},""location"":""https://labjs.felixhenninger.com/api/labjs_preview/index.html"",""userAgent"":""Mozilla/5.0 (Windows NT 10.0; Win64; x64) AppleWebKit/537.36 (KHTML, like Gecko) Chrome/122.0.0.0 Safari/537.36"",""platform"":""Win32"",""language"":""en-US"",""locale"":""en-US"",""timeZone"":""America/Chicago"",""timezoneOffset"":360,""screen_width"":2560,""screen_height"":1440,""scroll_width"":1265,""scroll_height"":1278,""window_innerWidth"":1265,""window_innerHeight"":1326,""devicePixelRatio"":1}",,,,,,,,,,648846.1000003815,response,,,,,,,,,,,,,,,,,consent,click button,,,649250.3000001907,649244.6000003815,381.9,479.80000019073486,398.5,649150.1,,,,{}
Demography form,html.Form,1,2024-03-04T20:28:42.025Z,,,18,,,,,,,,14388.200000190758,form submission,,,,,,,,,female,,,,,,,,,,,,663538.4000000954,663538.3000001907,649150.062,649250.5,649150.1,663445.3,,,,
Welcome,html.Screen,2,2024-03-04T20:29:27.084Z,,,,,,,"[""asym"",""col""]",,,,45151.400000286056,response,,,,,,,,,,,,,,,,,continue,click button,,,708597.3000001907,708596.7000002861,663445.094,663538.5,663445.3,708515.8,,,,
demo_instructions,html.Screen,3,2024-03-04T20:29:29.244Z,,,,,,,,,,,2240.9000002860557,response,,,,,,,,,,,,,,,,,continue,click button,,,710757.4000000954,710756.7000002861,708499.2,708597.4000000954,708515.8,710667.6,,,,
trial,html.Screen,4_0_0,2024-03-04T20:29:38.547Z,,,,0,-1.2872758518949912,-1.313723254903214,,,true,hh,9392.30000009539,response,1.3045229691102764,1.2,-1.2,1.1781544075681951,1.2,-1.2,high,high,,ISIC_0064376.JPG,,ISIC_6148533.JPG,,25,true,0.15000000000000002,hh,keypress(i),100,false,720060,720059.9000000954,710667.46,710757.4000000954,710667.6,719991.9,1,16,1,
sequence,flow.Sequence,4_0,2024-03-04T20:29:38.547Z,,,,,,,,,,,9392.30000009539,completion,,,,,,,high,high,,,,,,,true,,,,,false,720060.1000003815,720059.9000000954,710667.46,710757.4000000954,710667.6,719991.9,1,16,,
trial,html.Screen,4_1_0,2024-03-04T20:29:40.906Z,,,,0,-1.1715181192107684,-1.2251845559044463,,,true,hh,2426.5999999999767,response,1.1604734171556077,1.2,-1.2,1.0789312625280616,1.2,-1.2,high,high,,ISIC_0011957.JPG,,ISIC_3950753.JPG,,25,true,0.15000000000000002,hh,keypress(i),100,false,722418.8000001907,722418.5,719975.3,720060.1000003815,719991.9,722343.8,1,16,2,
sequence,flow.Sequence,4_1,2024-03-04T20:29:40.906Z,,,,,,,,,,,2426.5999999999767,completion,,,,,,,high,high,,,,,,,true,,,,,false,722419.1000003815,722418.5,719975.3,720060.1000003815,719991.9,722343.8,1,16,,
trial,html.Screen,4_2_0,2024-03-04T20:29:42.770Z,,,,0,-1.250220052739973,-1.2967258992731714,,,true,hh,1939.3000003814232,response,1.0878102877901663,1.2,-1.2,1.3154097543539391,1.2,-1.2,high,high,,ISIC_0031368.JPG,,ISIC_1413242.JPG,,25,true,0.15000000000000002,hh,keypress(i),100,false,724283.1000003815,724283.1000003815,722327.298,722419.3000001907,722343.8,724212.1,1,16,3,
sequence,flow.Sequence,4_2,2024-03-04T20:29:42.770Z,,,,,,,,,,,1939.3000003814232,completion,,,,,,,high,high,,,,,,,true,,,,,false,724283.4000000954,724283.1000003815,722327.298,722419.3000001907,722343.8,724212.1,1,16,,
trial,html.Screen,4_3_0,2024-03-04T20:29:49.416Z,,,,0,-1.1783311757907324,-1.266840220031473,,,true,hh,6716.800000095391,response,1.1727618800748076,1.2,-1.2,1.0636787813411093,1.2,-1.2,high,high,,ISIC_8241457.JPG,,ISIC_9690371.JPG,,25,true,0.15000000000000002,hh,keypress(i),100,false,730929.2000002861,730928.9000000954,724195.4,724283.4000000954,724212.1,730851,1,16,4,
sequence,flow.Sequence,4_3,2024-03-04T20:29:49.416Z,,,,,,,,,,,6716.800000095391,completion,,,,,,,high,high,,,,,,,true,,,,,false,730929.4000000954,730928.9000000954,724195.4,724283.4000000954,724212.1,730851,1,16,,
trial,html.Screen,4_4_0,2024-03-04T20:29:51.713Z,,,,0,1.1604734171556077,1.0789312625280616,,,true,ll,2374.7000002861023,response,-1.1474466950560966,1.2,-1.2,-1.173734476257662,1.2,-1.2,low,low,,ISIC_3950753.JPG,,ISIC_5216586.JPG,,27,true,0.12,ll,keypress(f),100,false,733226.2000002861,733225.7000002861,730834.398,730929.4000000954,730851,733153.2,1,16,5,
sequence,flow.Sequence,4_4,2024-03-04T20:29:51.714Z,,,,,,,,,,,2374.7000002861023,completion,,,,,,,low,low,,,,,,,true,,,,,false,733226.7000002861,733225.7000002861,730834.398,730929.4000000954,730851,733153.2,1,16,,
trial,html.Screen,4_5_0,2024-03-04T20:29:52.987Z,,,,0,1.294521945180264,1.3078626540563885,,,true,ll,1346.6000001907814,response,-1.152619213055059,1.2,-1.2,-1.2957497771092716,1.2,-1.2,low,low,,ISIC_3601224.JPG,,ISIC_0061915.JPG,,41,true,0.15000000000000002,ll,keypress(f),100,false,734499.9000000954,734499.8000001907,733136.598,733226.9000000954,733153.2,734420.5,1,16,6,
sequence,flow.Sequence,4_5,2024-03-04T20:29:52.987Z,,,,,,,,,,,1346.6000001907814,completion,,,,,,,low,low,,,,,,,true,,,,,false,734500.1000003815,734499.8000001907,733136.598,733226.9000000954,733153.2,734420.5,1,16,,
trial,html.Screen,4_6_0,2024-03-04T20:29:54.545Z,,,,0,1.1638334638021437,1.0846635401396965,,,true,ll,1637.3000001907349,response,-1.0621199008816968,1.2,-1.2,-1.3373040630511746,1.2,-1.2,low,low,,ISIC_4718313.JPG,,ISIC_0046361.JPG,,41,true,0.15000000000000002,ll,keypress(f),100,false,736058,736057.8000001907,734403.9,734500.1000003815,734420.5,735988.5,1,16,7,
sequence,flow.Sequence,4_6,2024-03-04T20:29:54.545Z,,,,,,,,,,,1637.3000001907349,completion,,,,,,,low,low,,,,,,,true,,,,,false,736058.3000001907,736057.8000001907,734403.9,734500.1000003815,734420.5,735988.5,1,16,,
trial,html.Screen,4_7_0,2024-03-04T20:29:56.007Z,,,,0,1.1510001454240106,1.132540312667795,,,true,ll,1531.4000000953674,response,-1.0657476601009717,1.2,-1.2,-1.166572336354465,1.2,-1.2,low,low,,ISIC_0009959.JPG,,ISIC_0010778.JPG,,41,true,0.15000000000000002,ll,keypress(f),100,false,737520.3000001907,737519.9000000954,735971.966,736058.3000001907,735988.5,737456.698,1,16,8,
sequence,flow.Sequence,4_7,2024-03-04T20:29:56.008Z,,,,,,,,,,,1531.4000000953674,completion,,,,,,,low,low,,,,,,,true,,,,,false,737520.8000001907,737519.9000000954,735971.966,736058.3000001907,735988.5,737456.698,1,16,,
trial,html.Screen,4_8_0,2024-03-04T20:29:57.382Z,,,,0,1.411763789273233,-1.0057734478347988,,,true,lh,1437.9020003814949,response,-0.9212323139676136,1.2,-1.2,0.9882196642247332,1.2,-1.2,low,high,,ISIC_0027235.JPG,,ISIC_0014255.JPG,,26,true,0.3300000000000002,lh,keypress(e),100,false,738895.1000003815,738894.6000003815,737456.698,737521.1000003815,737456.698,738824.332,1,16,9,
sequence,flow.Sequence,4_8,2024-03-04T20:29:57.383Z,,,,,,,,,,,1437.9020003814949,completion,,,,,,,low,high,,,,,,,true,,,,,false,738895.8000001907,738894.6000003815,737456.698,737520.9000000954,737456.698,738824.332,1,16,,
trial,html.Screen,4_9_0,2024-03-04T20:29:58.675Z,,,,0,1.1235224875125256,-0.8641223012137988,,,true,lh,1362.7680003814166,response,-0.9212323139676136,1.2,-1.2,0.9882196642247332,1.2,-1.2,low,high,,ISIC_0033901.JPG,,ISIC_0014255.JPG,,33,true,0.3600000000000002,lh,keypress(e),100,false,740187.5,740187.1000003815,738824.332,738896,738824.332,740108.86,1,16,10,
sequence,flow.Sequence,4_9,2024-03-04T20:29:58.675Z,,,,,,,,,,,1362.7680003814166,completion,,,,,,,low,high,,,,,,,true,,,,,false,740188.2000002861,740187.1000003815,738824.332,738896,738824.332,740108.86,1,16,,
trial,html.Screen,4_10_0,2024-03-04T20:30:00.401Z,,,,0,1.225025174430573,-0.8422679054456499,,,true,lh,1804.4400001907488,response,-1.2704198237183777,1.2,-1.2,1.138121072015301,1.2,-1.2,low,high,,ISIC_7503950.JPG,,ISIC_0501843.JPG,,33,true,0.3600000000000002,lh,keypress(e),100,false,741913.5,741913.3000001907,740108.86,740188.4000000954,740108.86,741843.5,1,16,11,
sequence,flow.Sequence,4_10,2024-03-04T20:30:00.401Z,,,,,,,,,,,1804.4400001907488,completion,,,,,,,low,high,,,,,,,true,,,,,false,741914,741913.3000001907,740108.86,740188.4000000954,740108.86,741843.5,1,16,,
trial,html.Screen,4_11_0,2024-03-04T20:30:01.898Z,,,,0,0.8534691366511764,-1.276663727068437,,,true,lh,1567.4000000953674,response,-0.8620516892494489,1.2,-1.2,1.1108509340502866,1.2,-1.2,low,high,,ISIC_0056788.JPG,,ISIC_5557806.JPG,,33,true,0.3600000000000002,lh,keypress(e),100,false,743411.4000000954,743410.9000000954,741827.064,741914.1000003815,741843.5,743344.6,1,16,12,
sequence,flow.Sequence,4_11,2024-03-04T20:30:01.899Z,,,,,,,,,,,1567.4000000953674,completion,,,,,,,low,high,,,,,,,true,,,,,false,743412.2000002861,743410.9000000954,741827.064,741914.1000003815,741843.5,743344.6,1,16,,
trial,html.Screen,4_12_0,2024-03-04T20:30:03.222Z,,,,0,-1.052305774554686,1.3940181224717798,,,true,hl,1389.500000381493,response,0.9013888878932071,1.2,-1.2,-0.9328095253308732,1.2,-1.2,high,low,,ISIC_4175400.JPG,,ISIC_0068259.JPG,,29,true,0.3600000000000002,hl,keypress(j),100,false,744734.5,744734.1000003815,743328.266,743412.6000003815,743344.6,744662.732,1,16,13,
sequence,flow.Sequence,4_12,2024-03-04T20:30:03.222Z,,,,,,,,,,,1389.500000381493,completion,,,,,,,high,low,,,,,,,true,,,,,false,744735.1000003815,744734.1000003815,743328.266,743412.5,743344.6,744662.732,1,16,,
trial,html.Screen,4_13_0,2024-03-04T20:30:04.640Z,,,,0,-1.052305774554686,1.3940181224717798,,,true,hl,1489.8680003815098,response,1.00615481805876,1.2,-1.2,-0.8428903771195875,1.2,-1.2,high,low,,ISIC_4175400.JPG,,ISIC_0069970.JPG,,29,true,0.3600000000000002,hl,keypress(j),100,false,746152.8000001907,746152.6000003815,744662.732,744735.3000001907,744662.732,746080.3,1,16,14,
sequence,flow.Sequence,4_13,2024-03-04T20:30:04.640Z,,,,,,,,,,,1489.8680003815098,completion,,,,,,,high,low,,,,,,,true,,,,,false,746152.9000000954,746152.6000003815,744662.732,744735.2000002861,744662.732,746080.3,1,16,,
trial,html.Screen,4_14_0,2024-03-04T20:30:06.799Z,,,,0,-1.0961318727760048,1.2134960228256146,,,true,hl,2231.600000095321,response,1.064425982109969,1.2,-1.2,-0.958564243697126,1.2,-1.2,high,low,,ISIC_9768421.JPG,,ISIC_3203344.JPG,,29,true,0.3600000000000002,hl,keypress(j),100,false,748312.3000001907,748311.9000000954,746063.866,746153.1000003815,746080.3,748232.294,1,16,15,
sequence,flow.Sequence,4_14,2024-03-04T20:30:06.800Z,,,,,,,,,,,2231.600000095321,completion,,,,,,,high,low,,,,,,,true,,,,,false,748312.8000001907,748311.9000000954,746063.866,746153.1000003815,746080.3,748232.294,1,16,,
trial,html.Screen,4_15_0,2024-03-04T20:30:08.476Z,,,,0,-1.0822170028935367,1.1654796154432183,,,true,hl,1756.2060000000056,response,0.9013888878932071,1.2,-1.2,-0.9328095253308732,1.2,-1.2,high,low,,ISIC_7288818.JPG,,ISIC_0068259.JPG,,29,true,0.3600000000000002,hl,keypress(j),100,false,749988.9000000954,749988.5,748232.294,748313,748232.294,749916.8,1,16,16,
sequence,flow.Sequence,4_15,2024-03-04T20:30:08.477Z,,,,,,,,,,,1756.2060000000056,completion,,,,,,,high,low,,,,,,,true,,,,,false,749989.6000003815,749988.5,748232.294,748313,748232.294,749916.8,1,16,,
demonstration_loop,flow.Loop,4,2024-03-04T20:30:08.477Z,,,,,,,,,,,39320.90000000002,completion,,,,,,,,,,,,,,,true,,,,,false,749990,749988.5,710667.46,710757.4000000954,710667.6,749916.8,1,16,,
practice_instructions,html.Screen,5,2024-03-04T20:30:23.707Z,,,,,,,,,,,15295.900000286056,response,,,,,,,,,,,,,,,,,continue,click button,,,765220.2000002861,765212.7000002861,749900.066,749990.2000002861,749916.8,765146.126,,,,
trial,html.Screen,6_0_0,2024-03-04T20:30:39.712Z,,,,1,0.8591294258188253,-0.870797302150167,,,,,16012.873999999953,timeout,-1.155796217969438,1.2,-1.2,1.1646564121743912,1.2,-1.2,low,high,,ISIC_0055841.JPG,,ISIC_2685523.JPG,,26,true,0.3300000000000002,,,0,false,781225.7000002861,781225.6000003815,765146.126,765220.4000000954,765146.126,781159,1,40,1,
sequence,flow.Sequence,6_0,2024-03-04T20:30:39.712Z,,,,,,,,,,,16079.474000381422,completion,,,,,,,low,high,,,,,,,true,,,,,false,781225.8000001907,781225.6000003815,765146.126,765220.3000001907,765146.126,781159,1,40,,
trial,html.Screen,6_1_0,2024-03-04T20:30:42.120Z,,,,1,-1.1592423187534993,1.067128884093211,,,false,hl,2474.2000002861023,response,1.00615481805876,1.2,-1.2,-0.8428903771195875,1.2,-1.2,high,low,,ISIC_6854940.JPG,,ISIC_0069970.JPG,,29,true,0.3600000000000002,lh,keypress(e),0,false,783633.8000001907,783633.2000002861,781142.3,781225.8000001907,781159,783561.332,1,40,2,
sequence,flow.Sequence,6_1,2024-03-04T20:30:42.121Z,,,,,,,,,,,2474.2000002861023,completion,,,,,,,high,low,,,,,,,true,,,,,false,783634.4000000954,783633.2000002861,781142.3,781225.8000001907,781159,783561.332,1,40,,
trial,html.Screen,6_2_0,2024-03-04T20:30:44.376Z,,,,1,1.1224745971429997,-0.8423270217438888,,,false,lh,2327.667999999947,response,-1.0748728054622358,1.2,-1.2,1.2840853987892311,1.2,-1.2,low,high,,ISIC_0057032.JPG,,ISIC_0059219.JPG,,26,true,0.3300000000000002,ll,keypress(f),0,false,785889.5,785889,783561.332,783634.5,783561.332,785796.4,1,40,3,
sequence,flow.Sequence,6_2,2024-03-04T20:30:44.377Z,,,,,,,,,,,2327.667999999947,completion,,,,,,,low,high,,,,,,,true,,,,,false,785890,785889,783561.332,783634.5,783561.332,785796.4,1,40,,
trial,html.Screen,6_3_0,2024-03-04T20:30:46.167Z,,,,1,-1.2872758518949912,-1.313723254903214,,,true,hh,1883.0999999999767,response,0.9416900312335138,1.2,-1.2,0.9485840589720004,1.2,-1.2,high,high,,ISIC_0064376.JPG,,ISIC_2784686.JPG,,157,true,0.3600000000000002,hh,keypress(i),0,false,787680,787679.5,785795.084,785890.3000001907,785796.4,787597.8,1,40,4,
sequence,flow.Sequence,6_3,2024-03-04T20:30:46.167Z,,,,,,,,,,,1883.0999999999767,completion,,,,,,,high,high,,,,,,,true,,,,,false,787680.6000003815,787679.5,785795.084,785890.3000001907,785796.4,787597.8,1,40,,
trial,html.Screen,6_4_0,2024-03-04T20:30:47.752Z,,,,1,1.1217390688497193,1.2276600934505035,,,false,ll,1667.0000001906883,response,-1.2872758518949912,1.2,-1.2,-1.313723254903214,1.2,-1.2,low,low,,ISIC_0026344.JPG,,ISIC_0064376.JPG,,27,true,0.12,lh,keypress(e),0,false,789265.3000001907,789264.8000001907,787597.468,787680.8000001907,787597.8,789182.5,1,40,5,
sequence,flow.Sequence,6_4,2024-03-04T20:30:47.753Z,,,,,,,,,,,1667.0000001906883,completion,,,,,,,low,low,,,,,,,true,,,,,false,789265.9000000954,789264.8000001907,787597.468,787680.7000002861,787597.8,789182.5,1,40,,
trial,html.Screen,6_5_0,2024-03-04T20:30:49.351Z,,,,1,-1.1126049058422398,-1.2305421124063929,,,false,hh,1681,response,1.0581281450494728,1.2,-1.2,1.133169116569424,1.2,-1.2,high,high,,ISIC_0071536.JPG,,ISIC_5490352.JPG,,25,true,0.15000000000000002,ll,keypress(f),0,false,790864,790863.5,789165.9,789266.2000002861,789182.5,790800.4,1,40,6,
sequence,flow.Sequence,6_5,2024-03-04T20:30:49.351Z,,,,,,,,,,,1681,completion,,,,,,,high,high,,,,,,,true,,,,,false,790864.5,790863.5,789165.9,789266.1000003815,789182.5,790800.4,1,40,,
trial,html.Screen,6_6_0,2024-03-04T20:30:50.855Z,,,,1,1.4748095371445096,-0.9579010801034902,,,false,lh,1567.0000000953441,response,-0.9448560599810628,1.2,-1.2,0.9099421612683488,1.2,-1.2,low,high,,ISIC_0033216.JPG,,ISIC_9684318.JPG,,26,true,0.3300000000000002,hh,keypress(i),0,false,792367.9000000954,792367.4000000954,790800.242,790864.8000001907,790800.4,792285.1,1,40,7,
sequence,flow.Sequence,6_6,2024-03-04T20:30:50.855Z,,,,,,,,,,,1567.0000000953441,completion,,,,,,,low,high,,,,,,,true,,,,,false,792368.5,792367.4000000954,790800.242,790864.7000002861,790800.4,792285.1,1,40,,
trial,html.Screen,6_7_0,2024-03-04T20:30:52.247Z,,,,1,-1.1783311757907324,-1.266840220031473,,,false,hh,1474.6000002861256,response,1.299827929103008,1.2,-1.2,0.912855253526266,1.2,-1.2,high,high,,ISIC_8241457.JPG,,ISIC_9760652.JPG,,157,true,0.3600000000000002,hl,keypress(j),0,false,793760.1000003815,793759.7000002861,792268.4,792368.8000001907,792285.1,793669.6,1,40,8,
sequence,flow.Sequence,6_7,2024-03-04T20:30:52.247Z,,,,,,,,,,,1474.6000002861256,completion,,,,,,,high,high,,,,,,,true,,,,,false,793760.6000003815,793759.7000002861,792268.4,792368.8000001907,792285.1,793669.6,1,40,,
trial,html.Screen,6_8_0,2024-03-04T20:30:53.735Z,,,,1,-1.1671212908494544,-1.1286681796701683,,,true,hh,1577.9000000000233,response,1.1604734171556077,1.2,-1.2,1.0789312625280616,1.2,-1.2,high,high,,ISIC_0065022.JPG,,ISIC_3950753.JPG,,25,true,0.15000000000000002,hh,keypress(i),0,false,795247.9000000954,795247.5,793669.518,793761,793669.6,795187.4,1,40,9,
sequence,flow.Sequence,6_8,2024-03-04T20:30:53.735Z,,,,,,,,,,,1577.9000000000233,completion,,,,,,,high,high,,,,,,,true,,,,,false,795248.4000000954,795247.5,793669.518,793761,793669.6,795187.4,1,40,,
trial,html.Screen,6_9_0,2024-03-04T20:30:55.316Z,,,,1,0.9039158082670506,-1.0517562064343149,,,false,lh,1641.9000001907116,response,-1.0700930503975157,1.2,-1.2,0.923753102263735,1.2,-1.2,low,high,,ISIC_0015411.JPG,,ISIC_0000022.JPG,,26,true,0.3300000000000002,hl,keypress(j),0,false,796829.4000000954,796829.3000001907,795186.946,795248.8000001907,795187.4,796738.7,1,40,10,
sequence,flow.Sequence,6_9,2024-03-04T20:30:55.316Z,,,,,,,,,,,1641.9000001907116,completion,,,,,,,low,high,,,,,,,true,,,,,false,796829.6000003815,796829.3000001907,795186.946,795248.6000003815,795187.4,796738.7,1,40,,
trial,html.Screen,6_10_0,2024-03-04T20:30:56.935Z,,,,1,-0.9873794329144926,0.9500689037516484,,,false,hl,1708.700000095414,response,1.411763789273233,1.2,-1.2,-1.0057734478347988,1.2,-1.2,high,low,,ISIC_0013498.JPG,,ISIC_0027235.JPG,,29,true,0.3600000000000002,hh,keypress(i),0,false,798447.8000001907,798447.4000000954,796738.578,796829.7000002861,796738.7,798356.8,1,40,11,
sequence,flow.Sequence,6_10,2024-03-04T20:30:56.935Z,,,,,,,,,,,1708.700000095414,completion,,,,,,,high,low,,,,,,,true,,,,,false,798448.3000001907,798447.4000000954,796738.578,796829.7000002861,796738.7,798356.8,1,40,,
trial,html.Screen,6_11_0,2024-03-04T20:31:03.223Z,,,,1,1.053007132776416,1.341217082060068,,,true,ll,6378.900000286056,response,-1.185875658992962,1.2,-1.2,-0.9985976786538492,1.2,-1.2,low,low,,ISIC_0024208.JPG,,ISIC_0011703.JPG,,211,true,0.3300000000000002,ll,keypress(f),0,false,804736.1000003815,804735.7000002861,798356.376,798448.5,798356.8,804673.954,1,40,12,
sequence,flow.Sequence,6_11,2024-03-04T20:31:03.223Z,,,,,,,,,,,6378.900000286056,completion,,,,,,,low,low,,,,,,,true,,,,,false,804736.8000001907,804735.7000002861,798356.376,798448.5,798356.8,804673.954,1,40,,
trial,html.Screen,6_12_0,2024-03-04T20:31:05.940Z,,,,1,0.9087169856594104,-0.8835647084207277,,,true,lh,2779.1460003814427,response,-0.8709576717420565,1.2,-1.2,1.2795156779072283,1.2,-1.2,low,high,,ISIC_0000349.JPG,,ISIC_1925632.JPG,,26,true,0.3300000000000002,lh,keypress(e),0,false,807453.2000002861,807453.1000003815,804673.954,804737.3000001907,804673.954,807364.1,1,40,13,
sequence,flow.Sequence,6_12,2024-03-04T20:31:05.940Z,,,,,,,,,,,2779.1460003814427,completion,,,,,,,low,high,,,,,,,true,,,,,false,807453.4000000954,807453.1000003815,804673.954,804737.2000002861,804673.954,807364.1,1,40,,
trial,html.Screen,6_13_0,2024-03-04T20:31:07.110Z,,,,1,1.053007132776416,1.341217082060068,,,true,ll,1258.9000000000233,response,-1.3034518282811869,1.2,-1.2,-1.0897657776277234,1.2,-1.2,low,low,,ISIC_0024208.JPG,,ISIC_0071988.JPG,,249,true,0.3600000000000002,ll,keypress(f),0,false,808623.4000000954,808623,807362.766,807453.5,807364.1,808565.1,1,40,14,
sequence,flow.Sequence,6_13,2024-03-04T20:31:07.111Z,,,,,,,,,,,1258.9000000000233,completion,,,,,,,low,low,,,,,,,true,,,,,false,808624,808623,807362.766,807453.4000000954,807364.1,808565.1,1,40,,
trial,html.Screen,6_14_0,2024-03-04T20:31:08.631Z,,,,1,0.9385447468573198,-1.2289860846064424,,,true,lh,1578.4000000000233,response,-1.0700930503975157,1.2,-1.2,0.923753102263735,1.2,-1.2,low,high,,ISIC_0032780.JPG,,ISIC_0000022.JPG,,26,true,0.3300000000000002,lh,keypress(e),0,false,810143.9000000954,810143.5,808565.092,808624.2000002861,808565.1,810067,1,40,15,
sequence,flow.Sequence,6_14,2024-03-04T20:31:08.631Z,,,,,,,,,,,1578.4000000000233,completion,,,,,,,low,high,,,,,,,true,,,,,false,810144.5,810143.5,808565.092,808624.2000002861,808565.1,810067,1,40,,
trial,html.Screen,6_15_0,2024-03-04T20:31:10.215Z,,,,1,-1.082730232773217,0.8833175387485132,,,true,hl,1660.5,response,1.225025174430573,1.2,-1.2,-0.8422679054456499,1.2,-1.2,high,low,,ISIC_0011933.JPG,,ISIC_7503950.JPG,,29,true,0.3600000000000002,hl,keypress(j),0,false,811728,811727.5,810066.18,810144.7000002861,810067,811651.5,1,40,16,
sequence,flow.Sequence,6_15,2024-03-04T20:31:10.215Z,,,,,,,,,,,1660.5,completion,,,,,,,high,low,,,,,,,true,,,,,false,811728.6000003815,811727.5,810066.18,810144.6000003815,810067,811651.5,1,40,,
trial,html.Screen,6_16_0,2024-03-04T20:31:11.671Z,,,,1,-1.1227373144244253,-1.1886610799377713,,,true,hh,1532.4000000953674,response,0.9908691524573628,1.2,-1.2,1.300224660339869,1.2,-1.2,high,high,,ISIC_0059506.JPG,,ISIC_2105563.JPG,,127,true,0.3300000000000002,hh,keypress(i),0,false,813184.2000002861,813183.9000000954,811633.934,811728.8000001907,811651.5,813102.2,1,40,17,
sequence,flow.Sequence,6_16,2024-03-04T20:31:11.672Z,,,,,,,,,,,1532.4000000953674,completion,,,,,,,high,high,,,,,,,true,,,,,false,813184.8000001907,813183.9000000954,811633.934,811728.8000001907,811651.5,813102.2,1,40,,
trial,html.Screen,6_17_0,2024-03-04T20:31:13.559Z,,,,1,-1.2289750544294995,-1.3003764624334877,,,true,hh,1969.5000002861489,response,1.1305948371148624,1.2,-1.2,1.2802709447034604,1.2,-1.2,high,high,,ISIC_0054167.JPG,,ISIC_5648111.JPG,,25,true,0.15000000000000002,hh,keypress(i),0,false,815072,815071.7000002861,813085.8,813185.1000003815,813102.2,814987.1,1,40,18,
sequence,flow.Sequence,6_17,2024-03-04T20:31:13.559Z,,,,,,,,,,,1969.5000002861489,completion,,,,,,,high,high,,,,,,,true,,,,,false,815072.7000002861,815071.7000002861,813085.8,813185,813102.2,814987.1,1,40,,
trial,html.Screen,6_18_0,2024-03-04T20:31:14.982Z,,,,1,-1.2872758518949912,-1.313723254903214,,,true,hh,1508.2000001907581,response,1.1363600109870835,1.2,-1.2,1.295816345369928,1.2,-1.2,high,high,,ISIC_0064376.JPG,,ISIC_0026141.JPG,,25,true,0.15000000000000002,hh,keypress(i),0,false,816495.6000003815,816495.3000001907,814970.5,815073.1000003815,814987.1,816405,1,40,19,
sequence,flow.Sequence,6_18,2024-03-04T20:31:14.983Z,,,,,,,,,,,1508.2000001907581,completion,,,,,,,high,high,,,,,,,true,,,,,false,816496.2000002861,816495.3000001907,814970.5,815073,814987.1,816405,1,40,,
trial,html.Screen,6_19_0,2024-03-04T20:31:16.486Z,,,,1,-1.1392234684115472,-1.3198277407683998,,,true,hh,1594.3000001907349,response,1.294521945180264,1.2,-1.2,1.3078626540563885,1.2,-1.2,high,high,,ISIC_0071875.JPG,,ISIC_3601224.JPG,,25,true,0.15000000000000002,hh,keypress(i),0,false,817999.7000002861,817999.3000001907,816404.85,816496.4000000954,816405,817939.4,1,40,20,
sequence,flow.Sequence,6_19,2024-03-04T20:31:16.487Z,,,,,,,,,,,1594.3000001907349,completion,,,,,,,high,high,,,,,,,true,,,,,false,818000.2000002861,817999.3000001907,816404.85,816496.4000000954,816405,817939.4,1,40,,
trial,html.Screen,6_20_0,2024-03-04T20:31:18.020Z,,,,1,-1.2043484010107477,1.2178113180138233,,,false,hl,1594.0999999999767,response,0.8479396253253069,1.2,-1.2,-1.011054319516718,1.2,-1.2,high,low,,ISIC_0011917.JPG,,ISIC_0063521.JPG,,29,true,0.3600000000000002,hh,keypress(i),0,false,819533.6000003815,819533.5,817939.212,818000.4000000954,817939.4,819457.3,1,40,21,
sequence,flow.Sequence,6_20,2024-03-04T20:31:18.020Z,,,,,,,,,,,1594.0999999999767,completion,,,,,,,high,low,,,,,,,true,,,,,false,819533.7000002861,819533.5,817939.212,818000.3000001907,817939.4,819457.3,1,40,,
trial,html.Screen,6_21_0,2024-03-04T20:31:20.535Z,,,,1,-1.2704198237183777,1.138121072015301,,,true,hl,2590.4000002860557,response,1.0143509683988825,1.2,-1.2,-1.0281980567462463,1.2,-1.2,high,low,,ISIC_0501843.JPG,,ISIC_0062031.JPG,,29,true,0.3600000000000002,hl,keypress(j),0,false,822048.1000003815,822047.7000002861,819457.046,819533.7000002861,819457.3,821976.2,1,40,22,
sequence,flow.Sequence,6_21,2024-03-04T20:31:20.535Z,,,,,,,,,,,2590.4000002860557,completion,,,,,,,high,low,,,,,,,true,,,,,false,822048.7000002861,822047.7000002861,819457.046,819533.7000002861,819457.3,821976.2,1,40,,
trial,html.Screen,6_22_0,2024-03-04T20:31:23.415Z,,,,1,1.3515962101204746,-0.8414583575292955,,,true,lh,2951.3000000000466,response,-1.0822170028935367,1.2,-1.2,1.1654796154432183,1.2,-1.2,low,high,,ISIC_0274382.JPG,,ISIC_7288818.JPG,,26,true,0.3300000000000002,lh,keypress(e),0,false,824928.1000003815,824927.5,821975.006,822049,821976.2,824845.2,1,40,23,
sequence,flow.Sequence,6_22,2024-03-04T20:31:23.416Z,,,,,,,,,,,2951.3000000000466,completion,,,,,,,low,high,,,,,,,true,,,,,false,824928.8000001907,824927.5,821975.006,822048.9000000954,821976.2,824845.2,1,40,,
trial,html.Screen,6_23_0,2024-03-04T20:31:27.221Z,,,,1,-0.8787496315223856,1.3680901203013998,,,true,hl,3888.8000000000466,response,1.4727776799485246,1.2,-1.2,-0.8779113138076752,1.2,-1.2,high,low,,ISIC_0023811.JPG,,ISIC_0033074.JPG,,29,true,0.3600000000000002,hl,keypress(j),0,false,828734.1000003815,828734,824843.692,824929.1000003815,824845.2,828648.6,1,40,24,
sequence,flow.Sequence,6_23,2024-03-04T20:31:27.221Z,,,,,,,,,,,3888.8000000000466,completion,,,,,,,high,low,,,,,,,true,,,,,false,828734.3000001907,828734,824843.692,824929,824845.2,828648.6,1,40,,
trial,html.Screen,6_24_0,2024-03-04T20:31:29.047Z,,,,1,1.0878102877901663,1.3154097543539391,,,true,ll,1910.9000000000233,response,-1.094624209823328,1.2,-1.2,-1.0544499428769605,1.2,-1.2,low,low,,ISIC_1413242.JPG,,ISIC_0055526.JPG,,211,true,0.3300000000000002,ll,keypress(f),0,false,830560,830559.5,828631.7,828734.4000000954,828648.6,830466.6,1,40,25,
sequence,flow.Sequence,6_24,2024-03-04T20:31:29.048Z,,,,,,,,,,,1910.9000000000233,completion,,,,,,,low,low,,,,,,,true,,,,,false,830560.6000003815,830559.5,828631.7,828734.3000001907,828648.6,830466.6,1,40,,
trial,html.Screen,6_25_0,2024-03-04T20:31:30.599Z,,,,1,1.0581281450494728,1.133169116569424,,,true,ll,1644.9000000000233,response,-1.078286816527963,1.2,-1.2,-1.1255116193013075,1.2,-1.2,low,low,,ISIC_5490352.JPG,,ISIC_0066213.JPG,,41,true,0.15000000000000002,ll,keypress(f),0,false,832112,832111.5,830465.934,830561,830466.6,832034.8,1,40,26,
sequence,flow.Sequence,6_25,2024-03-04T20:31:30.599Z,,,,,,,,,,,1644.9000000000233,completion,,,,,,,low,low,,,,,,,true,,,,,false,832112.6000003815,832111.5,830465.934,830560.9000000954,830466.6,832034.8,1,40,,
trial,html.Screen,6_26_0,2024-03-04T20:31:31.653Z,,,,1,1.1638334638021437,1.0846635401396965,,,true,ll,1130.6000000953209,response,-1.0570280672376675,1.2,-1.2,-1.0932046580095067,1.2,-1.2,low,low,,ISIC_4718313.JPG,,ISIC_0061320.JPG,,41,true,0.15000000000000002,ll,keypress(f),0,false,833165.6000003815,833165.4000000954,832017.312,832113,832034.8,833102,1,40,27,
sequence,flow.Sequence,6_26,2024-03-04T20:31:31.653Z,,,,,,,,,,,1130.6000000953209,completion,,,,,,,low,low,,,,,,,true,,,,,false,833165.7000002861,833165.4000000954,832017.312,832112.8000001907,832034.8,833102,1,40,,
trial,html.Screen,6_27_0,2024-03-04T20:31:32.772Z,,,,1,1.073296525451802,1.3454282740421717,,,true,ll,1183,response,-1.1320017221158485,1.2,-1.2,-1.065213496692536,1.2,-1.2,low,low,,ISIC_5787312.JPG,,ISIC_0030597.JPG,,41,true,0.15000000000000002,ll,keypress(f),0,false,834285.1000003815,834285,833085.354,833165.8000001907,833102,834203.028,1,40,28,
sequence,flow.Sequence,6_27,2024-03-04T20:31:32.772Z,,,,,,,,,,,1183,completion,,,,,,,low,low,,,,,,,true,,,,,false,834285.2000002861,834285,833085.354,833165.8000001907,833102,834203.028,1,40,,
trial,html.Screen,6_28_0,2024-03-04T20:31:36.167Z,,,,1,0.9013888878932071,-0.9328095253308732,,,true,lh,3476.9719999999506,response,-1.0264463986917702,1.2,-1.2,1.171271535505083,1.2,-1.2,low,high,,ISIC_0068259.JPG,,ISIC_7889838.JPG,,26,true,0.3300000000000002,lh,keypress(e),0,false,837680.5,837680,834203.028,834285.2000002861,834203.028,837605.7,1,40,29,
sequence,flow.Sequence,6_28,2024-03-04T20:31:36.168Z,,,,,,,,,,,3476.9719999999506,completion,,,,,,,low,high,,,,,,,true,,,,,false,837681.1000003815,837680,834203.028,834285.2000002861,834203.028,837605.7,1,40,,
trial,html.Screen,6_29_0,2024-03-04T20:31:37.716Z,,,,1,1.2838089642212804,-0.8550527900640753,,,true,lh,1623.700000095414,response,-1.1592423187534993,1.2,-1.2,1.067128884093211,1.2,-1.2,low,high,,ISIC_0034187.JPG,,ISIC_6854940.JPG,,33,true,0.3600000000000002,lh,keypress(e),0,false,839229.5,839229.4000000954,837603.904,837681.4000000954,837605.7,839140.3,1,40,30,
sequence,flow.Sequence,6_29,2024-03-04T20:31:37.717Z,,,,,,,,,,,1623.700000095414,completion,,,,,,,low,high,,,,,,,true,,,,,false,839229.7000002861,839229.4000000954,837603.904,837681.3000001907,837605.7,839140.3,1,40,,
trial,html.Screen,6_30_0,2024-03-04T20:31:38.887Z,,,,1,0.9445114955578736,-1.0054210059625863,,,true,lh,1259.4000002860557,response,-1.155796217969438,1.2,-1.2,1.1646564121743912,1.2,-1.2,low,high,,ISIC_0033807.JPG,,ISIC_2685523.JPG,,33,true,0.3600000000000002,lh,keypress(e),0,false,840400.4000000954,840399.7000002861,839140.212,839229.8000001907,839140.3,840324.7,1,40,31,
sequence,flow.Sequence,6_30,2024-03-04T20:31:38.888Z,,,,,,,,,,,1259.4000002860557,completion,,,,,,,low,high,,,,,,,true,,,,,false,840401,840399.7000002861,839140.212,839229.7000002861,839140.3,840324.7,1,40,,
trial,html.Screen,6_31_0,2024-03-04T20:31:40.695Z,,,,1,-0.9873794329144926,0.9500689037516484,,,true,hl,1882.9000003815163,response,1.00615481805876,1.2,-1.2,-0.8428903771195875,1.2,-1.2,high,low,,ISIC_0013498.JPG,,ISIC_0069970.JPG,,29,true,0.3600000000000002,hl,keypress(j),0,false,842208,842207.6000003815,840324.56,840401.4000000954,840324.7,842126.1,1,40,32,
sequence,flow.Sequence,6_31,2024-03-04T20:31:40.695Z,,,,,,,,,,,1882.9000003815163,completion,,,,,,,high,low,,,,,,,true,,,,,false,842208.6000003815,842207.6000003815,840324.56,840401.3000001907,840324.7,842126.1,1,40,,
trial,html.Screen,6_32_0,2024-03-04T20:31:42.245Z,,,,1,-0.8709576717420565,1.2795156779072283,,,true,hl,1631.4000000000233,response,0.9445114955578736,1.2,-1.2,-1.0054210059625863,1.2,-1.2,high,low,,ISIC_1925632.JPG,,ISIC_0033807.JPG,,29,true,0.3600000000000002,hl,keypress(j),0,false,843757.6000003815,843757.5,842125.802,842208.8000001907,842126.1,843677.4,1,40,33,
sequence,flow.Sequence,6_32,2024-03-04T20:31:42.245Z,,,,,,,,,,,1631.4000000000233,completion,,,,,,,high,low,,,,,,,true,,,,,false,843757.7000002861,843757.5,842125.802,842208.7000002861,842126.1,843677.4,1,40,,
trial,html.Screen,6_33_0,2024-03-04T20:31:43.797Z,,,,1,-1.0961318727760048,1.2134960228256146,,,true,hl,1632.2000003814464,response,1.1890109863264902,1.2,-1.2,-0.8867825318561365,1.2,-1.2,high,low,,ISIC_9768421.JPG,,ISIC_0072576.JPG,,29,true,0.3600000000000002,hl,keypress(j),0,false,845309.9000000954,845309.6000003815,843677.212,843757.8000001907,843677.4,845228.7,1,40,34,
sequence,flow.Sequence,6_33,2024-03-04T20:31:43.797Z,,,,,,,,,,,1632.2000003814464,completion,,,,,,,high,low,,,,,,,true,,,,,false,845310.3000001907,845309.6000003815,843677.212,843757.8000001907,843677.4,845228.7,1,40,,
trial,html.Screen,6_34_0,2024-03-04T20:31:45.239Z,,,,1,-1.052305774554686,1.3940181224717798,,,true,hl,1523.0000002861489,response,1.1890109863264902,1.2,-1.2,-0.8867825318561365,1.2,-1.2,high,low,,ISIC_4175400.JPG,,ISIC_0072576.JPG,,29,true,0.3600000000000002,hl,keypress(j),0,false,846752.1000003815,846751.7000002861,845228.078,845310.4000000954,845228.7,846663.3,1,40,35,
sequence,flow.Sequence,6_34,2024-03-04T20:31:45.240Z,,,,,,,,,,,1523.0000002861489,completion,,,,,,,high,low,,,,,,,true,,,,,false,846752.8000001907,846751.7000002861,845228.078,845310.3000001907,845228.7,846663.3,1,40,,
trial,html.Screen,6_35_0,2024-03-04T20:31:46.581Z,,,,1,-1.1894733304494307,-1.1169761866204877,,,true,hh,1430.9000002860557,response,1.211212746138903,1.2,-1.2,0.9514368385965256,1.2,-1.2,high,high,,ISIC_0033813.JPG,,ISIC_0198331.JPG,,127,true,0.3300000000000002,hh,keypress(i),0,false,848094.4000000954,848094.2000002861,846646.4,846753,846663.3,848014.2,1,40,36,
sequence,flow.Sequence,6_35,2024-03-04T20:31:46.582Z,,,,,,,,,,,1430.9000002860557,completion,,,,,,,high,high,,,,,,,true,,,,,false,848094.6000003815,848094.2000002861,846646.4,846752.9000000954,846663.3,848014.2,1,40,,
trial,html.Screen,6_36_0,2024-03-04T20:31:48.007Z,,,,1,-1.152619213055059,-1.2957497771092716,,,true,hh,1505.6000001907814,response,1.1510001454240106,1.2,-1.2,1.132540312667795,1.2,-1.2,high,high,,ISIC_0061915.JPG,,ISIC_0009959.JPG,,25,true,0.15000000000000002,hh,keypress(i),0,false,849520.3000001907,849519.8000001907,847998,848094.8000001907,848014.2,849432.2,1,40,37,
sequence,flow.Sequence,6_36,2024-03-04T20:31:48.008Z,,,,,,,,,,,1505.6000001907814,completion,,,,,,,high,high,,,,,,,true,,,,,false,849520.8000001907,849519.8000001907,847998,848094.7000002861,848014.2,849432.2,1,40,,
trial,html.Screen,6_37_0,2024-03-04T20:31:50.791Z,,,,1,1.294521945180264,1.3078626540563885,,,false,ll,2871.1000001907814,response,-1.2040551955011098,1.2,-1.2,-1.2664651062241792,1.2,-1.2,low,low,,ISIC_3601224.JPG,,ISIC_0068886.JPG,,27,true,0.12,lh,keypress(e),0,false,852303.6000003815,852303.3000001907,849432.116,849521.1000003815,849432.2,852217.8,1,40,38,
sequence,flow.Sequence,6_37,2024-03-04T20:31:50.791Z,,,,,,,,,,,2871.1000001907814,completion,,,,,,,low,low,,,,,,,true,,,,,false,852304.2000002861,852303.3000001907,849432.116,849521,849432.2,852217.8,1,40,,
trial,html.Screen,6_38_0,2024-03-04T20:31:52.406Z,,,,1,1.0878102877901663,1.3154097543539391,,,false,ll,1701.3000003814232,response,-1.2059606637811695,1.2,-1.2,-1.214966446488752,1.2,-1.2,low,low,,ISIC_1413242.JPG,,ISIC_0013334.JPG,,41,true,0.15000000000000002,lh,keypress(e),0,false,853919.5,853919.1000003815,852216.296,852304.3000001907,852217.8,853835.7,1,40,39,
sequence,flow.Sequence,6_38,2024-03-04T20:31:52.407Z,,,,,,,,,,,1701.3000003814232,completion,,,,,,,low,low,,,,,,,true,,,,,false,853920.1000003815,853919.1000003815,852216.296,852304.3000001907,852217.8,853835.7,1,40,,
trial,html.Screen,6_39_0,2024-03-04T20:31:55.351Z,,,,1,1.0885984639975343,1.2042618719491294,,,false,ll,3028.200000095414,response,-1.1715181192107684,1.2,-1.2,-1.2251845559044463,1.2,-1.2,low,low,,ISIC_0012740.JPG,,ISIC_0011957.JPG,,41,true,0.15000000000000002,lh,keypress(e),0,false,856864.5,856863.9000000954,853835.642,853920.3000001907,853835.7,856788.8,1,40,40,
sequence,flow.Sequence,6_39,2024-03-04T20:31:55.352Z,,,,,,,,,,,3028.200000095414,completion,,,,,,,low,low,,,,,,,true,,,,,false,856865.4000000954,856863.9000000954,853835.642,853920.2000002861,853835.7,856788.8,1,40,,
practice_loop,flow.Loop,6,2024-03-04T20:31:55.353Z,,,,,,,,,,,91717.77400009532,completion,,,,,,,,,,,,,,,true,,,,,false,856865.8000001907,856863.9000000954,765146.126,765220.3000001907,765146.126,856788.8,1,40,,
stair_instructions,html.Screen,7,2024-03-04T20:32:00.436Z,,,,,,,,,,,5160.000000190688,response,,,,,,,,,,,,,,,,,continue,click button,,,861949.4000000954,861948.8000001907,856770.156,856866.1000003815,856788.8,861859,,,,
trial,html.Screen,8_0_0,2024-03-04T20:32:03.544Z,,,,2,0.0321039635696159,0.020496766286318,,0.04,false,ll,3197.5,response,-1.1894733304494307,1.2,-1.2,-1.1169761866204877,1.2,-1.2,low,low,,ISIC_0058063.JPG,,ISIC_0033813.JPG,28,41,false,0.15000000000000002,lh,keypress(e),0,true,865056.6000003815,865056.5,861858.926,861949.4000000954,861859,864978.2,1,40,1,
sequence,flow.Sequence,8_0,2024-03-04T20:32:03.544Z,,,,,,,,,,,3197.5,completion,,,,,,,low,low,,,,,,,false,,,,,true,865056.8000001907,865056.5,861858.926,861949.4000000954,861859,864978.2,1,40,,
trial,html.Screen,8_1_0,2024-03-04T20:32:05.687Z,,,,2,-0.0166849894750452,0.0371614812368835,,0.04,false,lh,2221.3000000000466,response,-0.9873794329144926,1.15,-1.15,0.9500689037516484,1.15,-1.2,low,high,,ISIC_6231450.JPG,,ISIC_0013498.JPG,28,25,false,0.28000000000000014,hl,keypress(j),0,true,867199.9000000954,867199.5,864961.566,865056.8000001907,864978.2,867113.5,1,40,2,
sequence,flow.Sequence,8_1,2024-03-04T20:32:05.687Z,,,,,,,,,,,2221.3000000000466,completion,,,,,,,low,high,,,,,,,false,,,,,true,867200.4000000954,867199.5,864961.566,865056.8000001907,864978.2,867113.5,1,40,,
trial,html.Screen,8_2_0,2024-03-04T20:32:07.063Z,,,,2,-0.0060918352854008,0.029032683404407,,0.04,false,lh,1462.2000002861023,response,-1.0822170028935367,1.15,-1.15,1.1654796154432183,1.15,-1.15,low,high,,ISIC_8436194.JPG,,ISIC_7288818.JPG,28,25,false,0.28000000000000014,hh,keypress(i),0,true,868576.1000003815,868575.7000002861,867112.488,867200.8000001907,867113.5,868514.6,1,40,3,
sequence,flow.Sequence,8_2,2024-03-04T20:32:07.064Z,,,,,,,,,,,1462.2000002861023,completion,,,,,,,low,high,,,,,,,false,,,,,true,868576.6000003815,868575.7000002861,867112.488,867200.6000003815,867113.5,868514.6,1,40,,
trial,html.Screen,8_3_0,2024-03-04T20:32:08.423Z,,,,2,0.010035581303589,-0.0100711721396864,,0.04,true,hl,1421.1000002861256,response,1.3559315773956395,1.15,-1.15,-0.924768326187701,1.15,-1.15,high,low,,ISIC_0030592.JPG,,ISIC_5101111.JPG,28,27,false,0.31000000000000016,hl,keypress(j),0,true,869936.1000003815,869935.7000002861,868498,868576.9000000954,868514.6,869849.1,1,40,4,
sequence,flow.Sequence,8_3,2024-03-04T20:32:08.424Z,,,,,,,,,,,1421.1000002861256,completion,,,,,,,high,low,,,,,,,false,,,,,true,869936.7000002861,869935.7000002861,868498,868576.8000001907,868514.6,869849.1,1,40,,
trial,html.Screen,8_4_0,2024-03-04T20:32:09.821Z,,,,2,-0.0377791839943904,0.0227626648172468,,0.04,false,hl,1485.000000381493,response,0.9013888878932071,1.15,-1.15,-0.9328095253308732,1.15,-1.15,high,low,,ISIC_7167479.JPG,,ISIC_0068259.JPG,28,27,false,0.31000000000000016,hh,keypress(i),0,true,871334.2000002861,871334.1000003815,869849.02,869937,869849.1,871250.5,1,40,5,
sequence,flow.Sequence,8_4,2024-03-04T20:32:09.821Z,,,,,,,,,,,1485.000000381493,completion,,,,,,,high,low,,,,,,,false,,,,,true,871334.4000000954,871334.1000003815,869849.02,869936.9000000954,869849.1,871250.5,1,40,,
trial,html.Screen,8_5_0,2024-03-04T20:32:10.854Z,,,,2,0.0367218428225813,-0.0026956749740767,,0.04,false,hh,1116.5,response,1.1217390688497193,1.0999999999999999,-1.15,1.2276600934505035,1.15,-1.15,high,high,,ISIC_7212271.JPG,,ISIC_0026344.JPG,28,28,false,0.13,ll,keypress(f),0,true,872367.3000001907,872367,871233.8,871334.4000000954,871250.5,872301.4,1,40,6,
sequence,flow.Sequence,8_5,2024-03-04T20:32:10.855Z,,,,,,,,,,,1116.5,completion,,,,,,,high,high,,,,,,,false,,,,,true,872367.7000002861,872367,871233.8,871334.4000000954,871250.5,872301.4,1,40,,
trial,html.Screen,8_6_0,2024-03-04T20:32:13.463Z,,,,2,0.0365981355399771,0.0162670920008846,,0.04,false,hl,2674.4000001907116,response,1.1890109863264902,1.15,-1.15,-0.8867825318561365,1.15,-1.15,high,low,,ISIC_0982855.JPG,,ISIC_0072576.JPG,28,27,false,0.31000000000000016,hh,keypress(i),0,true,874976.2000002861,874975.8000001907,872284.432,872367.8000001907,872301.4,874886.6,1,40,7,
sequence,flow.Sequence,8_6,2024-03-04T20:32:13.464Z,,,,,,,,,,,2674.4000001907116,completion,,,,,,,high,low,,,,,,,false,,,,,true,874976.8000001907,874975.8000001907,872284.432,872367.8000001907,872301.4,874886.6,1,40,,
trial,html.Screen,8_7_0,2024-03-04T20:32:14.999Z,,,,2,0.0051046740562181,-0.0178832721027728,,0.04,false,hh,1625.3000000953907,response,1.2254777618346506,1.15,-1.15,1.0356416330964822,1.15,-1.15,high,high,,ISIC_9545819.JPG,,ISIC_1054090.JPG,28,26,false,0.14,hl,keypress(j),0,true,876512.2000002861,876511.9000000954,874885.27,874977,874886.6,876437.8,1,40,8,
sequence,flow.Sequence,8_7,2024-03-04T20:32:15.000Z,,,,,,,,,,,1625.3000000953907,completion,,,,,,,high,high,,,,,,,false,,,,,true,876512.9000000954,876511.9000000954,874885.27,874977,874886.6,876437.8,1,40,,
trial,html.Screen,8_8_0,2024-03-04T20:32:16.471Z,,,,2,0.0327772618698018,-0.0056908372048728,,0.04,false,hl,1545.8000003814232,response,1.0003671514840182,1.1572443740805702,-1.15,-0.8992716557663581,1.15,-1.15,high,low,,ISIC_7897925.JPG,,ISIC_0061749.JPG,28,27,false,0.31000000000000016,hh,keypress(i),0,true,877984,877983.6000003815,876437.512,876513.2000002861,876437.8,877922.5,1,40,9,
sequence,flow.Sequence,8_8,2024-03-04T20:32:16.471Z,,,,,,,,,,,1545.8000003814232,completion,,,,,,,high,low,,,,,,,false,,,,,true,877984.5,877983.6000003815,876437.512,876513.2000002861,876437.8,877922.5,1,40,,
trial,html.Screen,8_9_0,2024-03-04T20:32:18.887Z,,,,2,-0.0158987717472563,-0.0292472192292015,,0.04,false,ll,2477.2000002861023,response,-1.1320017221158485,1.1572443740805702,-1.15,-1.065213496692536,1.15,-1.15,low,low,,ISIC_1366765.JPG,,ISIC_0030597.JPG,28,25,false,0.11,hl,keypress(j),0,true,880400.1000003815,880399.7000002861,877905.7,877984.8000001907,877922.5,880324.3,1,40,10,
sequence,flow.Sequence,8_9,2024-03-04T20:32:18.888Z,,,,,,,,,,,2477.2000002861023,completion,,,,,,,low,low,,,,,,,false,,,,,true,880400.7000002861,880399.7000002861,877905.7,877984.7000002861,877922.5,880324.3,1,40,,
trial,html.Screen,8_10_0,2024-03-04T20:32:20.629Z,,,,2,-0.0023664502831079,-0.0252784582169994,,0.04,false,lh,1817.6999999999534,response,-1.0748728054622358,1.1572443740805702,-1.15,1.2840853987892311,1.15,-1.15,low,high,,ISIC_4156010.JPG,,ISIC_0059219.JPG,28,25,false,0.28000000000000014,hh,keypress(i),0,true,882142.2000002861,882142,880323.21,880401,880324.3,882059.1,1,40,11,
sequence,flow.Sequence,8_10,2024-03-04T20:32:20.629Z,,,,,,,,,,,1817.6999999999534,completion,,,,,,,low,high,,,,,,,false,,,,,true,882142.6000003815,882142,880323.21,880400.9000000954,880324.3,882059.1,1,40,,
trial,html.Screen,8_11_0,2024-03-04T20:32:25.427Z,,,,2,0.0327772618698018,-0.0056908372048728,,0.04,false,lh,4885.000000381493,response,-1.082730232773217,1.1572443740805702,-1.15,0.8833175387485132,1.15,-1.15,low,high,,ISIC_7897925.JPG,,ISIC_0011933.JPG,28,25,false,0.28000000000000014,hl,keypress(j),0,true,886944.5,886944.1000003815,882058.404,882142.7000002861,882059.1,886863.1,1,40,12,
sequence,flow.Sequence,8_11,2024-03-04T20:32:25.427Z,,,,,,,,,,,4885.000000381493,completion,,,,,,,low,high,,,,,,,false,,,,,true,886945.1000003815,886944.1000003815,882058.404,882142.7000002861,882059.1,886863.1,1,40,,
trial,html.Screen,8_12_0,2024-03-04T20:32:28.627Z,,,,2,0.010035581303589,-0.0100711721396864,,0.04,false,hl,3281.000000381493,response,0.8494721812820843,1.1572443740805702,-1.15,-1.3435429139974266,1.15,-1.15,high,low,,ISIC_0030592.JPG,,ISIC_0033585.JPG,28,27,false,0.31000000000000016,ll,keypress(f),0,true,890144.5,890144.1000003815,886859.438,886945.3000001907,886863.1,890065.8,1,40,13,
sequence,flow.Sequence,8_12,2024-03-04T20:32:28.627Z,,,,,,,,,,,3281.000000381493,completion,,,,,,,high,low,,,,,,,false,,,,,true,890145.3000001907,890144.1000003815,886859.438,886945.3000001907,886863.1,890065.8,1,40,,
trial,html.Screen,8_13_0,2024-03-04T20:32:30.147Z,,,,2,-0.0077673378094614,-0.0021810768579373,,0.04,false,ll,1598.6000000953209,response,-1.143881656046846,1.1572443740805702,-1.15,-0.9998119797725442,1.15,-1.0999999999999999,low,low,,ISIC_0067621.JPG,,ISIC_8685259.JPG,28,27,false,0.11,hh,keypress(i),0,true,891665,891664.4000000954,890049.1,890145.5,890065.8,891583.6,1,40,14,
sequence,flow.Sequence,8_13,2024-03-04T20:32:30.148Z,,,,,,,,,,,1598.6000000953209,completion,,,,,,,low,low,,,,,,,false,,,,,true,891665.8000001907,891664.4000000954,890049.1,890145.4000000954,890065.8,891583.6,1,40,,
trial,html.Screen,8_14_0,2024-03-04T20:32:32.081Z,,,,2,0.0189295602385628,0.0128812415435153,,0.04,true,lh,2015.4000000000233,response,-0.9046170303418553,1.1572443740805702,-1.15,1.0063426986460375,1.15,-1.15,low,high,,ISIC_0010372.JPG,,ISIC_0055759.JPG,28,25,false,0.28000000000000014,lh,keypress(e),0,true,893599.4000000954,893599,891583.246,891666.1000003815,891583.6,893518.6,1,40,15,
sequence,flow.Sequence,8_14,2024-03-04T20:32:32.082Z,,,,,,,,,,,2015.4000000000233,completion,,,,,,,low,high,,,,,,,false,,,,,true,893599.9000000954,893599,891583.246,891666,891583.6,893518.6,1,40,,
trial,html.Screen,8_15_0,2024-03-04T20:32:33.618Z,,,,2,0.0086413421586899,0.0360184993500958,,0.04,false,ll,1616.7000001907581,response,-1.1126049058422398,1.1572443740805702,-1.15,-1.2305421124063929,1.15,-1.15,low,low,,ISIC_0010767.JPG,,ISIC_0071536.JPG,28,25,false,0.11,hl,keypress(j),0,true,895135.8000001907,895135.3000001907,893502,893600.1000003815,893518.6,895053.5,1,40,16,
sequence,flow.Sequence,8_15,2024-03-04T20:32:33.618Z,,,,,,,,,,,1616.7000001907581,completion,,,,,,,low,low,,,,,,,false,,,,,true,895136.3000001907,895135.3000001907,893502,893600.1000003815,893518.6,895053.5,1,40,,
trial,html.Screen,8_16_0,2024-03-04T20:32:34.946Z,,,,2,-0.0166849894750452,0.0371614812368835,,0.04,true,hh,1410,response,1.2254777618346506,1.1572443740805702,-1.15,1.0356416330964822,1.15,-1.15,high,high,,ISIC_6231450.JPG,,ISIC_1054090.JPG,28,25,false,0.14,hh,keypress(i),0,true,896463.9000000954,896463.5,895036.7,895136.6000003815,895053.5,896387.62,1,40,17,
sequence,flow.Sequence,8_16,2024-03-04T20:32:34.946Z,,,,,,,,,,,1410,completion,,,,,,,high,high,,,,,,,false,,,,,true,896464.4000000954,896463.5,895036.7,895136.6000003815,895053.5,896387.62,1,40,,
trial,html.Screen,8_17_0,2024-03-04T20:32:36.546Z,,,,2,0.0199897690678184,0.0312486875504497,,0.04,false,hl,1676.080000286107,response,1.411763789273233,1.1572443740805702,-1.15,-1.0057734478347988,1.0805596974655665,-1.15,high,low,,ISIC_5482426.JPG,,ISIC_0027235.JPG,28,27,false,0.31000000000000016,hh,keypress(i),0,true,898064.1000003815,898063.7000002861,896387.62,896464.6000003815,896387.62,897972.2,1,40,18,
sequence,flow.Sequence,8_17,2024-03-04T20:32:36.547Z,,,,,,,,,,,1676.080000286107,completion,,,,,,,high,low,,,,,,,false,,,,,true,898064.7000002861,898063.7000002861,896387.62,896464.6000003815,896387.62,897972.2,1,40,,
trial,html.Screen,8_18_0,2024-03-04T20:32:38.306Z,,,,2,0.0051046740562181,-0.0178832721027728,,0.04,false,hh,1851.6000001907814,response,1.3439468040333131,1.2186207755539418,-1.15,1.0132934495041264,1.0805596974655665,-1.15,high,high,,ISIC_9545819.JPG,,ISIC_4536407.JPG,28,30,false,0.13,hl,keypress(j),0,true,899824.2000002861,899823.8000001907,897971.91,898065,897972.2,899740.4,1,40,19,
sequence,flow.Sequence,8_18,2024-03-04T20:32:38.307Z,,,,,,,,,,,1851.6000001907814,completion,,,,,,,high,high,,,,,,,false,,,,,true,899824.7000002861,899823.8000001907,897971.91,898064.9000000954,897972.2,899740.4,1,40,,
trial,html.Screen,8_19_0,2024-03-04T20:32:39.810Z,,,,2,-0.0158987717472563,-0.0292472192292015,,0.04,false,ll,1586.800000286079,response,-1.238264833797662,1.1686207755539417,-1.15,-1.176099940770289,1.1305596974655665,-1.15,low,low,,ISIC_1366765.JPG,,ISIC_0032861.JPG,28,25,false,0.11,hh,keypress(i),0,true,901327.7000002861,901327.2000002861,899740.036,899825,899740.4,901241.6,1,40,20,
sequence,flow.Sequence,8_19,2024-03-04T20:32:39.810Z,,,,,,,,,,,1586.800000286079,completion,,,,,,,low,low,,,,,,,false,,,,,true,901328.2000002861,901327.2000002861,899740.036,899824.9000000954,899740.4,901241.6,1,40,,
trial,html.Screen,8_20_0,2024-03-04T20:32:42.352Z,,,,2,0.0361875505619981,-0.0291457404567876,,0.04,false,hl,2627.8000000953907,response,1.3515962101204746,1.1686207755539417,-1.15,-0.8414583575292955,1.1305596974655665,-1.15,high,low,,ISIC_0027480.JPG,,ISIC_0274382.JPG,28,25,false,0.31000000000000016,lh,keypress(e),0,true,903869.5,903869.4000000954,901241.28,901328.6000003815,901241.6,903777,1,40,21,
sequence,flow.Sequence,8_20,2024-03-04T20:32:42.352Z,,,,,,,,,,,2627.8000000953907,completion,,,,,,,high,low,,,,,,,false,,,,,true,903869.7000002861,903869.4000000954,901241.28,901328.5,901241.6,903777,1,40,,
trial,html.Screen,8_21_0,2024-03-04T20:32:44.402Z,,,,2,-0.0023664502831079,-0.0252784582169994,,0.04,true,hh,2142.2000002861023,response,1.212030980680325,1.1686207755539417,-1.15,1.139863018685685,1.1305596974655665,-1.15,high,high,,ISIC_4156010.JPG,,ISIC_0008510.JPG,28,27,false,0.14,hh,keypress(i),0,true,905919.7000002861,905919.2000002861,903775.806,903869.7000002861,903777,905845.3,1,40,22,
sequence,flow.Sequence,8_21,2024-03-04T20:32:44.402Z,,,,,,,,,,,2142.2000002861023,completion,,,,,,,high,high,,,,,,,false,,,,,true,905920.2000002861,905919.2000002861,903775.806,903869.7000002861,903777,905845.3,1,40,,
trial,html.Screen,8_22_0,2024-03-04T20:32:45.858Z,,,,2,0.0127320821962457,-0.0315308940184827,,0.04,true,hl,1530.3000003814232,response,1.3559315773956395,1.1686207755539417,-1.15,-0.924768326187701,1.1305596974655665,-1.15,high,low,,ISIC_8156101.JPG,,ISIC_5101111.JPG,28,25,false,0.31000000000000016,hl,keypress(j),0,true,907376,907375.6000003815,905844.724,905920.5,905845.3,907296.6,1,40,23,
sequence,flow.Sequence,8_22,2024-03-04T20:32:45.859Z,,,,,,,,,,,1530.3000003814232,completion,,,,,,,high,low,,,,,,,false,,,,,true,907376.7000002861,907375.6000003815,905844.724,905920.4000000954,905845.3,907296.6,1,40,,
trial,html.Screen,8_23_0,2024-03-04T20:32:47.330Z,,,,2,0.0361875505619981,-0.0291457404567876,,0.04,true,lh,1551.2000001907581,response,-1.1547137855907486,1.1186207755539417,-1.15,1.0185275168641534,1.1305596974655665,-1.15,low,high,,ISIC_0027480.JPG,,ISIC_7604870.JPG,28,26,false,0.28000000000000014,lh,keypress(e),0,true,908848.1000003815,908847.8000001907,907296.382,907377,907296.6,908764.448,1,40,24,
sequence,flow.Sequence,8_23,2024-03-04T20:32:47.331Z,,,,,,,,,,,1551.2000001907581,completion,,,,,,,low,high,,,,,,,false,,,,,true,908848.6000003815,908847.8000001907,907296.382,907376.8000001907,907296.6,908764.448,1,40,,
trial,html.Screen,8_24_0,2024-03-04T20:32:49.025Z,,,,2,0.0321039635696159,0.020496766286318,,0.04,true,lh,1778.6520003814949,response,-1.127346631538643,1.1186207755539417,-1.15,0.8080854255453543,1.0805596974655665,-1.15,low,high,,ISIC_0058063.JPG,,ISIC_0011045.JPG,28,25,false,0.28000000000000014,lh,keypress(e),0,true,910543.4000000954,910543.1000003815,908764.448,908848.9000000954,908764.448,910467.1,1,40,25,
sequence,flow.Sequence,8_24,2024-03-04T20:32:49.026Z,,,,,,,,,,,1778.6520003814949,completion,,,,,,,low,high,,,,,,,false,,,,,true,910543.8000001907,910543.1000003815,908764.448,908848.8000001907,908764.448,910467.1,1,40,,
trial,html.Screen,8_25_0,2024-03-04T20:32:50.691Z,,,,2,-0.0118555311043871,-0.0087774532070196,,0.04,false,hl,1741.3000000953907,response,1.064425982109969,1.1186207755539417,-1.0999999999999999,-0.958564243697126,1.0805596974655665,-1.15,high,low,,ISIC_6488658.JPG,,ISIC_3203344.JPG,28,30,false,0.31000000000000016,lh,keypress(e),0,true,912208.8000001907,912208.4000000954,910465.406,910544,910467.1,912117.2,1,40,26,
sequence,flow.Sequence,8_25,2024-03-04T20:32:50.691Z,,,,,,,,,,,1741.3000000953907,completion,,,,,,,high,low,,,,,,,false,,,,,true,912209.2000002861,912208.4000000954,910465.406,910543.9000000954,910467.1,912117.2,1,40,,
trial,html.Screen,8_26_0,2024-03-04T20:32:54.000Z,,,,2,0.0189295602385628,0.0128812415435153,,0.04,false,ll,3400.500000286149,response,-1.0570280672376675,1.1686207755539417,-1.0999999999999999,-1.0932046580095067,1.0805596974655665,-1.15,low,low,,ISIC_0010372.JPG,,ISIC_0061320.JPG,28,29,false,0.11,lh,keypress(e),0,true,915517.8000001907,915517.7000002861,912117.034,912209.5,912117.2,915436.7,1,40,27,
sequence,flow.Sequence,8_26,2024-03-04T20:32:54.000Z,,,,,,,,,,,3400.500000286149,completion,,,,,,,low,low,,,,,,,false,,,,,true,915518,915517.7000002861,912117.034,912209.5,912117.2,915436.7,1,40,,
trial,html.Screen,8_27_0,2024-03-04T20:32:59.299Z,,,,2,0.0361875505619981,-0.0291457404567876,,0.04,false,ll,5379.300000000047,response,-0.9926496793263212,1.1686207755539417,-1.0999999999999999,-1.0520809837712837,1.0805596974655665,-1.15,low,low,,ISIC_0027480.JPG,,ISIC_0062686.JPG,28,29,false,0.11,lh,keypress(e),0,true,920816.5,920816,915419.9,915518.1000003815,915436.7,920737.594,1,40,28,
sequence,flow.Sequence,8_27,2024-03-04T20:32:59.299Z,,,,,,,,,,,5379.300000000047,completion,,,,,,,low,low,,,,,,,false,,,,,true,920817,920816,915419.9,915518,915436.7,920737.594,1,40,,
trial,html.Screen,8_28_0,2024-03-04T20:33:12.705Z,,,,2,-0.0023664502831079,-0.0252784582169994,,0.04,false,lh,13485.106000286061,response,-1.0822170028935367,1.1686207755539417,-0.9748388732819944,1.1654796154432183,1.0805596974655665,-1.15,low,high,,ISIC_4156010.JPG,,ISIC_7288818.JPG,28,29,false,0.20000000000000007,ll,keypress(f),0,true,934222.8000001907,934222.7000002861,920737.594,920817.3000001907,920737.594,934135.4,1,40,29,
sequence,flow.Sequence,8_28,2024-03-04T20:33:12.705Z,,,,,,,,,,,13485.106000286061,completion,,,,,,,low,high,,,,,,,false,,,,,true,934222.9000000954,934222.7000002861,920737.594,920817.3000001907,920737.594,934135.4,1,40,,
trial,html.Screen,8_29_0,2024-03-04T20:33:21.890Z,,,,2,-0.0399381815506136,-0.0177751789152893,,0.04,false,hl,9271.700000381446,response,0.9445114955578736,1.1686207755539417,-0.9748388732819944,-1.0054210059625863,1.1305596974655665,-1.15,high,low,,ISIC_3981425.JPG,,ISIC_0033807.JPG,28,25,false,0.31000000000000016,lh,keypress(e),0,true,943407.5,943407.1000003815,934124.838,934222.9000000954,934135.4,943326.5,1,40,30,
sequence,flow.Sequence,8_29,2024-03-04T20:33:21.890Z,,,,,,,,,,,9271.700000381446,completion,,,,,,,high,low,,,,,,,false,,,,,true,943408,943407.1000003815,934124.838,934222.9000000954,934135.4,943326.5,1,40,,
trial,html.Screen,8_30_0,2024-03-04T20:33:29.026Z,,,,2,-0.012810673904807,0.00400964452501,,0.04,true,hh,7233.60000038147,response,1.2714351764931109,1.1686207755539417,-0.9748388732819944,1.0785174776187512,1.1305596974655665,-1.15,high,high,,ISIC_0064656.JPG,,ISIC_2454898.JPG,28,27,false,0.14,hh,keypress(i),0,true,950560.6000003815,950560.1000003815,943319.606,943408.2000002861,943326.5,950482.4,1,40,31,
sequence,flow.Sequence,8_30,2024-03-04T20:33:29.027Z,,,,,,,,,,,7233.60000038147,completion,,,,,,,high,high,,,,,,,false,,,,,true,950561.3000001907,950560.1000003815,943319.606,943408.2000002861,943326.5,950482.4,1,40,,
trial,html.Screen,8_31_0,2024-03-04T20:33:35.057Z,,,,2,0.0321039635696159,0.020496766286318,,0.04,false,hh,6108.900000190712,response,1.3045229691102764,1.1686207755539417,-0.9748388732819944,1.1781544075681951,1.1305596974655665,-1.15,high,high,,ISIC_0058063.JPG,,ISIC_6148533.JPG,28,27,false,0.14,hl,keypress(j),0,true,956591.6000003815,956591.3000001907,950465.3,950561.6000003815,950482.4,956503.9,1,40,32,
sequence,flow.Sequence,8_31,2024-03-04T20:33:35.058Z,,,,,,,,,,,6108.900000190712,completion,,,,,,,high,high,,,,,,,false,,,,,true,956592.2000002861,956591.3000001907,950465.3,950561.5,950482.4,956503.9,1,40,,
trial,html.Screen,8_32_0,2024-03-04T20:33:42.736Z,,,,2,0.010035581303589,-0.0100711721396864,,0.04,false,hh,7766.599999999977,response,1.1363600109870835,1.1415202233645136,-0.9748388732819944,1.295816345369928,1.1805596974655665,-1.15,high,high,,ISIC_0030592.JPG,,ISIC_0026141.JPG,28,25,false,0.14,lh,keypress(e),0,true,964270.7000002861,964270.5,956499.666,956592.4000000954,956503.9,964176.8,1,40,33,
sequence,flow.Sequence,8_32,2024-03-04T20:33:42.737Z,,,,,,,,,,,7766.599999999977,completion,,,,,,,high,high,,,,,,,false,,,,,true,964271,964270.5,956499.666,956592.3000001907,956503.9,964176.8,1,40,,
trial,html.Screen,8_33_0,2024-03-04T20:33:45.457Z,,,,2,0.0365981355399771,0.0162670920008846,,0.04,false,hh,2814.1999999999534,response,1.294521945180264,1.1915202233645137,-0.9748388732819944,1.3078626540563885,1.1805596974655665,-1.15,high,high,,ISIC_0982855.JPG,,ISIC_3601224.JPG,28,26,false,0.15000000000000002,hl,keypress(j),0,true,966991.4000000954,966991,964171.2,964271.1000003815,964176.8,966912.8,1,40,34,
sequence,flow.Sequence,8_33,2024-03-04T20:33:45.458Z,,,,,,,,,,,2814.1999999999534,completion,,,,,,,high,high,,,,,,,false,,,,,true,966992,966991,964171.2,964271.1000003815,964176.8,966912.8,1,40,,
trial,html.Screen,8_34_0,2024-03-04T20:33:48.562Z,,,,2,0.0365981355399771,0.0162670920008846,,0.04,true,hh,3182.6999999999534,response,1.1363600109870835,1.1915202233645137,-0.9748388732819944,1.295816345369928,1.1805596974655665,-1.15,high,high,,ISIC_0982855.JPG,,ISIC_0026141.JPG,28,26,false,0.15000000000000002,hh,keypress(i),0,true,970095.9000000954,970095.5,966895.9,966992.2000002861,966912.8,970015,1,40,35,
sequence,flow.Sequence,8_34,2024-03-04T20:33:48.562Z,,,,,,,,,,,3182.6999999999534,completion,,,,,,,high,high,,,,,,,false,,,,,true,970096.5,970095.5,966895.9,966992.1000003815,966912.8,970015,1,40,,
trial,html.Screen,8_35_0,2024-03-04T20:33:50.258Z,,,,2,-0.00126575685933,-0.0325046559638838,,0.04,false,ll,1776.8000001907349,response,-0.968277930473984,1.1660881781785057,-0.9748388732819944,-1.0901346674420178,1.1805596974655665,-1.15,low,low,,ISIC_5682259.JPG,,ISIC_0519386.JPG,28,32,false,0.1,lh,keypress(e),0,true,971792.2000002861,971791.8000001907,969998.6,970096.8000001907,970015,971699.8,1,40,36,
sequence,flow.Sequence,8_35,2024-03-04T20:33:50.259Z,,,,,,,,,,,1776.8000001907349,completion,,,,,,,low,low,,,,,,,false,,,,,true,971792.7000002861,971791.8000001907,969998.6,970096.7000002861,970015,971699.8,1,40,,
trial,html.Screen,8_36_0,2024-03-04T20:33:51.666Z,,,,2,-0.0071892445601978,0.0246015408628738,,0.04,false,ll,1499.8000003814232,response,-0.934130994804294,1.1660881781785057,-0.9248388732819943,-1.110086733022912,1.1805596974655665,-1.15,low,low,,ISIC_0014133.JPG,,ISIC_0053916.JPG,28,30,false,0.1,hh,keypress(i),0,true,973200,973199.6000003815,971699.306,971793.1000003815,971699.8,973117.7,1,40,37,
sequence,flow.Sequence,8_36,2024-03-04T20:33:51.666Z,,,,,,,,,,,1499.8000003814232,completion,,,,,,,low,low,,,,,,,false,,,,,true,973200.6000003815,973199.6000003815,971699.306,971792.9000000954,971699.8,973117.7,1,40,,
trial,html.Screen,8_37_0,2024-03-04T20:33:53.007Z,,,,2,-0.0050679133050021,-0.0174815595031679,,0.04,false,ll,1423.6000001907814,response,-0.9695913930841004,1.1660881781785057,-0.9748388732819944,-1.2261129408494682,1.1805596974655665,-1.15,low,low,,ISIC_9848743.JPG,,ISIC_0028086.JPG,28,32,false,0.1,hl,keypress(j),0,true,974541.4000000954,974541.3000001907,973101.2,973200.8000001907,973117.7,974451.92,1,40,38,
sequence,flow.Sequence,8_37,2024-03-04T20:33:53.007Z,,,,,,,,,,,1423.6000001907814,completion,,,,,,,low,low,,,,,,,false,,,,,true,974541.4000000954,974541.3000001907,973101.2,973200.7000002861,973117.7,974451.92,1,40,,
trial,html.Screen,8_38_0,2024-03-04T20:33:54.370Z,,,,2,-0.0057914759495055,0.018500200317654,,0.04,false,lh,1451.380000190693,response,-0.9670240379618178,1.1660881781785057,-1.0248388732819944,1.1806404773220665,1.1805596974655665,-1.15,low,high,,ISIC_0058723.JPG,,ISIC_0002288.JPG,28,28,false,0.2400000000000001,hl,keypress(j),0,true,975903.7000002861,975903.3000001907,974451.92,974541.5,974451.92,975819.8,1,40,39,
sequence,flow.Sequence,8_38,2024-03-04T20:33:54.370Z,,,,,,,,,,,1451.380000190693,completion,,,,,,,low,high,,,,,,,false,,,,,true,975904.3000001907,975903.3000001907,974451.92,974541.5,974451.92,975819.8,1,40,,
trial,html.Screen,8_39_0,2024-03-04T20:33:56.162Z,,,,2,-0.012020985739544,0.0126097407389903,,0.04,false,lh,1875.8000003814232,response,-0.9225524349657857,1.1660881781785057,-1.0748388732819945,0.929746784178986,1.1805596974655665,-1.15,low,high,,ISIC_0069379.JPG,,ISIC_0011077.JPG,28,27,false,0.2600000000000001,hl,keypress(j),0,true,977696,977695.6000003815,975819.652,975904.6000003815,975819.8,977604.7,1,40,40,
sequence,flow.Sequence,8_39,2024-03-04T20:33:56.162Z,,,,,,,,,,,1875.8000003814232,completion,,,,,,,low,high,,,,,,,false,,,,,true,977696.6000003815,977695.6000003815,975819.652,975904.4000000954,975819.8,977604.7,1,40,,
stair_loop,flow.Loop,8,2024-03-04T20:33:56.163Z,,,,,,,,,,,115836.60000038147,completion,,,,,,,,,,,,,,,false,,,,,true,977696.9000000954,977695.6000003815,861858.926,861949.4000000954,861859,977604.7,1,40,,
exp_instructions,html.Screen,9,2024-03-04T20:34:02.449Z,,,,,,,,,,,6377.400000381516,response,,,,,,,,,,,,,,,,,continue,keypress(Space),,,983983.4000000954,983982.1000003815,977604.036,977697.1000003815,977604.7,983893.2,,,,
trial,html.Screen,10_0_0,2024-03-04T20:34:04.544Z,,,,1,0.010035581303589,-0.0100711721396864,,0.04,false,ll,2185.000000286149,response,-1.0570280672376675,1.1614225433816683,-1.0424033239691963,-1.0932046580095067,1.138059697465566,-1.1499999999999997,low,low,,ISIC_0030592.JPG,9,ISIC_0061320.JPG,28,29,false,0.1,lh,keypress(e),0,false,986078.3000001907,986078.2000002861,983892.594,983983.9000000954,983893.2,985994.8,5,600,1,
break,html.Screen,10_0_1,2024-03-04T20:34:04.545Z,,,,,,,,,,,NaN,,,,,,,,low,low,,,,,,,false,,,,,false,986079,986078.9000000954,,986078.5,,985994.8,5,600,,
break_continue,html.Screen,10_0_2,2024-03-04T20:34:04.545Z,,,,,,,,,,,NaN,,,,,,,,low,low,,,,,,,false,,,,,false,986079.5,986079.3000001907,,986079.1000003815,,985994.8,5,600,,
sequence,flow.Sequence,10_0,2024-03-04T20:34:04.545Z,,,,,,,,,,,2186.1000001907814,completion,,,,,,,low,low,,,,,,,false,,,,,false,986079.6000003815,986079.3000001907,983892.594,983983.8000001907,983893.2,985994.8,5,600,,
trial,html.Screen,10_1_0,2024-03-04T20:34:05.986Z,,,,1,-0.0060918352854008,0.029032683404407,,0.04,false,hl,1524.6000000953209,response,1.11329866545753,1.1614225433816683,-1.0424033239691963,-1.2155631217348757,1.138059697465566,-1.1499999999999997,high,low,,ISIC_8436194.JPG,9,ISIC_0032610.JPG,28,30,false,0.3200000000000002,hh,keypress(i),0,false,987519.8000001907,987519.4000000954,985994.256,986079.6000003815,985994.8,987446.1,5,600,2,
break,html.Screen,10_1_1,2024-03-04T20:34:05.987Z,,,,,,,,,,,NaN,,,,,,,,high,low,,,,,,,false,,,,,false,987521.3000001907,987520.9000000954,,987520.2000002861,,987446.1,5,600,,
break_continue,html.Screen,10_1_2,2024-03-04T20:34:05.988Z,,,,,,,,,,,NaN,,,,,,,,high,low,,,,,,,false,,,,,false,987522.3000001907,987522,,987521.7000002861,,987446.1,5,600,,
sequence,flow.Sequence,10_1,2024-03-04T20:34:05.988Z,,,,,,,,,,,1527.1999999999534,completion,,,,,,,high,low,,,,,,,false,,,,,false,987522.6000003815,987522,985994.256,986079.6000003815,985994.8,987446.1,5,600,,
trial,html.Screen,10_2_0,2024-03-04T20:34:07.362Z,,,,1,0.0367218428225813,-0.0026956749740767,,0.04,true,hl,1449.4000000000233,response,0.9445114955578736,1.1614225433816683,-1.0424033239691963,-1.0054210059625863,1.138059697465566,-1.1499999999999997,high,low,,ISIC_7212271.JPG,9,ISIC_0033807.JPG,28,30,false,0.3200000000000002,hl,keypress(j),0,false,988895.9000000954,988895.5,987445.816,987522.8000001907,987446.1,988813.9,5,600,3,
break,html.Screen,10_2_1,2024-03-04T20:34:07.363Z,,,,,,,,,,,NaN,,,,,,,,high,low,,,,,,,false,,,,,false,988897.5,988897.1000003815,,988896.6000003815,,988813.9,5,600,,
break_continue,html.Screen,10_2_2,2024-03-04T20:34:07.364Z,,,,,,,,,,,NaN,,,,,,,,high,low,,,,,,,false,,,,,false,988898.4000000954,988898.1000003815,,988897.8000001907,,988813.9,5,600,,
sequence,flow.Sequence,10_2,2024-03-04T20:34:07.365Z,,,,,,,,,,,1452.000000381493,completion,,,,,,,high,low,,,,,,,false,,,,,false,988898.8000001907,988898.1000003815,987445.816,987522.8000001907,987446.1,988813.9,5,600,,
trial,html.Screen,10_3_0,2024-03-04T20:34:08.769Z,,,,1,-0.00126575685933,-0.0325046559638838,,0.04,false,ll,1489.4000001907116,response,-1.018568530854085,1.1614225433816683,-1.0424033239691963,-1.1850528225859975,1.138059697465566,-1.1499999999999997,low,low,,ISIC_5682259.JPG,8,ISIC_0057180.JPG,28,29,false,0.1,hh,keypress(i),0,false,990303.7000002861,990303.3000001907,988797.3,988899,988813.9,990215.1,5,600,4,
break,html.Screen,10_3_1,2024-03-04T20:34:08.771Z,,,,,,,,,,,NaN,,,,,,,,low,low,,,,,,,false,,,,,false,990305.1000003815,990304.7000002861,,990304.1000003815,,990215.1,5,600,,
break_continue,html.Screen,10_3_2,2024-03-04T20:34:08.772Z,,,,,,,,,,,NaN,,,,,,,,low,low,,,,,,,false,,,,,false,990306,990305.7000002861,,990305.4000000954,,990215.1,5,600,,
sequence,flow.Sequence,10_3,2024-03-04T20:34:08.772Z,,,,,,,,,,,1491.800000286079,completion,,,,,,,low,low,,,,,,,false,,,,,false,990306.3000001907,990305.7000002861,988797.3,988899,988813.9,990215.1,5,600,,
trial,html.Screen,10_4_0,2024-03-04T20:34:10.529Z,,,,1,-0.0057914759495055,0.018500200317654,,0.04,false,hh,1848.1000002861256,response,1.212030980680325,1.1614225433816683,-1.0424033239691963,1.139863018685685,1.138059697465566,-1.1499999999999997,high,high,,ISIC_0058723.JPG,9,ISIC_0008510.JPG,28,30,false,0.15000000000000002,hl,keypress(j),0,false,992063.6000003815,992063.2000002861,990214.784,990306.6000003815,990215.1,991983.2,5,600,5,
break,html.Screen,10_4_1,2024-03-04T20:34:10.531Z,,,,,,,,,,,NaN,,,,,,,,high,high,,,,,,,false,,,,,false,992065.1000003815,992064.7000002861,,992064,,991983.2,5,600,,
break_continue,html.Screen,10_4_2,2024-03-04T20:34:10.532Z,,,,,,,,,,,NaN,,,,,,,,high,high,,,,,,,false,,,,,false,992066.1000003815,992065.8000001907,,992065.4000000954,,991983.2,5,600,,
sequence,flow.Sequence,10_4,2024-03-04T20:34:10.532Z,,,,,,,,,,,1850.7000001907581,completion,,,,,,,high,high,,,,,,,false,,,,,false,992066.4000000954,992065.8000001907,990214.784,990306.6000003815,990215.1,991983.2,5,600,,
trial,html.Screen,10_5_0,2024-03-04T20:34:11.858Z,,,,1,-0.0377791839943904,0.0227626648172468,,0.04,false,hl,1408.3000000000466,response,1.0143509683988825,1.1614225433816683,-1.0424033239691963,-1.0281980567462463,1.138059697465566,-1.1499999999999997,high,low,,ISIC_7167479.JPG,9,ISIC_0062031.JPG,28,30,false,0.3200000000000002,hh,keypress(i),0,false,993391.9000000954,993391.5,991982.87,992066.7000002861,991983.2,993300.9,5,600,6,
break,html.Screen,10_5_1,2024-03-04T20:34:11.859Z,,,,,,,,,,,NaN,,,,,,,,high,low,,,,,,,false,,,,,false,993393.5,993393,,993392.4000000954,,993300.9,5,600,,
break_continue,html.Screen,10_5_2,2024-03-04T20:34:11.860Z,,,,,,,,,,,NaN,,,,,,,,high,low,,,,,,,false,,,,,false,993394.3000001907,993394,,993393.7000002861,,993300.9,5,600,,
sequence,flow.Sequence,10_5,2024-03-04T20:34:11.860Z,,,,,,,,,,,1410.8000000000466,completion,,,,,,,high,low,,,,,,,false,,,,,false,993394.6000003815,993394,991982.87,992066.6000003815,991983.2,993300.9,5,600,,
trial,html.Screen,10_6_0,2024-03-04T20:34:13.714Z,,,,1,-0.0023664502831079,-0.0252784582169994,,0.04,false,lh,1946.5000000953441,response,-0.9670240379618178,1.1614225433816683,-1.0424033239691963,1.1806404773220665,1.138059697465566,-1.1499999999999997,low,high,,ISIC_4156010.JPG,9,ISIC_0002288.JPG,28,27,false,0.2400000000000001,hh,keypress(i),0,false,995247.8000001907,995247.4000000954,993300.788,993394.8000001907,993300.9,995169.1,5,600,7,
break,html.Screen,10_6_1,2024-03-04T20:34:13.715Z,,,,,,,,,,,NaN,,,,,,,,low,high,,,,,,,false,,,,,false,995249.1000003815,995248.7000002861,,995248.1000003815,,995169.1,5,600,,
break_continue,html.Screen,10_6_2,2024-03-04T20:34:13.716Z,,,,,,,,,,,NaN,,,,,,,,low,high,,,,,,,false,,,,,false,995249.9000000954,995249.6000003815,,995249.3000001907,,995169.1,5,600,,
sequence,flow.Sequence,10_6,2024-03-04T20:34:13.716Z,,,,,,,,,,,1948.7000003814464,completion,,,,,,,low,high,,,,,,,false,,,,,false,995250.3000001907,995249.6000003815,993300.788,993394.8000001907,993300.9,995169.1,5,600,,
trial,html.Screen,10_7_0,2024-03-04T20:34:15.874Z,,,,1,0.0199897690678184,0.0312486875504497,,0.04,false,lh,2238.500000381493,response,-1.1592423187534993,1.1614225433816683,-1.0424033239691963,1.067128884093211,1.138059697465566,-1.1499999999999997,low,high,,ISIC_5482426.JPG,9,ISIC_6854940.JPG,28,27,false,0.2400000000000001,hh,keypress(i),0,false,997408,997407.6000003815,995168.666,995250.5,995169.1,997337.7,5,600,8,
break,html.Screen,10_7_1,2024-03-04T20:34:15.875Z,,,,,,,,,,,NaN,,,,,,,,low,high,,,,,,,false,,,,,false,997409.3000001907,997409,,997408.4000000954,,997337.7,5,600,,
break_continue,html.Screen,10_7_2,2024-03-04T20:34:15.876Z,,,,,,,,,,,NaN,,,,,,,,low,high,,,,,,,false,,,,,false,997410,997409.7000002861,,997409.5,,997337.7,5,600,,
sequence,flow.Sequence,10_7,2024-03-04T20:34:15.876Z,,,,,,,,,,,2240.6000002861256,completion,,,,,,,low,high,,,,,,,false,,,,,false,997410.3000001907,997409.7000002861,995168.666,995250.4000000954,995169.1,997337.7,5,600,,
trial,html.Screen,10_8_0,2024-03-04T20:34:17.298Z,,,,1,0.0051046740562181,-0.0178832721027728,,0.04,false,ll,1493.700000095414,response,-1.02958055269592,1.1614225433816683,-1.0424033239691963,-1.159278377691306,1.138059697465566,-1.1499999999999997,low,low,,ISIC_9545819.JPG,9,ISIC_0027190.JPG,28,29,false,0.1,lh,keypress(e),0,false,998831.8000001907,998831.4000000954,997321.2,997410.5,997337.7,998755.3,5,600,9,
break,html.Screen,10_8_1,2024-03-04T20:34:17.299Z,,,,,,,,,,,NaN,,,,,,,,low,low,,,,,,,false,,,,,false,998833,998832.8000001907,,998832.1000003815,,998755.3,5,600,,
break_continue,html.Screen,10_8_2,2024-03-04T20:34:17.300Z,,,,,,,,,,,NaN,,,,,,,,low,low,,,,,,,false,,,,,false,998833.8000001907,998833.6000003815,,998833.3000001907,,998755.3,5,600,,
sequence,flow.Sequence,10_8,2024-03-04T20:34:17.300Z,,,,,,,,,,,1495.9000003815163,completion,,,,,,,low,low,,,,,,,false,,,,,false,998834.2000002861,998833.6000003815,997321.2,997410.5,997337.7,998755.3,5,600,,
trial,html.Screen,10_9_0,2024-03-04T20:34:21.890Z,,,,1,-0.012810673904807,0.00400964452501,,0.04,true,hl,4668.100000095321,response,0.8591294258188253,1.1614225433816683,-1.0424033239691963,-0.870797302150167,1.138059697465566,-1.1499999999999997,high,low,,ISIC_0064656.JPG,9,ISIC_0055841.JPG,28,30,false,0.3200000000000002,hl,keypress(j),0,false,1003423.8000001907,1003423.4000000954,998738.8,998834.4000000954,998755.3,1003342.9,5,600,10,
break,html.Screen,10_9_1,2024-03-04T20:34:21.891Z,,,,,,,,,,,NaN,,,,,,,,high,low,,,,,,,false,,,,,false,1003425.4000000954,1003424.9000000954,,1003424.2000002861,,1003342.9,5,600,,
break_continue,html.Screen,10_9_2,2024-03-04T20:34:21.892Z,,,,,,,,,,,NaN,,,,,,,,high,low,,,,,,,false,,,,,false,1003426.2000002861,1003425.9000000954,,1003425.6000003815,,1003342.9,5,600,,
sequence,flow.Sequence,10_9,2024-03-04T20:34:21.892Z,,,,,,,,,,,4670.600000095321,completion,,,,,,,high,low,,,,,,,false,,,,,false,1003426.5,1003425.9000000954,998738.8,998834.4000000954,998755.3,1003342.9,5,600,,
trial,html.Screen,10_10_0,2024-03-04T20:34:23.490Z,,,,1,-0.0399381815506136,-0.0177751789152893,,0.04,false,ll,1696.5999999999767,response,-1.0011647073734584,1.1614225433816683,-1.0424033239691963,-1.090690958018423,1.138059697465566,-1.1499999999999997,low,low,,ISIC_3981425.JPG,8,ISIC_0021901.JPG,28,29,false,0.1,lh,keypress(e),0,false,1005039.9000000954,1005039.5,1003326,1003426.7000002861,1003342.9,1004960.5,5,600,11,
break,html.Screen,10_10_1,2024-03-04T20:34:23.491Z,,,,,,,,,,,NaN,,,,,,,,low,low,,,,,,,false,,,,,false,1005041.3000001907,1005041,,1005040.4000000954,,1004960.5,5,600,,
break_continue,html.Screen,10_10_2,2024-03-04T20:34:23.492Z,,,,,,,,,,,NaN,,,,,,,,low,low,,,,,,,false,,,,,false,1005042.2000002861,1005041.9000000954,,1005041.6000003815,,1004960.5,5,600,,
sequence,flow.Sequence,10_10,2024-03-04T20:34:23.492Z,,,,,,,,,,,1699.0000000953441,completion,,,,,,,low,low,,,,,,,false,,,,,false,1005042.5,1005041.9000000954,1003326,1003426.6000003815,1003342.9,1004960.5,5,600,,
trial,html.Screen,10_11_0,2024-03-04T20:34:25.279Z,,,,1,0.010035581303589,-0.0100711721396864,,0.04,false,lh,1869,response,-0.8787496315223856,1.1614225433816683,-1.0424033239691963,1.3680901203013998,1.138059697465566,-1.1499999999999997,low,high,,ISIC_0030592.JPG,9,ISIC_0023811.JPG,28,27,false,0.2400000000000001,hl,keypress(j),0,false,1006829.7000002861,1006829.5,1004960.398,1005042.7000002861,1004960.5,1006745.2,5,600,12,
break,html.Screen,10_11_1,2024-03-04T20:34:25.280Z,,,,,,,,,,,NaN,,,,,,,,low,high,,,,,,,false,,,,,false,1006830.1000003815,1006830.1000003815,,1006829.8000001907,,1006745.2,5,600,,
break_continue,html.Screen,10_11_2,2024-03-04T20:34:25.280Z,,,,,,,,,,,NaN,,,,,,,,low,high,,,,,,,false,,,,,false,1006830.5,1006830.3000001907,,1006830.2000002861,,1006745.2,5,600,,
sequence,flow.Sequence,10_11,2024-03-04T20:34:25.280Z,,,,,,,,,,,1869.8000001907349,completion,,,,,,,low,high,,,,,,,false,,,,,false,1006830.5,1006830.3000001907,1004960.398,1005042.7000002861,1004960.5,1006745.2,5,600,,
trial,html.Screen,10_12_0,2024-03-04T20:34:28.673Z,,,,1,-0.0060918352854008,0.029032683404407,,0.04,false,ll,3477.8000000000466,response,-0.9908688855899804,1.1614225433816683,-1.0424033239691963,-1.1838250548520497,1.138059697465566,-1.1499999999999997,low,low,,ISIC_8436194.JPG,9,ISIC_0031208.JPG,28,29,false,0.1,lh,keypress(e),0,false,1010223.2000002861,1010223,1006728.9,1006830.6000003815,1006745.2,1010148.1,5,600,13,
break,html.Screen,10_12_1,2024-03-04T20:34:28.674Z,,,,,,,,,,,NaN,,,,,,,,low,low,,,,,,,false,,,,,false,1010224.4000000954,1010224.1000003815,,1010223.7000002861,,1010148.1,5,600,,
break_continue,html.Screen,10_12_2,2024-03-04T20:34:28.675Z,,,,,,,,,,,NaN,,,,,,,,low,low,,,,,,,false,,,,,false,1010225.1000003815,1010224.9000000954,,1010224.6000003815,,1010148.1,5,600,,
sequence,flow.Sequence,10_12,2024-03-04T20:34:28.675Z,,,,,,,,,,,3479.700000095414,completion,,,,,,,low,low,,,,,,,false,,,,,false,1010225.3000001907,1010224.9000000954,1006728.9,1006830.6000003815,1006745.2,1010148.1,5,600,,
trial,html.Screen,10_13_0,2024-03-04T20:34:30.098Z,,,,1,-0.0399381815506136,-0.0177751789152893,,0.04,true,hl,1499.4000000000233,response,0.8534691366511764,1.1614225433816683,-1.0424033239691963,-1.276663727068437,1.138059697465566,-1.1499999999999997,high,low,,ISIC_3981425.JPG,10,ISIC_0056788.JPG,28,30,false,0.3200000000000002,hl,keypress(j),0,false,1011647.9000000954,1011647.5,1010147.11,1010225.4000000954,1010148.1,1011566,5,600,14,
break,html.Screen,10_13_1,2024-03-04T20:34:30.099Z,,,,,,,,,,,NaN,,,,,,,,high,low,,,,,,,false,,,,,false,1011649.6000003815,1011649,,1011648.4000000954,,1011566,5,600,,
break_continue,html.Screen,10_13_2,2024-03-04T20:34:30.100Z,,,,,,,,,,,NaN,,,,,,,,high,low,,,,,,,false,,,,,false,1011650.6000003815,1011650.3000001907,,1011649.9000000954,,1011566,5,600,,
sequence,flow.Sequence,10_13,2024-03-04T20:34:30.101Z,,,,,,,,,,,1502.2000001907581,completion,,,,,,,high,low,,,,,,,false,,,,,false,1011650.9000000954,1011650.3000001907,1010147.11,1010225.4000000954,1010148.1,1011566,5,600,,
trial,html.Screen,10_14_0,2024-03-04T20:34:31.474Z,,,,1,-0.0399381815506136,-0.0177751789152893,,0.04,true,ll,1457.6000003814697,response,-0.9695913930841004,1.1614225433816683,-1.0424033239691963,-1.2261129408494682,1.138059697465566,-1.1499999999999997,low,low,,ISIC_3981425.JPG,9,ISIC_0028086.JPG,28,29,false,0.1,ll,keypress(f),0,false,1013024.1000003815,1013023.6000003815,1011565.75,1011651.2000002861,1011566,1012933.7,5,600,15,
break,html.Screen,10_14_1,2024-03-04T20:34:31.475Z,,,,,,,,,,,NaN,,,,,,,,low,low,,,,,,,false,,,,,false,1013025.7000002861,1013025.2000002861,,1013024.6000003815,,1012933.7,5,600,,
break_continue,html.Screen,10_14_2,2024-03-04T20:34:31.476Z,,,,,,,,,,,NaN,,,,,,,,low,low,,,,,,,false,,,,,false,1013026.5,1013026.3000001907,,1013025.9000000954,,1012933.7,5,600,,
sequence,flow.Sequence,10_14,2024-03-04T20:34:31.476Z,,,,,,,,,,,1460.3000001907349,completion,,,,,,,low,low,,,,,,,false,,,,,false,1013026.7000002861,1013026.3000001907,1011565.75,1011651.1000003815,1011566,1012933.7,5,600,,
trial,html.Screen,10_15_0,2024-03-04T20:34:32.690Z,,,,1,0.0051046740562181,-0.0178832721027728,,0.04,false,ll,1305.8000000000466,response,-0.968277930473984,1.1614225433816683,-1.0424033239691963,-1.0901346674420178,1.138059697465566,-1.1499999999999997,low,low,,ISIC_9545819.JPG,9,ISIC_0519386.JPG,28,29,false,0.1,hl,keypress(j),0,false,1014239.9000000954,1014239.5,1012933.652,1013027,1012933.7,1014151.5,5,600,16,
break,html.Screen,10_15_1,2024-03-04T20:34:32.691Z,,,,,,,,,,,NaN,,,,,,,,low,low,,,,,,,false,,,,,false,1014241.7000002861,1014241.2000002861,,1014240.5,,1014151.5,5,600,,
break_continue,html.Screen,10_15_2,2024-03-04T20:34:32.692Z,,,,,,,,,,,NaN,,,,,,,,low,low,,,,,,,false,,,,,false,1014242.6000003815,1014242.3000001907,,1014242,,1014151.5,5,600,,
sequence,flow.Sequence,10_15,2024-03-04T20:34:32.692Z,,,,,,,,,,,1308.6000001907814,completion,,,,,,,low,low,,,,,,,false,,,,,false,1014242.9000000954,1014242.3000001907,1012933.652,1013026.9000000954,1012933.7,1014151.5,5,600,,
trial,html.Screen,10_16_0,2024-03-04T20:34:33.954Z,,,,1,-0.0158987717472563,-0.0292472192292015,,0.04,false,lh,1351.9000000953674,response,-1.2609895831255231,1.1614225433816683,-1.0424033239691963,1.0687377724194886,1.138059697465566,-1.1499999999999997,low,high,,ISIC_1366765.JPG,9,ISIC_1367610.JPG,28,27,false,0.2400000000000001,hh,keypress(i),0,false,1015503.9000000954,1015503.4000000954,1014151.458,1014242.9000000954,1014151.5,1015435.956,5,600,17,
break,html.Screen,10_16_1,2024-03-04T20:34:33.955Z,,,,,,,,,,,NaN,,,,,,,,low,high,,,,,,,false,,,,,false,1015505.3000001907,1015505,,1015504.3000001907,,1015435.956,5,600,,
break_continue,html.Screen,10_16_2,2024-03-04T20:34:33.956Z,,,,,,,,,,,NaN,,,,,,,,low,high,,,,,,,false,,,,,false,1015506.1000003815,1015505.8000001907,,1015505.5,,1015435.956,5,600,,
sequence,flow.Sequence,10_16,2024-03-04T20:34:33.956Z,,,,,,,,,,,1354.3000001907349,completion,,,,,,,low,high,,,,,,,false,,,,,false,1015506.4000000954,1015505.8000001907,1014151.458,1014242.9000000954,1014151.5,1015435.956,5,600,,
trial,html.Screen,10_17_0,2024-03-04T20:34:35.376Z,,,,1,0.0367218428225813,-0.0026956749740767,,0.04,true,hl,1489.8440001907293,response,0.8534691366511764,1.1614225433816683,-1.0424033239691963,-1.276663727068437,1.138059697465566,-1.1499999999999997,high,low,,ISIC_7212271.JPG,9,ISIC_0056788.JPG,28,30,false,0.3200000000000002,hl,keypress(j),0,false,1016925.9000000954,1016925.8000001907,1015435.956,1015506.6000003815,1015435.956,1016837.162,5,600,18,
break,html.Screen,10_17_1,2024-03-04T20:34:35.376Z,,,,,,,,,,,NaN,,,,,,,,high,low,,,,,,,false,,,,,false,1016926.3000001907,1016926.2000002861,,1016926.1000003815,,1016837.162,5,600,,
break_continue,html.Screen,10_17_2,2024-03-04T20:34:35.376Z,,,,,,,,,,,NaN,,,,,,,,high,low,,,,,,,false,,,,,false,1016926.5,1016926.5,,1016926.4000000954,,1016837.162,5,600,,
sequence,flow.Sequence,10_17,2024-03-04T20:34:35.376Z,,,,,,,,,,,1490.5439999999944,completion,,,,,,,high,low,,,,,,,false,,,,,false,1016926.5,1016926.5,1015435.956,1015506.5,1015435.956,1016837.162,5,600,,
trial,html.Screen,10_18_0,2024-03-04T20:34:37.267Z,,,,1,0.0365981355399771,0.0162670920008846,,0.04,false,hl,1979.3379999999888,response,1.00615481805876,1.1614225433816683,-1.0424033239691963,-0.8428903771195875,1.138059697465566,-1.1499999999999997,high,low,,ISIC_0982855.JPG,9,ISIC_0069970.JPG,28,30,false,0.3200000000000002,ll,keypress(f),0,false,1018816.8000001907,1018816.5,1016837.162,1016926.6000003815,1016837.162,1018738.5,5,600,19,
break,html.Screen,10_18_1,2024-03-04T20:34:37.268Z,,,,,,,,,,,NaN,,,,,,,,high,low,,,,,,,false,,,,,false,1018818.1000003815,1018817.8000001907,,1018817.3000001907,,1018738.5,5,600,,
break_continue,html.Screen,10_18_2,2024-03-04T20:34:37.268Z,,,,,,,,,,,NaN,,,,,,,,high,low,,,,,,,false,,,,,false,1018818.7000002861,1018818.6000003815,,1018818.4000000954,,1018738.5,5,600,,
sequence,flow.Sequence,10_18,2024-03-04T20:34:37.268Z,,,,,,,,,,,1981.4380003814586,completion,,,,,,,high,low,,,,,,,false,,,,,false,1018818.8000001907,1018818.6000003815,1016837.162,1016926.6000003815,1016837.162,1018738.5,5,600,,
trial,html.Screen,10_19_0,2024-03-04T20:34:38.482Z,,,,1,-0.012810673904807,0.00400964452501,,0.04,false,hl,1292.9000000953674,response,1.064425982109969,1.1614225433816683,-1.0424033239691963,-0.958564243697126,1.138059697465566,-1.1499999999999997,high,low,,ISIC_0064656.JPG,9,ISIC_3203344.JPG,28,30,false,0.3200000000000002,lh,keypress(e),0,false,1020031.8000001907,1020031.4000000954,1018738.164,1018818.8000001907,1018738.5,1019939.798,5,600,20,
break,html.Screen,10_19_1,2024-03-04T20:34:38.483Z,,,,,,,,,,,NaN,,,,,,,,high,low,,,,,,,false,,,,,false,1020033.4000000954,1020033,,1020032.3000001907,,1019939.798,5,600,,
break_continue,html.Screen,10_19_2,2024-03-04T20:34:38.484Z,,,,,,,,,,,NaN,,,,,,,,high,low,,,,,,,false,,,,,false,1020034.2000002861,1020033.9000000954,,1020033.6000003815,,1019939.798,5,600,,
sequence,flow.Sequence,10_19,2024-03-04T20:34:38.484Z,,,,,,,,,,,1295.4000000953674,completion,,,,,,,high,low,,,,,,,false,,,,,false,1020034.5,1020033.9000000954,1018738.164,1018818.8000001907,1018738.5,1019939.798,5,600,,
trial,html.Screen,10_20_0,2024-03-04T20:34:39.504Z,,,,1,-0.0350697500805515,-0.0166617848231997,,0.04,false,hh,1114.2020000000484,response,1.1638334638021437,1.1614225433816683,-1.0424033239691963,1.0846635401396965,1.138059697465566,-1.1499999999999997,high,high,,ISIC_0024423.JPG,9,ISIC_4718313.JPG,28,30,false,0.15000000000000002,ll,keypress(f),0,false,1021054.1000003815,1021054,1019939.798,1020034.8000001907,1019939.798,1020990.8,5,600,21,
break,html.Screen,10_20_1,2024-03-04T20:34:39.504Z,,,,,,,,,,,NaN,,,,,,,,high,high,,,,,,,false,,,,,false,1021054.7000002861,1021054.6000003815,,1021054.4000000954,,1020990.8,5,600,,
break_continue,html.Screen,10_20_2,2024-03-04T20:34:39.505Z,,,,,,,,,,,NaN,,,,,,,,high,high,,,,,,,false,,,,,false,1021054.9000000954,1021054.8000001907,,1021054.7000002861,,1020990.8,5,600,,
sequence,flow.Sequence,10_20,2024-03-04T20:34:39.505Z,,,,,,,,,,,1115.0020001907833,completion,,,,,,,high,high,,,,,,,false,,,,,false,1021055,1021054.8000001907,1019939.798,1020034.7000002861,1019939.798,1020990.8,5,600,,
trial,html.Screen,10_21_0,2024-03-04T20:34:42.225Z,,,,1,-0.0060934073440827,-0.0279108145883031,,0.04,false,ll,2783.9000002860557,response,-1.0048859018073242,1.1614225433816683,-1.0424033239691963,-1.0825120442937108,1.138059697465566,-1.1499999999999997,low,low,,ISIC_0032604.JPG,9,ISIC_0068080.JPG,28,29,false,0.1,hh,keypress(i),0,false,1023774.9000000954,1023774.7000002861,1020974.1,1021055.2000002861,1020990.8,1023692.6,5,600,22,
break,html.Screen,10_21_1,2024-03-04T20:34:42.225Z,,,,,,,,,,,NaN,,,,,,,,low,low,,,,,,,false,,,,,false,1023775.7000002861,1023775.5,,1023775.2000002861,,1023692.6,5,600,,
break_continue,html.Screen,10_21_2,2024-03-04T20:34:42.226Z,,,,,,,,,,,NaN,,,,,,,,low,low,,,,,,,false,,,,,false,1023776.1000003815,1023776,,1023775.8000001907,,1023692.6,5,600,,
sequence,flow.Sequence,10_21,2024-03-04T20:34:42.226Z,,,,,,,,,,,2785.1999999999534,completion,,,,,,,low,low,,,,,,,false,,,,,false,1023776.3000001907,1023776,1020974.1,1021055.1000003815,1020990.8,1023692.6,5,600,,
trial,html.Screen,10_22_0,2024-03-04T20:34:43.921Z,,,,1,-0.0023664502831079,-0.0252784582169994,,0.04,false,ll,1778.1000002861256,response,-1.0570280672376675,1.1614225433816683,-1.0424033239691963,-1.0932046580095067,1.138059697465566,-1.1499999999999997,low,low,,ISIC_4156010.JPG,8,ISIC_0061320.JPG,28,29,false,0.1,hl,keypress(j),0,false,1025471,1025470.7000002861,1023676.3,1023776.4000000954,1023692.6,1025394.1,5,600,23,
break,html.Screen,10_22_1,2024-03-04T20:34:43.921Z,,,,,,,,,,,NaN,,,,,,,,low,low,,,,,,,false,,,,,false,1025471.8000001907,1025471.6000003815,,1025471.3000001907,,1025394.1,5,600,,
break_continue,html.Screen,10_22_2,2024-03-04T20:34:43.922Z,,,,,,,,,,,NaN,,,,,,,,low,low,,,,,,,false,,,,,false,1025472.3000001907,1025472.1000003815,,1025471.9000000954,,1025394.1,5,600,,
sequence,flow.Sequence,10_22,2024-03-04T20:34:43.922Z,,,,,,,,,,,1779.500000381493,completion,,,,,,,low,low,,,,,,,false,,,,,false,1025472.4000000954,1025472.1000003815,1023676.3,1023776.3000001907,1023692.6,1025394.1,5,600,,
trial,html.Screen,10_23_0,2024-03-04T20:34:45.970Z,,,,1,-0.0050679133050021,-0.0174815595031679,,0.04,false,lh,2125.500000381493,response,-1.2609895831255231,1.1614225433816683,-1.0424033239691963,1.0687377724194886,1.138059697465566,-1.1499999999999997,low,high,,ISIC_9848743.JPG,9,ISIC_1367610.JPG,28,27,false,0.2400000000000001,hl,keypress(j),0,false,1027520,1027519.6000003815,1025377.4,1025472.5,1025394.1,1027445.8,5,600,24,
break,html.Screen,10_23_1,2024-03-04T20:34:45.971Z,,,,,,,,,,,NaN,,,,,,,,low,high,,,,,,,false,,,,,false,1027521.5,1027521.1000003815,,1027520.4000000954,,1027445.8,5,600,,
break_continue,html.Screen,10_23_2,2024-03-04T20:34:45.972Z,,,,,,,,,,,NaN,,,,,,,,low,high,,,,,,,false,,,,,false,1027522.4000000954,1027522.1000003815,,1027521.8000001907,,1027445.8,5,600,,
sequence,flow.Sequence,10_23,2024-03-04T20:34:45.972Z,,,,,,,,,,,2128.000000381493,completion,,,,,,,low,high,,,,,,,false,,,,,false,1027522.8000001907,1027522.1000003815,1025377.4,1025472.5,1025394.1,1027445.8,5,600,,
trial,html.Screen,10_24_0,2024-03-04T20:34:47.794Z,,,,1,-0.012020985739544,0.0126097407389903,,0.04,false,hh,1897.6999999999534,response,1.0581281450494728,1.1614225433816683,-1.0424033239691963,1.133169116569424,1.138059697465566,-1.1499999999999997,high,high,,ISIC_0069379.JPG,10,ISIC_5490352.JPG,28,30,false,0.15000000000000002,hl,keypress(j),0,false,1029344,1029343.5,1027445.042,1027523,1027445.8,1029263.9,5,600,25,
break,html.Screen,10_24_1,2024-03-04T20:34:47.795Z,,,,,,,,,,,NaN,,,,,,,,high,high,,,,,,,false,,,,,false,1029345.4000000954,1029345.1000003815,,1029344.4000000954,,1029263.9,5,600,,
break_continue,html.Screen,10_24_2,2024-03-04T20:34:47.796Z,,,,,,,,,,,NaN,,,,,,,,high,high,,,,,,,false,,,,,false,1029346.3000001907,1029346,,1029345.6000003815,,1029263.9,5,600,,
sequence,flow.Sequence,10_24,2024-03-04T20:34:47.796Z,,,,,,,,,,,1900.1999999999534,completion,,,,,,,high,high,,,,,,,false,,,,,false,1029346.6000003815,1029346,1027445.042,1027523,1027445.8,1029263.9,5,600,,
trial,html.Screen,10_25_0,2024-03-04T20:34:49.090Z,,,,1,0.0327772618698018,-0.0056908372048728,,0.04,false,hl,1376.0000000953441,response,0.9385447468573198,1.1614225433816683,-1.0424033239691963,-1.2289860846064424,1.138059697465566,-1.1499999999999997,high,low,,ISIC_7897925.JPG,9,ISIC_0032780.JPG,28,30,false,0.3200000000000002,hh,keypress(i),0,false,1030640.3000001907,1030639.9000000954,1029263.678,1029346.8000001907,1029263.9,1030548.356,5,600,26,
break,html.Screen,10_25_1,2024-03-04T20:34:49.091Z,,,,,,,,,,,NaN,,,,,,,,high,low,,,,,,,false,,,,,false,1030641.7000002861,1030641.4000000954,,1030640.8000001907,,1030548.356,5,600,,
break_continue,html.Screen,10_25_2,2024-03-04T20:34:49.092Z,,,,,,,,,,,NaN,,,,,,,,high,low,,,,,,,false,,,,,false,1030642.6000003815,1030642.2000002861,,1030642,,1030548.356,5,600,,
sequence,flow.Sequence,10_25,2024-03-04T20:34:49.093Z,,,,,,,,,,,1378.300000286079,completion,,,,,,,high,low,,,,,,,false,,,,,false,1030642.9000000954,1030642.2000002861,1029263.678,1029346.8000001907,1029263.9,1030548.356,5,600,,
trial,html.Screen,10_26_0,2024-03-04T20:34:51.011Z,,,,1,0.0361875505619981,-0.0291457404567876,,0.04,false,hh,2012.1439999999711,response,1.2254777618346506,1.1614225433816683,-1.0424033239691963,1.0356416330964822,1.138059697465566,-1.1499999999999997,high,high,,ISIC_0027480.JPG,8,ISIC_1054090.JPG,28,30,false,0.15000000000000002,lh,keypress(e),0,false,1032561,1032560.5,1030548.356,1030643.1000003815,1030548.356,1032483.8,5,600,27,
break,html.Screen,10_26_1,2024-03-04T20:34:51.012Z,,,,,,,,,,,NaN,,,,,,,,high,high,,,,,,,false,,,,,false,1032562.5,1032562.1000003815,,1032561.4000000954,,1032483.8,5,600,,
break_continue,html.Screen,10_26_2,2024-03-04T20:34:51.012Z,,,,,,,,,,,NaN,,,,,,,,high,high,,,,,,,false,,,,,false,1032562.7000002861,1032562.7000002861,,1032562.6000003815,,1032483.8,5,600,,
sequence,flow.Sequence,10_26,2024-03-04T20:34:51.012Z,,,,,,,,,,,2014.3440002860734,completion,,,,,,,high,high,,,,,,,false,,,,,false,1032562.8000001907,1032562.7000002861,1030548.356,1030643.1000003815,1030548.356,1032483.8,5,600,,
trial,html.Screen,10_27_0,2024-03-04T20:34:52.738Z,,,,1,-0.0350697500805515,-0.0166617848231997,,0.04,false,ll,1804.0000001906883,response,-0.9523083243343244,1.1614225433816683,-1.0424033239691963,-1.2310746473558634,1.138059697465566,-1.1499999999999997,low,low,,ISIC_0024423.JPG,9,ISIC_0060773.JPG,28,29,false,0.1,hh,keypress(i),0,false,1034288.3000001907,1034287.8000001907,1032466.064,1032562.9000000954,1032483.8,1034218,5,600,28,
break,html.Screen,10_27_1,2024-03-04T20:34:52.739Z,,,,,,,,,,,NaN,,,,,,,,low,low,,,,,,,false,,,,,false,1034289.8000001907,1034289.4000000954,,1034288.7000002861,,1034218,5,600,,
break_continue,html.Screen,10_27_2,2024-03-04T20:34:52.740Z,,,,,,,,,,,NaN,,,,,,,,low,low,,,,,,,false,,,,,false,1034290.8000001907,1034290.4000000954,,1034290.1000003815,,1034218,5,600,,
sequence,flow.Sequence,10_27,2024-03-04T20:34:52.741Z,,,,,,,,,,,1806.6000000953209,completion,,,,,,,low,low,,,,,,,false,,,,,false,1034291.1000003815,1034290.4000000954,1032466.064,1032562.8000001907,1032483.8,1034218,5,600,,
trial,html.Screen,10_28_0,2024-03-04T20:34:54.642Z,,,,1,-0.0023664502831079,-0.0252784582169994,,0.04,false,hl,1974.1000003814697,response,0.9385447468573198,1.1614225433816683,-1.0424033239691963,-1.2289860846064424,1.138059697465566,-1.1499999999999997,high,low,,ISIC_4156010.JPG,8,ISIC_0032780.JPG,28,30,false,0.3200000000000002,hh,keypress(i),0,false,1036192.6000003815,1036192.1000003815,1034201.012,1034291.3000001907,1034218,1036102.9,5,600,29,
break,html.Screen,10_28_1,2024-03-04T20:34:54.644Z,,,,,,,,,,,NaN,,,,,,,,high,low,,,,,,,false,,,,,false,1036194,1036193.6000003815,,1036193,,1036102.9,5,600,,
break_continue,html.Screen,10_28_2,2024-03-04T20:34:54.644Z,,,,,,,,,,,NaN,,,,,,,,high,low,,,,,,,false,,,,,false,1036194.8000001907,1036194.5,,1036194.2000002861,,1036102.9,5,600,,
sequence,flow.Sequence,10_28,2024-03-04T20:34:54.645Z,,,,,,,,,,,1976.5,completion,,,,,,,high,low,,,,,,,false,,,,,false,1036195,1036194.5,1034201.012,1034291.3000001907,1034218,1036102.9,5,600,,
trial,html.Screen,10_29_0,2024-03-04T20:34:56.450Z,,,,1,-0.0166849894750452,0.0371614812368835,,0.04,false,hh,1896.800000286079,response,1.1642596483638106,1.1614225433816683,-1.0424033239691963,1.091507924157762,1.138059697465566,-1.1499999999999997,high,high,,ISIC_6231450.JPG,8,ISIC_0765584.JPG,28,30,false,0.15000000000000002,lh,keypress(e),0,false,1038000.2000002861,1037999.7000002861,1036102.504,1036195.3000001907,1036102.9,1037921.1,5,600,30,
break,html.Screen,10_29_1,2024-03-04T20:34:56.451Z,,,,,,,,,,,NaN,,,,,,,,high,high,,,,,,,false,,,,,false,1038001.6000003815,1038001.2000002861,,1038000.6000003815,,1037921.1,5,600,,
break_continue,html.Screen,10_29_2,2024-03-04T20:34:56.452Z,,,,,,,,,,,NaN,,,,,,,,high,high,,,,,,,false,,,,,false,1038002.4000000954,1038002.2000002861,,1038001.8000001907,,1037921.1,5,600,,
sequence,flow.Sequence,10_29,2024-03-04T20:34:56.452Z,,,,,,,,,,,1899.300000286079,completion,,,,,,,high,high,,,,,,,false,,,,,false,1038002.8000001907,1038002.2000002861,1036102.504,1036195.2000002861,1036102.9,1037921.1,5,600,,
trial,html.Screen,10_30_0,2024-03-04T20:34:58.434Z,,,,1,0.0189295602385628,0.0128812415435153,,0.04,false,lh,2062.9000000000233,response,-1.2043484010107477,1.1614225433816683,-1.0424033239691963,1.2178113180138233,1.138059697465566,-1.1499999999999997,low,high,,ISIC_0010372.JPG,9,ISIC_0011917.JPG,28,27,false,0.2400000000000001,hh,keypress(i),0,false,1039984.4000000954,1039984,1037920.68,1038003,1037921.1,1039922.8,5,600,31,
break,html.Screen,10_30_1,2024-03-04T20:34:58.436Z,,,,,,,,,,,NaN,,,,,,,,low,high,,,,,,,false,,,,,false,1039986.1000003815,1039985.6000003815,,1039985,,1039922.8,5,600,,
break_continue,html.Screen,10_30_2,2024-03-04T20:34:58.437Z,,,,,,,,,,,NaN,,,,,,,,low,high,,,,,,,false,,,,,false,1039987,1039986.7000002861,,1039986.3000001907,,1039922.8,5,600,,
sequence,flow.Sequence,10_30,2024-03-04T20:34:58.437Z,,,,,,,,,,,2065.6000002861256,completion,,,,,,,low,high,,,,,,,false,,,,,false,1039987.3000001907,1039986.7000002861,1037920.68,1038003,1037921.1,1039922.8,5,600,,
trial,html.Screen,10_31_0,2024-03-04T20:35:00.193Z,,,,1,-0.0377791839943904,0.0227626648172468,,0.04,false,lh,1820.6000000953209,response,-0.9670240379618178,1.1614225433816683,-1.0424033239691963,1.1806404773220665,1.138059697465566,-1.1499999999999997,low,high,,ISIC_7167479.JPG,8,ISIC_0002288.JPG,28,27,false,0.2400000000000001,hh,keypress(i),0,false,1041743.6000003815,1041743.4000000954,1039906,1039987.6000003815,1039922.8,1041657.4,5,600,32,
break,html.Screen,10_31_1,2024-03-04T20:35:00.194Z,,,,,,,,,,,NaN,,,,,,,,low,high,,,,,,,false,,,,,false,1041744.6000003815,1041744.4000000954,,1041744,,1041657.4,5,600,,
break_continue,html.Screen,10_31_2,2024-03-04T20:35:00.195Z,,,,,,,,,,,NaN,,,,,,,,low,high,,,,,,,false,,,,,false,1041744.9000000954,1041744.8000001907,,1041744.7000002861,,1041657.4,5,600,,
sequence,flow.Sequence,10_31,2024-03-04T20:35:00.195Z,,,,,,,,,,,1822.0000001906883,completion,,,,,,,low,high,,,,,,,false,,,,,false,1041745.2000002861,1041744.8000001907,1039906,1039987.5,1039922.8,1041657.4,5,600,,
trial,html.Screen,10_32_0,2024-03-04T20:35:02.047Z,,,,1,0.0086413421586899,0.0360184993500958,,0.04,true,hl,1939.800000286079,response,1.0143509683988825,1.1614225433816683,-1.0424033239691963,-1.0281980567462463,1.138059697465566,-1.1499999999999997,high,low,,ISIC_0010767.JPG,9,ISIC_0062031.JPG,28,30,false,0.3200000000000002,hl,keypress(j),0,false,1043597.4000000954,1043597.2000002861,1041656.77,1041745.3000001907,1041657.4,1043509.2,5,600,33,
break,html.Screen,10_32_1,2024-03-04T20:35:02.047Z,,,,,,,,,,,NaN,,,,,,,,high,low,,,,,,,false,,,,,false,1043597.8000001907,1043597.7000002861,,1043597.5,,1043509.2,5,600,,
break_continue,html.Screen,10_32_2,2024-03-04T20:35:02.048Z,,,,,,,,,,,NaN,,,,,,,,high,low,,,,,,,false,,,,,false,1043598,1043597.9000000954,,1043597.8000001907,,1043509.2,5,600,,
sequence,flow.Sequence,10_32,2024-03-04T20:35:02.048Z,,,,,,,,,,,1940.5000000953441,completion,,,,,,,high,low,,,,,,,false,,,,,false,1043598.1000003815,1043597.9000000954,1041656.77,1041745.2000002861,1041657.4,1043509.2,5,600,,
trial,html.Screen,10_33_0,2024-03-04T20:35:03.698Z,,,,1,-0.012020985739544,0.0126097407389903,,0.04,false,ll,1738.700000095414,response,-1.1320017221158485,1.1614225433816683,-1.0424033239691963,-1.065213496692536,1.138059697465566,-1.1499999999999997,low,low,,ISIC_0069379.JPG,8,ISIC_0030597.JPG,28,29,false,0.1,hl,keypress(j),0,false,1045248.2000002861,1045247.9000000954,1043492.4,1043598.1000003815,1043509.2,1045160.4,5,600,34,
break,html.Screen,10_33_1,2024-03-04T20:35:03.699Z,,,,,,,,,,,NaN,,,,,,,,low,low,,,,,,,false,,,,,false,1045249.8000001907,1045249.4000000954,,1045248.7000002861,,1045160.4,5,600,,
break_continue,html.Screen,10_33_2,2024-03-04T20:35:03.701Z,,,,,,,,,,,NaN,,,,,,,,low,low,,,,,,,false,,,,,false,1045250.9000000954,1045250.6000003815,,1045250.2000002861,,1045160.4,5,600,,
sequence,flow.Sequence,10_33,2024-03-04T20:35:03.701Z,,,,,,,,,,,1741.4000003815163,completion,,,,,,,low,low,,,,,,,false,,,,,false,1045251.3000001907,1045250.6000003815,1043492.4,1043598.1000003815,1043509.2,1045160.4,5,600,,
trial,html.Screen,10_34_0,2024-03-04T20:35:05.536Z,,,,1,0.0063515208248796,0.0194177605767913,,0.04,false,ll,1925.5000000953441,response,-0.9866439901618108,1.1614225433816683,-1.0424033239691963,-1.1327283202367815,1.138059697465566,-1.1499999999999997,low,low,,ISIC_5281908.JPG,9,ISIC_0072953.JPG,28,29,false,0.1,hh,keypress(i),0,false,1047086.1000003815,1047085.9000000954,1045159.874,1045251.5,1045160.4,1046995.2,5,600,35,
break,html.Screen,10_34_1,2024-03-04T20:35:05.536Z,,,,,,,,,,,NaN,,,,,,,,low,low,,,,,,,false,,,,,false,1047086.4000000954,1047086.4000000954,,1047086.2000002861,,1046995.2,5,600,,
break_continue,html.Screen,10_34_2,2024-03-04T20:35:05.536Z,,,,,,,,,,,NaN,,,,,,,,low,low,,,,,,,false,,,,,false,1047086.6000003815,1047086.5,,1047086.5,,1046995.2,5,600,,
sequence,flow.Sequence,10_34,2024-03-04T20:35:05.536Z,,,,,,,,,,,1926.0999999999767,completion,,,,,,,low,low,,,,,,,false,,,,,false,1047086.8000001907,1047086.5,1045159.874,1045251.4000000954,1045160.4,1046995.2,5,600,,
trial,html.Screen,10_35_0,2024-03-04T20:35:07.634Z,,,,1,0.0127320821962457,-0.0315308940184827,,0.04,false,hh,2188.4000003815163,response,1.09666761087476,1.1614225433816683,-1.0424033239691963,0.9917482735105084,1.138059697465566,-1.1499999999999997,high,high,,ISIC_8156101.JPG,9,ISIC_0071754.JPG,28,30,false,0.15000000000000002,lh,keypress(e),0,false,1049184.200000286,1049183.6000003815,1046994.8,1047086.8000001907,1046995.2,1049097,5,600,36,
break,html.Screen,10_35_1,2024-03-04T20:35:07.635Z,,,,,,,,,,,NaN,,,,,,,,high,high,,,,,,,false,,,,,false,1049185.700000286,1049185.3000001907,,1049184.6000003815,,1049097,5,600,,
break_continue,html.Screen,10_35_2,2024-03-04T20:35:07.636Z,,,,,,,,,,,NaN,,,,,,,,high,high,,,,,,,false,,,,,false,1049186.5,1049186.3000001907,,1049185.9000000954,,1049097,5,600,,
sequence,flow.Sequence,10_35,2024-03-04T20:35:07.637Z,,,,,,,,,,,2191.1000001907814,completion,,,,,,,high,high,,,,,,,false,,,,,false,1049186.9000000954,1049186.3000001907,1046994.8,1047086.8000001907,1046995.2,1049097,5,600,,
trial,html.Screen,10_36_0,2024-03-04T20:35:09.650Z,,,,1,0.0365981355399771,0.0162670920008846,,0.04,true,ll,2103,response,-1.1320017221158485,1.1614225433816683,-1.0424033239691963,-1.065213496692536,1.138059697465566,-1.1499999999999997,low,low,,ISIC_0982855.JPG,9,ISIC_0030597.JPG,28,29,false,0.1,ll,keypress(f),0,false,1051200.4000000954,1051200,1049096.156,1049187.1000003815,1049097,1051115.3,5,600,37,
break,html.Screen,10_36_1,2024-03-04T20:35:09.651Z,,,,,,,,,,,NaN,,,,,,,,low,low,,,,,,,false,,,,,false,1051201.700000286,1051201.5,,1051200.8000001907,,1051115.3,5,600,,
break_continue,html.Screen,10_36_2,2024-03-04T20:35:09.652Z,,,,,,,,,,,NaN,,,,,,,,low,low,,,,,,,false,,,,,false,1051202.6000003815,1051202.3000001907,,1051201.9000000954,,1051115.3,5,600,,
sequence,flow.Sequence,10_36,2024-03-04T20:35:09.653Z,,,,,,,,,,,2105.300000190735,completion,,,,,,,low,low,,,,,,,false,,,,,false,1051203.1000003815,1051202.3000001907,1049096.156,1049187,1049097,1051115.3,5,600,,
trial,html.Screen,10_37_0,2024-03-04T20:35:11.538Z,,,,1,-0.0350697500805515,-0.0166617848231997,,0.04,false,hl,1972.3000003814232,response,0.9039158082670506,1.1614225433816683,-1.0424033239691963,-1.0517562064343149,1.138059697465566,-1.1499999999999997,high,low,,ISIC_0024423.JPG,9,ISIC_0015411.JPG,28,30,false,0.3200000000000002,lh,keypress(e),0,false,1053088.1000003815,1053087.6000003815,1051114.526,1051203.3000001907,1051115.3,1053016.8,5,600,38,
break,html.Screen,10_37_1,2024-03-04T20:35:11.539Z,,,,,,,,,,,NaN,,,,,,,,high,low,,,,,,,false,,,,,false,1053089.6000003815,1053089.1000003815,,1053088.5,,1053016.8,5,600,,
break_continue,html.Screen,10_37_2,2024-03-04T20:35:11.540Z,,,,,,,,,,,NaN,,,,,,,,high,low,,,,,,,false,,,,,false,1053090.6000003815,1053090.3000001907,,1053089.9000000954,,1053016.8,5,600,,
sequence,flow.Sequence,10_37,2024-03-04T20:35:11.541Z,,,,,,,,,,,1975.0000001906883,completion,,,,,,,high,low,,,,,,,false,,,,,false,1053090.9000000954,1053090.3000001907,1051114.526,1051203.200000286,1051115.3,1053016.8,5,600,,
trial,html.Screen,10_38_0,2024-03-04T20:35:13.970Z,,,,1,-0.0057914759495055,0.018500200317654,,0.04,false,hl,2503.5000001906883,response,0.8494721812820843,1.1614225433816683,-1.0424033239691963,-1.3435429139974266,1.138059697465566,-1.1499999999999997,high,low,,ISIC_0058723.JPG,9,ISIC_0033585.JPG,28,30,false,0.3200000000000002,ll,keypress(f),0,false,1055520.8000001907,1055520.3000001907,1053016.198,1053091.200000286,1053016.8,1055435.6,5,600,39,
break,html.Screen,10_38_1,2024-03-04T20:35:13.972Z,,,,,,,,,,,NaN,,,,,,,,high,low,,,,,,,false,,,,,false,1055522.3000001907,1055521.8000001907,,1055521.200000286,,1055435.6,5,600,,
break_continue,html.Screen,10_38_2,2024-03-04T20:35:13.973Z,,,,,,,,,,,NaN,,,,,,,,high,low,,,,,,,false,,,,,false,1055523.4000000954,1055523,,1055522.700000286,,1055435.6,5,600,,
sequence,flow.Sequence,10_38,2024-03-04T20:35:13.973Z,,,,,,,,,,,2506.1999999999534,completion,,,,,,,high,low,,,,,,,false,,,,,false,1055523.700000286,1055523,1053016.198,1053091.1000003815,1053016.8,1055435.6,5,600,,
trial,html.Screen,10_39_0,2024-03-04T20:35:15.602Z,,,,1,-0.0050679133050021,-0.0174815595031679,,0.04,false,lh,1716.3999999999069,response,-0.9448560599810628,1.1614225433816683,-1.0424033239691963,0.9099421612683488,1.138059697465566,-1.1499999999999997,low,high,,ISIC_9848743.JPG,9,ISIC_9684318.JPG,28,27,false,0.2400000000000001,hl,keypress(j),0,false,1057152.3000001907,1057152,1055435.588,1055523.9000000954,1055435.6,1057070.3,5,600,40,
break,html.Screen,10_39_1,2024-03-04T20:35:15.603Z,,,,,,,,,,,NaN,,,,,,,,low,high,,,,,,,false,,,,,false,1057153.8000001907,1057153.5,,1057152.8000001907,,1057070.3,5,600,,
