sender,sender_type,sender_id,timestamp,meta,,age,blockNo,c1,c2,condition,control_tolerance,correct,correctResponse,duration,ended_on,f1,f1_high,f1_low,f2,f2_high,f2_low,feature_level1,feature_level2,gender,img_left,img_reveal,img_right,n_control_images,n_target_images,practice,range_tolerance,response,response_action,selection_duration,staircase,time_commit,time_end,time_render,time_run,time_show,time_switch,total_blocks,total_trials,trialNo,url
informed_consent,html.Screen,0,2024-03-07T15:58:34.937Z,"{""labjs_version"":""20.2.4"",""labjs_build"":{""flavor"":""development"",""commit"":""f5b4a49f956347addd546a832a3327688c2c0fef""},""location"":""https://labjs.felixhenninger.com/api/labjs_preview/index.html"",""userAgent"":""Mozilla/5.0 (Windows NT 10.0; Win64; x64) AppleWebKit/537.36 (KHTML, like Gecko) Chrome/122.0.0.0 Safari/537.36"",""platform"":""Win32"",""language"":""en-US"",""locale"":""en-US"",""timeZone"":""America/Chicago"",""timezoneOffset"":360,""screen_width"":2560,""screen_height"":1440,""scroll_width"":1265,""scroll_height"":1278,""window_innerWidth"":1265,""window_innerHeight"":1326,""devicePixelRatio"":1}",,,,,,,,,,71008.90000019074,response,,,,,,,,,,,,,,,,,consent,click button,,,71501.80000019073,71492.30000019073,466.7,568.1999998092651,483.4,71425.3,,,,{}
Demography form,html.Form,1,2024-03-07T15:58:46.497Z,,,19,,,,,,,,11636.199999999997,form submission,,,,,,,,,female,,,,,,,,,,,,83061.69999980927,83061.5,71408.9,71502.0999994278,71425.3,82968.3,,,,
Welcome,html.Screen,2,2024-03-07T15:59:52.240Z,,,,,,,"[""bor"",""col""]",,,,65835.89999980926,response,,,,,,,,,,,,,,,,,continue,click button,,,148804.80000019073,148804.19999980927,82951.998,83061.80000019073,82968.3,148722.8,,,,
demo_instructions,html.Screen,3,2024-03-07T16:00:29.319Z,,,,,,,,,,,37161.29999942781,response,,,,,,,,,,,,,,,,,continue,click button,,,185884.80000019073,185884.0999994278,148706.166,148805,148722.8,185803.228,,,,
trial,html.Screen,4_0_0,2024-03-07T16:00:42.541Z,,,,0,-1.1441767540243375,-1.0949087392471728,,,false,hh,13302.471999809262,response,1.2541318165695772,1.2,-1.2,1.085289936617366,1.2,-1.2,high,high,,ISIC_0054146.JPG,,ISIC_4277207.JPG,,25,true,0.14,ll,keypress(f),100,false,199105.89999961853,199105.69999980927,185803.228,185884.89999961853,185803.228,199030.6,1,16,1,
sequence,flow.Sequence,4_0,2024-03-07T16:00:42.541Z,,,,,,,,,,,13302.471999809262,completion,,,,,,,high,high,,,,,,,true,,,,,false,199106.0999994278,199105.69999980927,185803.228,185884.89999961853,185803.228,199030.6,1,16,,
trial,html.Screen,4_1_0,2024-03-07T16:00:54.401Z,,,,0,-1.1243896694621007,-1.1772340944704969,,,true,hh,11935.700000190729,response,1.2724293858920366,1.2,-1.2,1.149360738769835,1.2,-1.2,high,high,,ISIC_0062765.JPG,,ISIC_1264725.JPG,,25,true,0.14,hh,keypress(i),100,false,210966.39999961853,210966.30000019073,199014.3,199106.19999980927,199030.6,210890.3,1,16,2,
sequence,flow.Sequence,4_1,2024-03-07T16:00:54.401Z,,,,,,,,,,,11935.700000190729,completion,,,,,,,high,high,,,,,,,true,,,,,false,210966.69999980927,210966.30000019073,199014.3,199106.19999980927,199030.6,210890.3,1,16,,
trial,html.Screen,4_2_0,2024-03-07T16:01:03.495Z,,,,0,-1.1746004947382946,-1.2207657619249948,,,true,hh,9169.899999809277,response,1.3379750533585932,1.2,-1.2,1.1671342614509763,1.2,-1.2,high,high,,ISIC_0012069.JPG,,ISIC_0063556.JPG,,25,true,0.14,hh,keypress(i),100,false,220060.69999980927,220060.19999980927,210873.832,210966.80000019073,210890.3,219981.6,1,16,3,
sequence,flow.Sequence,4_2,2024-03-07T16:01:03.496Z,,,,,,,,,,,9169.899999809277,completion,,,,,,,high,high,,,,,,,true,,,,,false,220061.5,220060.19999980927,210873.832,210966.80000019073,210890.3,219981.6,1,16,,
trial,html.Screen,4_3_0,2024-03-07T16:01:08.079Z,,,,0,-1.2014901828022857,-1.1484096197304636,,,true,hh,4662.700000190729,response,1.1870093485714288,1.2,-1.2,1.3339880978442629,1.2,-1.2,high,high,,ISIC_0067808.JPG,,ISIC_8592235.JPG,,25,true,0.14,hh,keypress(i),100,false,224644.69999980927,224644.30000019073,219964.932,220061.80000019073,219981.6,224568.5,1,16,4,
sequence,flow.Sequence,4_3,2024-03-07T16:01:08.080Z,,,,,,,,,,,4662.700000190729,completion,,,,,,,high,high,,,,,,,true,,,,,false,224645.19999980927,224644.30000019073,219964.932,220061.69999980927,219981.6,224568.5,1,16,,
trial,html.Screen,4_4_0,2024-03-07T16:01:13.366Z,,,,0,1.2100527057059796,1.2159112471537263,,,true,ll,5362.699999809265,response,-1.0865209011322887,1.2,-1.2,-1.1401461171952545,1.2,-1.2,low,low,,ISIC_0008055.JPG,,ISIC_0016145.JPG,,30,true,0.13,ll,keypress(f),100,false,229931.5,229931.19999980927,224552.03,224645.30000019073,224568.5,229856.2,1,16,5,
sequence,flow.Sequence,4_4,2024-03-07T16:01:13.367Z,,,,,,,,,,,5362.699999809265,completion,,,,,,,low,low,,,,,,,true,,,,,false,229932.0999994278,229931.19999980927,224552.03,224645.30000019073,224568.5,229856.2,1,16,,
trial,html.Screen,4_5_0,2024-03-07T16:01:18.464Z,,,,0,1.2946277435220357,1.255157480204324,,,true,ll,5172.699999618519,response,-1.2033647433750492,1.2,-1.2,-1.0718012192341555,1.2,-1.2,low,low,,ISIC_1870309.JPG,,ISIC_0061606.JPG,,40,true,0.14,ll,keypress(f),100,false,235029.19999980927,235028.89999961853,229839.698,229932.39999961853,229856.2,234943.9,1,16,6,
sequence,flow.Sequence,4_5,2024-03-07T16:01:18.464Z,,,,,,,,,,,5172.699999618519,completion,,,,,,,low,low,,,,,,,true,,,,,false,235029.69999980927,235028.89999961853,229839.698,229932.30000019073,229856.2,234943.9,1,16,,
trial,html.Screen,4_6_0,2024-03-07T16:01:23.097Z,,,,0,1.2219550761700546,1.2809901875733454,,,true,ll,4718.400000190741,response,-1.060922596470156,1.2,-1.2,-1.152385059054538,1.2,-1.2,low,low,,ISIC_6463417.JPG,,ISIC_0067719.JPG,,40,true,0.14,ll,keypress(f),100,false,239662.69999980927,239662.30000019073,234927.266,235029.89999961853,234943.9,239581.2,1,16,7,
sequence,flow.Sequence,4_6,2024-03-07T16:01:23.098Z,,,,,,,,,,,4718.400000190741,completion,,,,,,,low,low,,,,,,,true,,,,,false,239663.19999980927,239662.30000019073,234927.266,235029.80000019073,234943.9,239581.2,1,16,,
trial,html.Screen,4_7_0,2024-03-07T16:01:27.297Z,,,,0,1.2219550761700546,1.2809901875733454,,,true,ll,4281.199999618519,response,-1.1936751736668425,1.2,-1.2,-1.2584308630745344,1.2,-1.2,low,low,,ISIC_6463417.JPG,,ISIC_0061265.JPG,,40,true,0.14,ll,keypress(f),100,false,243862.5,243862.39999961853,239564.432,239663.39999961853,239581.2,243784.2,1,16,8,
sequence,flow.Sequence,4_7,2024-03-07T16:01:27.297Z,,,,,,,,,,,4281.199999618519,completion,,,,,,,low,low,,,,,,,true,,,,,false,243862.69999980927,243862.39999961853,239564.432,239663.30000019073,239581.2,243784.2,1,16,,
trial,html.Screen,4_8_0,2024-03-07T16:01:33.929Z,,,,0,0.8828738626295417,-0.8288177599439582,,,false,lh,6709.199999618519,response,-1.2020012168275056,1.2,-1.2,0.923753102263735,1.2,-1.2,low,high,,ISIC_0056041.JPG,,ISIC_0000022.JPG,,27,true,0.40000000000000024,hh,keypress(i),100,false,250493.80000019073,250493.39999961853,243767.932,243862.80000019073,243784.2,250423.4,1,16,9,
sequence,flow.Sequence,4_8,2024-03-07T16:01:33.929Z,,,,,,,,,,,6709.199999618519,completion,,,,,,,low,high,,,,,,,true,,,,,false,250494.5999994278,250493.39999961853,243767.932,243862.80000019073,243784.2,250423.4,1,16,,
trial,html.Screen,4_9_0,2024-03-07T16:01:46.330Z,,,,0,0.9653573371180936,-0.854766800381037,,,true,lh,12472.100000000006,response,-1.045301444872812,1.2,-1.2,1.0872560254441277,1.2,-1.2,low,high,,ISIC_9640145.JPG,,ISIC_4507700.JPG,,40,true,0.4500000000000003,lh,keypress(e),100,false,262895.80000019073,262895.5,250406.732,250494.89999961853,250423.4,262816.9,1,16,10,
sequence,flow.Sequence,4_9,2024-03-07T16:01:46.331Z,,,,,,,,,,,12472.100000000006,completion,,,,,,,low,high,,,,,,,true,,,,,false,262896.19999980927,262895.5,250406.732,250494.80000019073,250423.4,262816.9,1,16,,
trial,html.Screen,4_10_0,2024-03-07T16:01:51.817Z,,,,0,1.2054195059663604,-0.7760611240296147,,,true,lh,5564.900000190712,response,-1.0153439398566937,1.2,-1.2,0.93001438372942,1.2,-1.2,low,high,,ISIC_8712559.JPG,,ISIC_8211214.JPG,,40,true,0.4500000000000003,lh,keypress(e),100,false,268382.19999980927,268381.80000019073,262800.266,262896.39999961853,262816.9,268304.8,1,16,11,
sequence,flow.Sequence,4_10,2024-03-07T16:01:51.818Z,,,,,,,,,,,5564.900000190712,completion,,,,,,,low,high,,,,,,,true,,,,,false,268382.69999980927,268381.80000019073,262800.266,262896.39999961853,262816.9,268304.8,1,16,,
trial,html.Screen,4_11_0,2024-03-07T16:02:01.852Z,,,,0,1.0369885917487718,-0.8486937878412699,,,true,lh,10111.200000000012,response,-0.9089402323867112,1.2,-1.2,0.8034544077281132,1.2,-1.2,low,high,,ISIC_6917681.JPG,,ISIC_3585381.JPG,,40,true,0.4500000000000003,lh,keypress(e),100,false,278416.39999961853,278416,268288.13,268383,268304.8,278346.4,1,16,12,
sequence,flow.Sequence,4_11,2024-03-07T16:02:01.852Z,,,,,,,,,,,10111.200000000012,completion,,,,,,,low,high,,,,,,,true,,,,,false,278417,278416,268288.13,268382.89999961853,268304.8,278346.4,1,16,,
trial,html.Screen,4_12_0,2024-03-07T16:02:17.121Z,,,,0,-0.8443403196524287,0.8858525429102605,,,true,hl,15339.199999427772,response,1.2054195059663604,1.2,-1.2,-0.7760611240296147,1.2,-1.2,high,low,,ISIC_8777813.JPG,,ISIC_8712559.JPG,,26,true,0.4500000000000003,hl,keypress(j),100,false,293686,293685.5999994278,278329.832,278417.39999961853,278346.4,293608.6,1,16,13,
sequence,flow.Sequence,4_12,2024-03-07T16:02:17.122Z,,,,,,,,,,,15339.199999427772,completion,,,,,,,high,low,,,,,,,true,,,,,false,293686.69999980927,293685.5999994278,278329.832,278417.30000019073,278346.4,293608.6,1,16,,
trial,html.Screen,4_13_0,2024-03-07T16:02:22.522Z,,,,0,-0.8987343013179191,0.8149073454566363,,,true,hl,5477.299999618554,response,0.8034318937720549,1.2,-1.2,-1.0024917298189338,1.2,-1.2,high,low,,ISIC_0472513.JPG,,ISIC_0032766.JPG,,26,true,0.4500000000000003,hl,keypress(j),100,false,299086.39999961853,299085.89999961853,293592.398,293686.89999961853,293608.6,299013.3,1,16,14,
sequence,flow.Sequence,4_13,2024-03-07T16:02:22.522Z,,,,,,,,,,,5477.299999618554,completion,,,,,,,high,low,,,,,,,true,,,,,false,299087.0999994278,299085.89999961853,293592.398,293686.80000019073,293608.6,299013.3,1,16,,
trial,html.Screen,4_14_0,2024-03-07T16:02:33.936Z,,,,0,-0.8350129142228142,0.8172547818270586,,,true,hl,11487.299999427807,response,1.0369885917487718,1.2,-1.2,-0.8486937878412699,1.2,-1.2,high,low,,ISIC_0301568.JPG,,ISIC_6917681.JPG,,26,true,0.4500000000000003,hl,keypress(j),100,false,310500.69999980927,310500.5999994278,298996.798,299087.30000019073,299013.3,310422.6,1,16,15,
sequence,flow.Sequence,4_14,2024-03-07T16:02:33.936Z,,,,,,,,,,,11487.299999427807,completion,,,,,,,high,low,,,,,,,true,,,,,false,310500.89999961853,310500.5999994278,298996.798,299087.30000019073,299013.3,310422.6,1,16,,
trial,html.Screen,4_15_0,2024-03-07T16:02:39.508Z,,,,0,-0.8350129142228142,0.8172547818270586,,,true,hl,5649.700000190758,response,0.8034318937720549,1.2,-1.2,-1.0024917298189338,1.2,-1.2,high,low,,ISIC_0301568.JPG,,ISIC_0032766.JPG,,26,true,0.4500000000000003,hl,keypress(j),100,false,316072.39999961853,316072.30000019073,310406,310500.89999961853,310422.6,315993.8,1,16,16,
sequence,flow.Sequence,4_15,2024-03-07T16:02:39.508Z,,,,,,,,,,,5649.700000190758,completion,,,,,,,high,low,,,,,,,true,,,,,false,316072.69999980927,316072.30000019073,310406,310500.89999961853,310422.6,315993.8,1,16,,
demonstration_loop,flow.Loop,4,2024-03-07T16:02:39.508Z,,,,,,,,,,,130269.07200019073,completion,,,,,,,,,,,,,,,true,,,,,false,316072.80000019073,316072.30000019073,185803.228,185884.89999961853,185803.228,315993.8,1,16,,
practice_instructions,html.Screen,5,2024-03-07T16:02:57.408Z,,,,,,,,,,,17970.599999618542,response,,,,,,,,,,,,,,,,,continue,click button,,,333972.80000019073,333964.39999961853,315977.2,316072.89999961853,315993.8,333875.696,,,,
trial,html.Screen,6_0_0,2024-03-07T16:03:05.688Z,,,,1,1.1870093485714288,1.3339880978442629,,,true,ll,8370.604000190739,response,-1.1195710731537871,1.2,-1.2,-1.1961732733209125,1.2,-1.2,low,low,,ISIC_8592235.JPG,,ISIC_0067170.JPG,,30,true,0.13,ll,keypress(f),0,false,342253.30000019073,342246.30000019073,333875.696,333972.89999961853,333875.696,342182.1,1,40,1,
sequence,flow.Sequence,6_0,2024-03-07T16:03:05.688Z,,,,,,,,,,,8370.604000190739,completion,,,,,,,low,low,,,,,,,true,,,,,false,342253.5,342246.30000019073,333875.696,333972.89999961853,333875.696,342182.1,1,40,,
trial,html.Screen,6_1_0,2024-03-07T16:03:20.872Z,,,,1,-0.8987343013179191,0.8149073454566363,,,true,hl,15254.700000190758,response,1.199471562817528,1.2,-1.2,-0.8631260534979347,1.2,-1.2,high,low,,ISIC_0472513.JPG,,ISIC_0030754.JPG,,26,true,0.4500000000000003,hl,keypress(j),0,false,357437,357436.80000019073,342165.5,342253.5,342182.1,357344.7,1,40,2,
sequence,flow.Sequence,6_1,2024-03-07T16:03:20.872Z,,,,,,,,,,,15254.700000190758,completion,,,,,,,high,low,,,,,,,true,,,,,false,357437.19999980927,357436.80000019073,342165.5,342253.5,342182.1,357344.7,1,40,,
trial,html.Screen,6_2_0,2024-03-07T16:03:33.208Z,,,,1,0.8830264383952469,-0.8635562538060516,,,true,lh,12428.399999427784,response,-1.045301444872812,1.2,-1.2,1.0872560254441277,1.2,-1.2,low,high,,ISIC_0032258.JPG,,ISIC_4507700.JPG,,27,true,0.40000000000000024,lh,keypress(e),0,false,369773.19999980927,369773.0999994278,357332.734,357437.19999980927,357344.7,369688.4,1,40,3,
sequence,flow.Sequence,6_2,2024-03-07T16:03:33.208Z,,,,,,,,,,,12428.399999427784,completion,,,,,,,low,high,,,,,,,true,,,,,false,369773.39999961853,369773.0999994278,357332.734,357437.19999980927,357344.7,369688.4,1,40,,
trial,html.Screen,6_3_0,2024-03-07T16:03:39.305Z,,,,1,-1.2691569063625474,-1.1264228993232308,,,true,hh,6181.599999999977,response,1.0777929856705222,1.2,-1.2,1.0139833925057518,1.2,-1.2,high,high,,ISIC_4980656.JPG,,ISIC_6171084.JPG,,265,true,0.4500000000000003,hh,keypress(i),0,false,375870.30000019073,375870,369671.5,369773.5,369688.4,375793.2,1,40,4,
sequence,flow.Sequence,6_3,2024-03-07T16:03:39.305Z,,,,,,,,,,,6181.599999999977,completion,,,,,,,high,high,,,,,,,true,,,,,false,375870.69999980927,375870,369671.5,369773.5,369688.4,375793.2,1,40,,
trial,html.Screen,6_4_0,2024-03-07T16:03:51.921Z,,,,1,1.2578167348825195,-0.8371819698254004,,,true,lh,12693.999999809253,response,-1.0116417541846066,1.2,-1.2,1.033442916947398,1.2,-1.2,low,high,,ISIC_9613570.JPG,,ISIC_0031389.JPG,,27,true,0.40000000000000024,lh,keypress(e),0,false,388487.5,388487.19999980927,375789.162,375870.89999961853,375793.2,388403.8,1,40,5,
sequence,flow.Sequence,6_4,2024-03-07T16:03:51.922Z,,,,,,,,,,,12693.999999809253,completion,,,,,,,low,high,,,,,,,true,,,,,false,388488.0999994278,388487.19999980927,375789.162,375870.89999961853,375793.2,388403.8,1,40,,
trial,html.Screen,6_5_0,2024-03-07T16:03:56.617Z,,,,1,-1.2749714218614645,-1.1578619398362149,,,true,hh,4778.799999427807,response,1.2814186888670185,1.2,-1.2,0.8765393465827035,1.2,-1.2,high,high,,ISIC_0024999.JPG,,ISIC_9260499.JPG,,265,true,0.4500000000000003,hh,keypress(i),0,false,393183.0999994278,393182.5999994278,388393.536,388488.30000019073,388403.8,393107.5,1,40,6,
sequence,flow.Sequence,6_5,2024-03-07T16:03:56.617Z,,,,,,,,,,,4778.799999427807,completion,,,,,,,high,high,,,,,,,true,,,,,false,393183.5,393182.5999994278,388393.536,388488.19999980927,388403.8,393107.5,1,40,,
trial,html.Screen,6_6_0,2024-03-07T16:04:04.809Z,,,,1,-0.9244148283103414,0.9712966348713286,,,true,hl,8267.599999427795,response,0.9653573371180936,1.2,-1.2,-0.854766800381037,1.2,-1.2,high,low,,ISIC_7927525.JPG,,ISIC_9640145.JPG,,26,true,0.4500000000000003,hl,keypress(j),0,false,401375.39999961853,401375.0999994278,393104.552,393183.89999961853,393107.5,401291.536,1,40,7,
sequence,flow.Sequence,6_6,2024-03-07T16:04:04.810Z,,,,,,,,,,,8267.599999427795,completion,,,,,,,high,low,,,,,,,true,,,,,false,401376,401375.0999994278,393104.552,393183.80000019073,393107.5,401291.536,1,40,,
trial,html.Screen,6_7_0,2024-03-07T16:04:14.303Z,,,,1,0.7883321712536753,-1.0011430756825364,,,true,lh,9577.663999809243,response,-0.9244148283103414,1.2,-1.2,0.9712966348713286,1.2,-1.2,low,high,,ISIC_9828853.JPG,,ISIC_7927525.JPG,,27,true,0.40000000000000024,lh,keypress(e),0,false,410869.39999961853,410869.19999980927,401291.536,401376.19999980927,401291.536,410772.1,1,40,8,
sequence,flow.Sequence,6_7,2024-03-07T16:04:14.303Z,,,,,,,,,,,9577.663999809243,completion,,,,,,,low,high,,,,,,,true,,,,,false,410869.5999994278,410869.19999980927,401291.536,401376.19999980927,401291.536,410772.1,1,40,,
trial,html.Screen,6_8_0,2024-03-07T16:04:23.894Z,,,,1,-1.2033647433750492,-1.0718012192341555,,,true,hh,9688.499999427819,response,1.3794745596957585,1.2,-1.2,1.3078626540563885,1.2,-1.2,high,high,,ISIC_0061606.JPG,,ISIC_3601224.JPG,,265,true,0.4500000000000003,hh,keypress(i),0,false,420460.69999980927,420460.5999994278,410765.028,410869.69999980927,410772.1,420363.2,1,40,9,
sequence,flow.Sequence,6_8,2024-03-07T16:04:23.894Z,,,,,,,,,,,9688.499999427819,completion,,,,,,,high,high,,,,,,,true,,,,,false,420460.80000019073,420460.5999994278,410765.028,410869.69999980927,410772.1,420363.2,1,40,,
trial,html.Screen,6_9_0,2024-03-07T16:04:32.865Z,,,,1,-0.8047295996345292,1.551750455622795,,,true,hl,9067.499999809253,response,0.7991459998473059,1.2,-1.2,-1.0280788723474688,1.2,-1.2,high,low,,ISIC_7717907.JPG,,ISIC_7951202.JPG,,26,true,0.4500000000000003,hl,keypress(j),0,false,429431.0999994278,429430.69999980927,420355.98,420460.89999961853,420363.2,429337.5,1,40,10,
sequence,flow.Sequence,6_9,2024-03-07T16:04:32.865Z,,,,,,,,,,,9067.499999809253,completion,,,,,,,high,low,,,,,,,true,,,,,false,429431.69999980927,429430.69999980927,420355.98,420460.89999961853,420363.2,429337.5,1,40,,
trial,html.Screen,6_10_0,2024-03-07T16:04:48.853Z,,,,1,-1.0849202097813322,-1.0851127310415287,,,,,16013.299999999988,timeout,1.3475646937726224,1.2,-1.2,0.8405622751782637,1.2,-1.2,high,high,,ISIC_0010289.JPG,,ISIC_0001745.JPG,,203,true,0.40000000000000024,,,0,false,445419.5,445419.0999994278,429330.238,429431.80000019073,429337.5,445350.8,1,40,11,
sequence,flow.Sequence,6_10,2024-03-07T16:04:48.853Z,,,,,,,,,,,16081.599999427795,completion,,,,,,,high,high,,,,,,,true,,,,,false,445420,445419.0999994278,429330.238,429431.80000019073,429337.5,445350.8,1,40,,
trial,html.Screen,6_11_0,2024-03-07T16:04:53.910Z,,,,1,-1.0773466327271526,-1.1601445610079184,,,true,hh,5127.099999618542,response,1.252716660627398,1.2,-1.2,1.183977080937476,1.2,-1.2,high,high,,ISIC_0055169.JPG,,ISIC_0034194.JPG,,25,true,0.14,hh,keypress(i),0,false,450478.19999980927,450477.89999961853,445334.3,445420.19999980927,445350.8,450401.504,1,40,12,
sequence,flow.Sequence,6_11,2024-03-07T16:04:53.911Z,,,,,,,,,,,5127.099999618542,completion,,,,,,,high,high,,,,,,,true,,,,,false,450478.69999980927,450477.89999961853,445334.3,445420.0999994278,445350.8,450401.504,1,40,,
trial,html.Screen,6_12_0,2024-03-07T16:05:05.918Z,,,,1,0.7883321712536753,-1.0011430756825364,,,false,lh,12083.79600019072,response,-1.2020012168275056,1.2,-1.2,0.923753102263735,1.2,-1.2,low,high,,ISIC_9828853.JPG,,ISIC_0000022.JPG,,27,true,0.40000000000000024,hl,keypress(j),0,false,462485.5,462485.30000019073,450401.504,450478.89999961853,450401.504,462398,1,40,13,
sequence,flow.Sequence,6_12,2024-03-07T16:05:05.918Z,,,,,,,,,,,12083.79600019072,completion,,,,,,,low,high,,,,,,,true,,,,,false,462485.69999980927,462485.30000019073,450401.504,450478.80000019073,450401.504,462398,1,40,,
trial,html.Screen,6_13_0,2024-03-07T16:05:10.847Z,,,,1,1.3379750533585932,1.1671342614509763,,,true,ll,5016.5,response,-1.3618804701210718,1.2,-1.2,-0.795879970717208,1.2,-1.2,low,low,,ISIC_0063556.JPG,,ISIC_0026559.JPG,,359,true,0.4500000000000003,ll,keypress(f),0,false,467414.80000019073,467414.5,462381.2,462485.80000019073,462398,467335.5,1,40,14,
sequence,flow.Sequence,6_13,2024-03-07T16:05:10.848Z,,,,,,,,,,,5016.5,completion,,,,,,,low,low,,,,,,,true,,,,,false,467415.39999961853,467414.5,462381.2,462485.80000019073,462398,467335.5,1,40,,
trial,html.Screen,6_14_0,2024-03-07T16:05:14.927Z,,,,1,-1.2081146885025262,1.195668832085049,,,false,hl,4158.89999961853,response,0.8513427412482127,1.2,-1.2,-0.9295303568095064,1.2,-1.2,high,low,,ISIC_7369690.JPG,,ISIC_0034164.JPG,,26,true,0.4500000000000003,ll,keypress(f),0,false,471494.80000019073,471494.39999961853,467331.832,467415.5999994278,467335.5,471405.6,1,40,15,
sequence,flow.Sequence,6_14,2024-03-07T16:05:14.928Z,,,,,,,,,,,4158.89999961853,completion,,,,,,,high,low,,,,,,,true,,,,,false,471495.39999961853,471494.39999961853,467331.832,467415.5,467335.5,471405.6,1,40,,
trial,html.Screen,6_15_0,2024-03-07T16:05:19.879Z,,,,1,-1.082709423673037,-1.1184338818466155,,,true,hh,5041.099999809288,response,1.4530180759346911,1.2,-1.2,1.0063044025325396,1.2,-1.2,high,high,,ISIC_0058666.JPG,,ISIC_0003150.JPG,,203,true,0.40000000000000024,hh,keypress(i),0,false,476447.19999980927,476446.69999980927,471388.9,471495.5999994278,471405.6,476359.7,1,40,16,
sequence,flow.Sequence,6_15,2024-03-07T16:05:19.880Z,,,,,,,,,,,5041.099999809288,completion,,,,,,,high,high,,,,,,,true,,,,,false,476447.69999980927,476446.69999980927,471388.9,471495.5999994278,471405.6,476359.7,1,40,,
trial,html.Screen,6_16_0,2024-03-07T16:05:24.599Z,,,,1,1.2804054832904397,1.171271535505083,,,true,ll,4806.899999427784,response,-1.0915173513546716,1.2,-1.2,-1.266840220031473,1.2,-1.2,low,low,,ISIC_7889838.JPG,,ISIC_8241457.JPG,,30,true,0.13,ll,keypress(f),0,false,481167.0999994278,481166.5999994278,476342.9,476448,476359.7,481080.2,1,40,17,
sequence,flow.Sequence,6_16,2024-03-07T16:05:24.600Z,,,,,,,,,,,4806.899999427784,completion,,,,,,,low,low,,,,,,,true,,,,,false,481167.69999980927,481166.5999994278,476342.9,476447.89999961853,476359.7,481080.2,1,40,,
trial,html.Screen,6_17_0,2024-03-07T16:05:29.375Z,,,,1,1.274417010249866,1.0725495669014795,,,true,ll,4862.600000190723,response,-1.071312313440387,1.2,-1.2,-1.0935391476164529,1.2,-1.2,low,low,,ISIC_8849004.JPG,,ISIC_0063680.JPG,,40,true,0.14,ll,keypress(f),0,false,485943.19999980927,485942.80000019073,481063.7,481167.89999961853,481080.2,485867.4,1,40,18,
sequence,flow.Sequence,6_17,2024-03-07T16:05:29.376Z,,,,,,,,,,,4862.600000190723,completion,,,,,,,low,low,,,,,,,true,,,,,false,485943.69999980927,485942.80000019073,481063.7,481167.80000019073,481080.2,485867.4,1,40,,
trial,html.Screen,6_18_0,2024-03-07T16:05:41.344Z,,,,1,-0.90812608370647,1.2720026872926935,,,true,hl,12043.799999809242,response,1.2362557973341337,1.2,-1.2,-1.2548266183352603,1.2,-1.2,high,low,,ISIC_0450295.JPG,,ISIC_0033886.JPG,,26,true,0.4500000000000003,hl,keypress(j),0,false,497911.5999994278,497911.19999980927,485863.982,485944,485867.4,497827.4,1,40,19,
sequence,flow.Sequence,6_18,2024-03-07T16:05:41.344Z,,,,,,,,,,,12043.799999809242,completion,,,,,,,high,low,,,,,,,true,,,,,false,497912.30000019073,497911.19999980927,485863.982,485943.89999961853,485867.4,497827.4,1,40,,
trial,html.Screen,6_19_0,2024-03-07T16:05:45.383Z,,,,1,-1.186629690487006,-1.3269945600040771,,,true,hh,4122.900000190712,response,1.5947156807053404,1.2,-1.2,1.0785174776187512,1.2,-1.2,high,high,,ISIC_0015390.JPG,,ISIC_2454898.JPG,,203,true,0.40000000000000024,hh,keypress(i),0,false,501950.69999980927,501950.30000019073,497818.162,497912.5,497827.4,501864,1,40,20,
sequence,flow.Sequence,6_19,2024-03-07T16:05:45.383Z,,,,,,,,,,,4122.900000190712,completion,,,,,,,high,high,,,,,,,true,,,,,false,501951.19999980927,501950.30000019073,497818.162,497912.39999961853,497827.4,501864,1,40,,
trial,html.Screen,6_20_0,2024-03-07T16:05:50.207Z,,,,1,1.1409143352872226,1.1323007949069106,,,true,ll,4910.599999427795,response,-1.1746004947382946,1.2,-1.2,-1.2207657619249948,1.2,-1.2,low,low,,ISIC_0030291.JPG,,ISIC_0012069.JPG,,30,true,0.13,ll,keypress(f),0,false,506775.0999994278,506774.5999994278,501847.7,501951.5,501864,506701.3,1,40,21,
sequence,flow.Sequence,6_20,2024-03-07T16:05:50.208Z,,,,,,,,,,,4910.599999427795,completion,,,,,,,low,low,,,,,,,true,,,,,false,506775.5999994278,506774.5999994278,501847.7,501951.39999961853,501864,506701.3,1,40,,
trial,html.Screen,6_21_0,2024-03-07T16:05:52.974Z,,,,1,0.8719231363109603,-0.7704280220140033,,,true,lh,2841.599999618542,response,-0.90812608370647,1.2,-1.2,1.2720026872926935,1.2,-1.2,low,high,,ISIC_0029453.JPG,,ISIC_0450295.JPG,,27,true,0.40000000000000024,lh,keypress(e),0,false,509543.19999980927,509542.89999961853,506698.18,506775.80000019073,506701.3,509453.6,1,40,22,
sequence,flow.Sequence,6_21,2024-03-07T16:05:52.975Z,,,,,,,,,,,2841.599999618542,completion,,,,,,,low,high,,,,,,,true,,,,,false,509543.69999980927,509542.89999961853,506698.18,506775.69999980927,506701.3,509453.6,1,40,,
trial,html.Screen,6_22_0,2024-03-07T16:06:00.942Z,,,,1,0.8926515927689261,-0.7935960767768927,,,true,lh,8056.599999809288,response,-0.9633172970727744,1.2,-1.2,0.8472659344792351,1.2,-1.2,low,high,,ISIC_8901371.JPG,,ISIC_0067172.JPG,,40,true,0.4500000000000003,lh,keypress(e),0,false,517510.5999994278,517510.19999980927,509452.33,509543.89999961853,509453.6,517427,1,40,23,
sequence,flow.Sequence,6_22,2024-03-07T16:06:00.942Z,,,,,,,,,,,8056.599999809288,completion,,,,,,,low,high,,,,,,,true,,,,,false,517511.0999994278,517510.19999980927,509452.33,509543.89999961853,509453.6,517427,1,40,,
trial,html.Screen,6_23_0,2024-03-07T16:06:09.414Z,,,,1,1.077278111180185,1.1530533996184025,,,true,ll,8556,response,-0.7778878341942241,1.2,-1.2,-1.1886610799377713,1.2,-1.2,low,low,,ISIC_9525136.JPG,,ISIC_0059506.JPG,,359,true,0.4500000000000003,ll,keypress(f),0,false,525983.3000001907,525983,517410.4,517511.39999961853,517427,525900.8,1,40,24,
sequence,flow.Sequence,6_23,2024-03-07T16:06:09.415Z,,,,,,,,,,,8556,completion,,,,,,,low,low,,,,,,,true,,,,,false,525983.8999996185,525983,517410.4,517511.39999961853,517427,525900.8,1,40,,
trial,html.Screen,6_24_0,2024-03-07T16:06:11.916Z,,,,1,-1.2194553326562725,-1.2381726989215684,,,true,hh,2583.799999427749,response,1.3379750533585932,1.2,-1.2,1.1671342614509763,1.2,-1.2,high,high,,ISIC_0068975.JPG,,ISIC_0063556.JPG,,25,true,0.14,hh,keypress(i),0,false,528484.5999994278,528484.5999994278,525884,525984.0999994278,525900.8,528402.6,1,40,25,
sequence,flow.Sequence,6_24,2024-03-07T16:06:11.916Z,,,,,,,,,,,2583.799999427749,completion,,,,,,,high,high,,,,,,,true,,,,,false,528484.8000001907,528484.5999994278,525884,525984.0999994278,525900.8,528402.6,1,40,,
trial,html.Screen,6_25_0,2024-03-07T16:06:19.740Z,,,,1,-1.0685314915436992,0.8203833713472237,,,true,hl,7905.799999618554,response,0.8034318937720549,1.2,-1.2,-1.0024917298189338,1.2,-1.2,high,low,,ISIC_0029374.JPG,,ISIC_0032766.JPG,,26,true,0.4500000000000003,hl,keypress(j),0,false,536308.5999994278,536308.3999996185,528401.506,528484.8000001907,528402.6,536226.3,1,40,26,
sequence,flow.Sequence,6_25,2024-03-07T16:06:19.740Z,,,,,,,,,,,7905.799999618554,completion,,,,,,,high,low,,,,,,,true,,,,,false,536308.6999998093,536308.3999996185,528401.506,528484.8000001907,528402.6,536226.3,1,40,,
trial,html.Screen,6_26_0,2024-03-07T16:06:34.678Z,,,,1,0.8034318937720549,-1.0024917298189338,,,true,lh,15020.799999427749,response,-0.9633172970727744,1.2,-1.2,0.8472659344792351,1.2,-1.2,low,high,,ISIC_0032766.JPG,,ISIC_0067172.JPG,,27,true,0.40000000000000024,lh,keypress(e),0,false,551247.3999996185,551247.0999994278,536203.328,536308.8000001907,536226.3,551154.8,1,40,27,
sequence,flow.Sequence,6_26,2024-03-07T16:06:34.679Z,,,,,,,,,,,15020.799999427749,completion,,,,,,,low,high,,,,,,,true,,,,,false,551248,551247.0999994278,536203.328,536308.8000001907,536226.3,551154.8,1,40,,
trial,html.Screen,6_27_0,2024-03-07T16:06:37.198Z,,,,1,1.252716660627398,1.183977080937476,,,true,ll,2611.6999999999534,response,-0.8214860378877057,1.2,-1.2,-1.182737664540022,1.2,-1.2,low,low,,ISIC_0034194.JPG,,ISIC_0025413.JPG,,359,true,0.4500000000000003,ll,keypress(f),0,false,553766.8999996185,553766.5,551142.81,551248.1999998093,551154.8,553690.1,1,40,28,
sequence,flow.Sequence,6_27,2024-03-07T16:06:37.198Z,,,,,,,,,,,2611.6999999999534,completion,,,,,,,low,low,,,,,,,true,,,,,false,553767.3999996185,553766.5,551142.81,551248.0999994278,551154.8,553690.1,1,40,,
trial,html.Screen,6_28_0,2024-03-07T16:06:39.630Z,,,,1,0.989300717252516,-0.7908280206937478,,,false,lh,2508.700000190758,response,-1.168911077628813,1.2,-1.2,1.2181838235193114,1.2,-1.2,low,high,,ISIC_6416533.JPG,,ISIC_7358691.JPG,,27,true,0.40000000000000024,hh,keypress(i),0,false,556199.0999994278,556198.8000001907,553688.672,553767.6999998093,553690.1,556108.8,1,40,29,
sequence,flow.Sequence,6_28,2024-03-07T16:06:39.631Z,,,,,,,,,,,2508.700000190758,completion,,,,,,,low,high,,,,,,,true,,,,,false,556199.6999998093,556198.8000001907,553688.672,553767.5999994278,553690.1,556108.8,1,40,,
trial,html.Screen,6_29_0,2024-03-07T16:06:41.750Z,,,,1,-1.0116417541846066,1.033442916947398,,,false,hl,2210.0000001906883,response,0.7883321712536753,1.2,-1.2,-1.0011430756825364,1.2,-1.2,high,low,,ISIC_0031389.JPG,,ISIC_9828853.JPG,,26,true,0.4500000000000003,hh,keypress(i),0,false,558319.3000001907,558318.8000001907,556107.81,556200,556108.8,558227.2,1,40,30,
sequence,flow.Sequence,6_29,2024-03-07T16:06:41.751Z,,,,,,,,,,,2210.0000001906883,completion,,,,,,,high,low,,,,,,,true,,,,,false,558319.8999996185,558318.8000001907,556107.81,556199.8000001907,556108.8,558227.2,1,40,,
trial,html.Screen,6_30_0,2024-03-07T16:06:50.087Z,,,,1,-1.0116417541846066,1.033442916947398,,,true,hl,8427.999999809312,response,0.8110121381849364,1.2,-1.2,-0.7563142141851558,1.2,-1.2,high,low,,ISIC_0031389.JPG,,ISIC_0033605.JPG,,26,true,0.4500000000000003,hl,keypress(j),0,false,566655.5999994278,566655.1999998093,558226.556,558320.1999998093,558227.2,566577.84,1,40,31,
sequence,flow.Sequence,6_30,2024-03-07T16:06:50.087Z,,,,,,,,,,,8427.999999809312,completion,,,,,,,high,low,,,,,,,true,,,,,false,566656.0999994278,566655.1999998093,558226.556,558320.0999994278,558227.2,566577.84,1,40,,
trial,html.Screen,6_31_0,2024-03-07T16:06:52.909Z,,,,1,-0.9089402323867112,0.8034544077281132,,,false,hl,2901.259999427828,response,1.0453124399868816,1.2,-1.2,-0.8986747280184286,1.2,-1.2,high,low,,ISIC_3585381.JPG,,ISIC_0013967.JPG,,26,true,0.4500000000000003,hh,keypress(i),0,false,569479.5,569479.0999994278,566577.84,566656.3999996185,566577.84,569386.4,1,40,32,
sequence,flow.Sequence,6_31,2024-03-07T16:06:52.910Z,,,,,,,,,,,2901.259999427828,completion,,,,,,,high,low,,,,,,,true,,,,,false,569480,569479.0999994278,566577.84,566656.3000001907,566577.84,569386.4,1,40,,
trial,html.Screen,6_32_0,2024-03-07T16:06:55.453Z,,,,1,-1.1117876838408909,-1.2957497771092716,,,true,hh,2636.199999427772,response,0.8336927721396412,1.2,-1.2,1.1363137800725187,1.2,-1.2,high,high,,ISIC_0061915.JPG,,ISIC_0553565.JPG,,203,true,0.40000000000000024,hh,keypress(i),0,false,572023.0999994278,572022.5999994278,569384.828,569480.3000001907,569386.4,571938.5,1,40,33,
sequence,flow.Sequence,6_32,2024-03-07T16:06:55.453Z,,,,,,,,,,,2636.199999427772,completion,,,,,,,high,high,,,,,,,true,,,,,false,572023.5999994278,572022.5999994278,569384.828,569480.1999998093,569386.4,571938.5,1,40,,
trial,html.Screen,6_33_0,2024-03-07T16:06:58.069Z,,,,1,1.274752206258116,1.2988509166163749,,,true,ll,2700.199999809265,response,-1.2194553326562725,1.2,-1.2,-1.2381726989215684,1.2,-1.2,low,low,,ISIC_6704623.JPG,,ISIC_0068975.JPG,,30,true,0.13,ll,keypress(f),0,false,574639.0999994278,574638.6999998093,571921.9,572023.8000001907,571938.5,574557.3,1,40,34,
sequence,flow.Sequence,6_33,2024-03-07T16:06:58.069Z,,,,,,,,,,,2700.199999809265,completion,,,,,,,low,low,,,,,,,true,,,,,false,574639.8000001907,574638.6999998093,571921.9,572023.6999998093,571938.5,574557.3,1,40,,
trial,html.Screen,6_34_0,2024-03-07T16:07:01.645Z,,,,1,-0.9633172970727744,0.8472659344792351,,,false,hl,3657.5000001906883,response,0.8828738626295417,1.2,-1.2,-0.8288177599439582,1.2,-1.2,high,low,,ISIC_0067172.JPG,,ISIC_0056041.JPG,,26,true,0.4500000000000003,ll,keypress(f),0,false,578215.0999994278,578214.8000001907,574555.558,574640.0999994278,574557.3,578127.2,1,40,35,
sequence,flow.Sequence,6_34,2024-03-07T16:07:01.645Z,,,,,,,,,,,3657.5000001906883,completion,,,,,,,high,low,,,,,,,true,,,,,false,578215.8000001907,578214.8000001907,574555.558,574640,574557.3,578127.2,1,40,,
trial,html.Screen,6_35_0,2024-03-07T16:07:04.307Z,,,,1,1.3246728710248594,1.1527736000922424,,,true,ll,2749.8000000000466,response,-1.1936751736668425,1.2,-1.2,-1.2584308630745344,1.2,-1.2,low,low,,ISIC_6876281.JPG,,ISIC_0061265.JPG,,288,true,0.40000000000000024,ll,keypress(f),0,false,580877,580877,578110.4,578216,578127.2,580779.1,1,40,36,
sequence,flow.Sequence,6_35,2024-03-07T16:07:04.307Z,,,,,,,,,,,2749.8000000000466,completion,,,,,,,low,low,,,,,,,true,,,,,false,580877.1999998093,580877,578110.4,578216,578127.2,580779.1,1,40,,
trial,html.Screen,6_36_0,2024-03-07T16:07:08.061Z,,,,1,1.1409143352872226,1.1323007949069106,,,true,ll,3851.7999996185536,response,-1.2691569063625474,1.2,-1.2,-1.1264228993232308,1.2,-1.2,low,low,,ISIC_0030291.JPG,,ISIC_4980656.JPG,,40,true,0.14,ll,keypress(f),0,false,584631.1999998093,584630.8999996185,580777.59,580877.3000001907,580779.1,584566,1,40,37,
sequence,flow.Sequence,6_36,2024-03-07T16:07:08.061Z,,,,,,,,,,,3851.7999996185536,completion,,,,,,,low,low,,,,,,,true,,,,,false,584631.6999998093,584630.8999996185,580777.59,580877.3000001907,580779.1,584566,1,40,,
trial,html.Screen,6_37_0,2024-03-07T16:07:14.157Z,,,,1,0.8926515927689261,-0.7935960767768927,,,true,lh,6161.099999427795,response,-0.8307508446051526,1.2,-1.2,1.1707575338936729,1.2,-1.2,low,high,,ISIC_8901371.JPG,,ISIC_0028606.JPG,,27,true,0.40000000000000024,lh,keypress(e),0,false,590727.3999996185,590727.0999994278,584548.9,584632,584566,590637.4,1,40,38,
sequence,flow.Sequence,6_37,2024-03-07T16:07:14.158Z,,,,,,,,,,,6161.099999427795,completion,,,,,,,low,high,,,,,,,true,,,,,false,590728,590727.0999994278,584548.9,584631.8999996185,584566,590637.4,1,40,,
trial,html.Screen,6_38_0,2024-03-07T16:07:16.757Z,,,,1,-1.2749714218614645,-1.1578619398362149,,,true,hh,2689.499999618507,response,1.2541318165695772,1.2,-1.2,1.085289936617366,1.2,-1.2,high,high,,ISIC_0024999.JPG,,ISIC_4277207.JPG,,265,true,0.4500000000000003,hh,keypress(i),0,false,593327.3000001907,593326.8999996185,590632.92,590728.0999994278,590637.4,593239.4,1,40,39,
sequence,flow.Sequence,6_38,2024-03-07T16:07:16.757Z,,,,,,,,,,,2689.499999618507,completion,,,,,,,high,high,,,,,,,true,,,,,false,593327.8999996185,593326.8999996185,590632.92,590728.0999994278,590637.4,593239.4,1,40,,
trial,html.Screen,6_39_0,2024-03-07T16:07:25.485Z,,,,1,1.0329549150636406,-1.01584100839286,,,true,lh,8815.699999427772,response,-0.9544693251394116,1.2,-1.2,1.0727539917203766,1.2,-1.2,low,high,,ISIC_0054670.JPG,,ISIC_0055147.JPG,,27,true,0.40000000000000024,lh,keypress(e),0,false,602055.6999998093,602055.0999994278,593238.336,593328,593239.4,601963.3,1,40,40,
sequence,flow.Sequence,6_39,2024-03-07T16:07:25.486Z,,,,,,,,,,,8815.699999427772,completion,,,,,,,low,high,,,,,,,true,,,,,false,602056.1999998093,602055.0999994278,593238.336,593328,593239.4,601963.3,1,40,,
practice_loop,flow.Loop,6,2024-03-07T16:07:25.486Z,,,,,,,,,,,268179.4039994278,completion,,,,,,,,,,,,,,,true,,,,,false,602056.5999994278,602055.0999994278,333875.696,333972.89999961853,333875.696,601963.3,1,40,,
stair_instructions,html.Screen,7,2024-03-07T16:08:17.409Z,,,,,,,,,,,52016.79999942775,response,,,,,,,,,,,,,,,,,continue,click button,,,653980.6999998093,653980.0999994278,601956.692,602056.8000001907,601963.3,653889.5,,,,
trial,html.Screen,8_0_0,2024-03-07T16:08:33.409Z,,,,2,0.0076984477620101,0.0069458408496562,,0.04,,,16013.300000000047,timeout,-0.8500530224490773,1.2,-1.2,1.0893360711742854,1.2,-1.2,low,high,,ISIC_0000434.JPG,,ISIC_2998367.JPG,28,40,false,0.4500000000000003,,,0,true,669980.6999998093,669980.5,653872.9,653980.8000001907,653889.5,669902.8,1,40,1,
sequence,flow.Sequence,8_0,2024-03-07T16:08:33.409Z,,,,,,,,,,,16091,completion,,,,,,,low,high,,,,,,,false,,,,,true,669980.8000001907,669980.5,653872.9,653980.8000001907,653889.5,669902.8,1,40,,
trial,html.Screen,8_1_0,2024-03-07T16:08:40.193Z,,,,2,0.0257631352671967,0.0202837002774028,,0.04,true,lh,6861.799999427749,response,-0.9089402323867112,1.2,-1.2,0.8034544077281132,1.2,-1.2,low,high,,ISIC_0032797.JPG,,ISIC_3585381.JPG,28,27,false,0.40000000000000024,lh,keypress(e),0,true,676764.6999998093,676764.5999994278,669886.1,669980.8999996185,669902.8,676675,1,40,2,
sequence,flow.Sequence,8_1,2024-03-07T16:08:40.193Z,,,,,,,,,,,6861.799999427749,completion,,,,,,,low,high,,,,,,,false,,,,,true,676764.8000001907,676764.5999994278,669886.1,669980.8999996185,669902.8,676675,1,40,,
trial,html.Screen,8_2_0,2024-03-07T16:08:45.068Z,,,,2,-0.0199950873045219,-0.0172506388509166,,0.04,false,hl,4964.199999809265,response,1.075512775389519,1.15,-1.15,-1.0454702683049502,1.15,-1.15,high,low,,ISIC_0029906.JPG,,ISIC_0033603.JPG,28,26,false,0.40000000000000024,lh,keypress(e),0,true,681639.5,681639.1999998093,676670.136,676764.8000001907,676675,681545.8,1,40,3,
sequence,flow.Sequence,8_2,2024-03-07T16:08:45.068Z,,,,,,,,,,,4964.199999809265,completion,,,,,,,high,low,,,,,,,false,,,,,true,681640.0999994278,681639.1999998093,676670.136,676764.8000001907,676675,681545.8,1,40,,
trial,html.Screen,8_3_0,2024-03-07T16:08:54.339Z,,,,2,0.0308384937406319,-0.0038396364323947,,0.04,false,lh,9364.699999999953,response,-0.9244148283103414,1.15,-1.15,0.9712966348713286,1.15,-1.15,low,high,,ISIC_0029825.JPG,,ISIC_7927525.JPG,28,26,false,0.3500000000000002,ll,keypress(f),0,true,690910.5999994278,690910.5,681542.612,681640.3000001907,681545.8,690820.1,1,40,4,
sequence,flow.Sequence,8_3,2024-03-07T16:08:54.339Z,,,,,,,,,,,9364.699999999953,completion,,,,,,,low,high,,,,,,,false,,,,,true,690910.8000001907,690910.5,681542.612,681640.1999998093,681545.8,690820.1,1,40,,
trial,html.Screen,8_4_0,2024-03-07T16:08:57.284Z,,,,2,-0.0198696495649504,0.0387952353063878,,0.04,true,hh,3035.200000190758,response,1.2219550761700546,1.15,-1.0999999999999999,1.2809901875733454,1.15,-1.15,high,high,,ISIC_6735970.JPG,,ISIC_6463417.JPG,28,27,false,0.14,hh,keypress(i),0,true,693855.8000001907,693855.3000001907,690813.026,690910.8000001907,690820.1,693772.4,1,40,5,
sequence,flow.Sequence,8_4,2024-03-07T16:08:57.285Z,,,,,,,,,,,3035.200000190758,completion,,,,,,,high,high,,,,,,,false,,,,,true,693856.5,693855.3000001907,690813.026,690910.8000001907,690820.1,693772.4,1,40,,
trial,html.Screen,8_5_0,2024-03-07T16:09:02.763Z,,,,2,-0.0374659946425444,-0.0086043094957617,,0.04,false,hl,5562.299999809242,response,0.8830264383952469,1.15,-1.0999999999999999,-0.8635562538060516,1.15,-1.15,high,low,,ISIC_0033051.JPG,,ISIC_0032258.JPG,28,26,false,0.40000000000000024,hh,keypress(i),0,true,699335,699334.6999998093,693770.922,693856.8000001907,693772.4,699243.7,1,40,6,
sequence,flow.Sequence,8_5,2024-03-07T16:09:02.764Z,,,,,,,,,,,5562.299999809242,completion,,,,,,,high,low,,,,,,,false,,,,,true,699335.5999994278,699334.6999998093,693770.922,693856.6999998093,693772.4,699243.7,1,40,,
trial,html.Screen,8_6_0,2024-03-07T16:09:05.236Z,,,,2,0.0200295718112167,0.0155559071275806,,0.04,true,ll,2563.4999998093117,response,-1.1392972253022884,1.032008312984296,-1.0999999999999999,-1.208510423375335,1.15,-1.15,low,low,,ISIC_0061343.JPG,,ISIC_0046526.JPG,28,27,false,0.1,ll,keypress(f),0,true,701807.5999994278,701807.1999998093,699240.088,699335.8000001907,699243.7,701712.4,1,40,7,
sequence,flow.Sequence,8_6,2024-03-07T16:09:05.236Z,,,,,,,,,,,2563.4999998093117,completion,,,,,,,low,low,,,,,,,false,,,,,true,701808.0999994278,701807.1999998093,699240.088,699335.8000001907,699243.7,701712.4,1,40,,
trial,html.Screen,8_7_0,2024-03-07T16:09:11.340Z,,,,2,0.0044063257337227,0.0172548282859886,,0.04,false,ll,6198.799999809242,response,-1.0769708994456726,1.032008312984296,-1.0999999999999999,-1.2196503533725178,1.15,-1.15,low,low,,ISIC_7413786.JPG,,ISIC_0063824.JPG,28,27,false,0.1,hl,keypress(j),0,true,707911.5999994278,707911.1999998093,701711.208,701808.3000001907,701712.4,707817.4,1,40,8,
sequence,flow.Sequence,8_7,2024-03-07T16:09:11.340Z,,,,,,,,,,,6198.799999809242,completion,,,,,,,low,low,,,,,,,false,,,,,true,707912.0999994278,707911.1999998093,701711.208,701808.1999998093,701712.4,707817.4,1,40,,
trial,html.Screen,8_8_0,2024-03-07T16:09:14.308Z,,,,2,0.0286056110007553,0.036125199756515,,0.04,true,hh,3061.699999427772,response,1.077278111180185,1.032008312984296,-1.15,1.1530533996184025,1.15,-1.1640803883739264,high,high,,ISIC_6535558.JPG,,ISIC_9525136.JPG,28,27,false,0.13,hh,keypress(i),0,true,710879.5,710879.0999994278,707813.296,707912.3000001907,707817.4,710786.5,1,40,9,
sequence,flow.Sequence,8_8,2024-03-07T16:09:14.308Z,,,,,,,,,,,3061.699999427772,completion,,,,,,,high,high,,,,,,,false,,,,,true,710880.0999994278,710879.0999994278,707813.296,707912.3000001907,707817.4,710786.5,1,40,,
trial,html.Screen,8_9_0,2024-03-07T16:09:19.277Z,,,,2,0.0009714874637896,-0.0174815595031679,,0.04,true,ll,5060.5,response,-1.063036912656269,1.032008312984296,-1.15,-1.1534875859179432,1.0651657553992937,-1.1640803883739264,low,low,,ISIC_9848743.JPG,,ISIC_0010772.JPG,28,25,false,0.1,ll,keypress(f),0,true,715847.5999994278,715847,710784.988,710880.3999996185,710786.5,715757.3,1,40,10,
sequence,flow.Sequence,8_9,2024-03-07T16:09:19.277Z,,,,,,,,,,,5060.5,completion,,,,,,,low,low,,,,,,,false,,,,,true,715848.1999998093,715847,710784.988,710880.1999998093,710786.5,715757.3,1,40,,
trial,html.Screen,8_10_0,2024-03-07T16:09:22.333Z,,,,2,0.0118382036798625,0.0300588245877227,,0.04,true,ll,3146.0000001906883,response,-1.2033647433750492,1.032008312984296,-1.15,-1.0718012192341555,1.0651657553992937,-1.1640803883739264,low,low,,ISIC_4748605.JPG,,ISIC_0061606.JPG,28,25,false,0.1,ll,keypress(f),0,true,718903.6999998093,718903.3000001907,715754.108,715848.3999996185,715757.3,718809.8,1,40,11,
sequence,flow.Sequence,8_10,2024-03-07T16:09:22.333Z,,,,,,,,,,,3146.0000001906883,completion,,,,,,,low,low,,,,,,,false,,,,,true,718904.3000001907,718903.3000001907,715754.108,715848.3000001907,715757.3,718809.8,1,40,,
trial,html.Screen,8_11_0,2024-03-07T16:09:35.565Z,,,,2,0.0367706518941078,-0.0161069838272154,,0.04,false,lh,13325.599999618484,response,-0.9544693251394116,1.032008312984296,-1.0626444025760493,1.0727539917203766,1.0651657553992937,-1.0626444025760493,low,high,,ISIC_0033419.JPG,,ISIC_0055147.JPG,28,25,false,0.2600000000000001,hh,keypress(i),0,true,732135.8999996185,732135.3999996185,718808.018,718904.5,718809.8,732054.4,1,40,12,
sequence,flow.Sequence,8_11,2024-03-07T16:09:35.566Z,,,,,,,,,,,13325.599999618484,completion,,,,,,,low,high,,,,,,,false,,,,,true,732136.5,732135.3999996185,718808.018,718904.3999996185,718809.8,732054.4,1,40,,
trial,html.Screen,8_12_0,2024-03-07T16:09:38.060Z,,,,2,0.0283578106329894,-0.0088840758711548,,0.04,true,ll,2576.199999427772,response,-1.0773466327271526,1.032008312984296,-1.1126444025760494,-1.1601445610079184,1.0651657553992937,-1.0626444025760493,low,low,,ISIC_0060707.JPG,,ISIC_0055169.JPG,28,33,false,0.1,ll,keypress(f),0,true,734631,734630.5999994278,732027.112,732136.6999998093,732054.4,734539.5,1,40,13,
sequence,flow.Sequence,8_12,2024-03-07T16:09:38.060Z,,,,,,,,,,,2576.199999427772,completion,,,,,,,low,low,,,,,,,false,,,,,true,734631.3999996185,734630.5999994278,732027.112,732136.6999998093,732054.4,734539.5,1,40,,
trial,html.Screen,8_13_0,2024-03-07T16:09:47.653Z,,,,2,0.0367744112927588,0.0324865661712824,,0.04,true,hl,9683.800000190735,response,0.7308116448711435,1.032008312984296,-1.1126444025760494,-0.908713834988551,1.0651657553992937,-1.0626444025760493,high,low,,ISIC_4523565.JPG,,ISIC_7811951.JPG,28,27,false,0.31000000000000016,hl,keypress(j),0,true,744223.5999994278,744223.3000001907,734538.54,734631.6999998093,734539.5,744140.156,1,40,14,
sequence,flow.Sequence,8_13,2024-03-07T16:09:47.653Z,,,,,,,,,,,9683.800000190735,completion,,,,,,,high,low,,,,,,,false,,,,,true,744224.1999998093,744223.3000001907,734538.54,734631.5,734539.5,744140.156,1,40,,
trial,html.Screen,8_14_0,2024-03-07T16:09:53.067Z,,,,2,0.0119001144851157,-0.0063430114540141,,0.04,false,lh,5497.543999809306,response,-0.8350129142228142,0.982008312984296,-1.1126444025760494,0.8172547818270586,1.0651657553992937,-0.9844291979982347,low,high,,ISIC_0003822.JPG,,ISIC_0301568.JPG,28,26,false,0.29000000000000015,ll,keypress(f),0,true,749638,749637.6999998093,744140.156,744224.3999996185,744140.156,749551.9,1,40,15,
sequence,flow.Sequence,8_14,2024-03-07T16:09:53.067Z,,,,,,,,,,,5497.543999809306,completion,,,,,,,low,high,,,,,,,false,,,,,true,749638.1999998093,749637.6999998093,744140.156,744224.3000001907,744140.156,749551.9,1,40,,
trial,html.Screen,8_15_0,2024-03-07T16:10:00.909Z,,,,2,-0.0065172941585523,0.0118857043117315,,0.04,false,hl,7927.299999809242,response,0.8513427412482127,0.982008312984296,-0.9475787376153663,-0.9295303568095064,1.1151657553992937,-0.9844291979982347,high,low,,ISIC_6119202.JPG,,ISIC_0034164.JPG,28,28,false,0.2600000000000001,hh,keypress(i),0,true,757479.5999994278,757479.1999998093,749548.324,749638.3999996185,749551.9,757391.7,1,40,16,
sequence,flow.Sequence,8_15,2024-03-07T16:10:00.909Z,,,,,,,,,,,7927.299999809242,completion,,,,,,,high,low,,,,,,,false,,,,,true,757480.1999998093,757479.1999998093,749548.324,749638.3000001907,749551.9,757391.7,1,40,,
trial,html.Screen,8_16_0,2024-03-07T16:10:09.097Z,,,,2,0.0119001144851157,-0.0063430114540141,,0.04,false,hl,8276.600000190781,response,1.058275612142778,0.982008312984296,-0.9475787376153663,-0.7824898568540655,1.1151657553992937,-1.0344291979982347,high,low,,ISIC_0003822.JPG,,ISIC_4906385.JPG,28,27,false,0.28000000000000014,ll,keypress(f),0,true,765668.3999996185,765668.3000001907,757385.884,757480.5,757391.7,765581.7,1,40,17,
sequence,flow.Sequence,8_16,2024-03-07T16:10:09.098Z,,,,,,,,,,,8276.600000190781,completion,,,,,,,high,low,,,,,,,false,,,,,true,765668.5,765668.3000001907,757385.884,757480.3999996185,757391.7,765581.7,1,40,,
trial,html.Screen,8_17_0,2024-03-07T16:10:20.171Z,,,,2,0.0308384937406319,-0.0038396364323947,,0.04,false,hh,11159.899999427842,response,0.9798314852960236,1.032008312984296,-0.9475787376153663,1.167024525807191,1.1151657553992937,-1.0344291979982347,high,high,,ISIC_0029825.JPG,,ISIC_4341261.JPG,28,25,false,0.11,hl,keypress(j),0,true,776741.8000001907,776741.5999994278,765565.2,765668.5,765581.7,776657.5,1,40,18,
sequence,flow.Sequence,8_17,2024-03-07T16:10:20.171Z,,,,,,,,,,,11159.899999427842,completion,,,,,,,high,high,,,,,,,false,,,,,true,776742,776741.5999994278,765565.2,765668.5,765581.7,776657.5,1,40,,
trial,html.Screen,8_18_0,2024-03-07T16:10:29.788Z,,,,2,0.0044063257337227,0.0172548282859886,,0.04,false,lh,9701.5,response,-0.7396001261916139,1.032008312984296,-0.9475787376153663,0.9901017340796716,1.1651657553992938,-1.0344291979982347,low,high,,ISIC_7413786.JPG,,ISIC_8679617.JPG,28,29,false,0.28000000000000014,ll,keypress(f),0,true,786359.3000001907,786359,776648.83,776742,776657.5,786265.6,1,40,19,
sequence,flow.Sequence,8_18,2024-03-07T16:10:29.789Z,,,,,,,,,,,9701.5,completion,,,,,,,low,high,,,,,,,false,,,,,true,786359.8999996185,786359,776648.83,776742,776657.5,786265.6,1,40,,
trial,html.Screen,8_19_0,2024-03-07T16:10:32.524Z,,,,2,0.0308384937406319,-0.0038396364323947,,0.04,true,hh,2829.4999994278187,response,0.9282616082834076,1.032008312984296,-0.9475787376153663,1.1969427784335605,1.1651657553992938,-1.0344291979982347,high,high,,ISIC_0029825.JPG,,ISIC_6952773.JPG,28,25,false,0.13,hh,keypress(i),0,true,789095.3999996185,789095.0999994278,786258.146,786360.0999994278,786265.6,789001.1,1,40,20,
sequence,flow.Sequence,8_19,2024-03-07T16:10:32.525Z,,,,,,,,,,,2829.4999994278187,completion,,,,,,,high,high,,,,,,,false,,,,,true,789095.8999996185,789095.0999994278,786258.146,786360.0999994278,786265.6,789001.1,1,40,,
trial,html.Screen,8_20_0,2024-03-07T16:10:34.508Z,,,,2,-0.001445457736793,-0.0165307427449982,,0.04,true,hh,2078.0999998092884,response,1.033832433609739,1.012602193358484,-0.9475787376153663,1.139863018685685,1.1651657553992938,-1.0344291979982347,high,high,,ISIC_0027350.JPG,,ISIC_0008510.JPG,28,26,false,0.13,hh,keypress(i),0,true,791079.5,791079.1999998093,788999.764,789096.0999994278,789001.1,790986.2,1,40,21,
sequence,flow.Sequence,8_20,2024-03-07T16:10:34.509Z,,,,,,,,,,,2078.0999998092884,completion,,,,,,,high,high,,,,,,,false,,,,,true,791080,791079.1999998093,788999.764,789096.0999994278,789001.1,790986.2,1,40,,
trial,html.Screen,8_21_0,2024-03-07T16:10:37.364Z,,,,2,0.0119001144851157,-0.0063430114540141,,0.04,true,ll,2948.8000000000466,response,-0.8932499910364976,1.012602193358484,-0.9475787376153663,-1.0367498890350624,1.036847726147712,-1.0344291979982347,low,low,,ISIC_0003822.JPG,,ISIC_0030106.JPG,28,34,false,0.1,ll,keypress(f),0,true,793935.3999996185,793935,790985.594,791080.0999994278,790986.2,793838.5,1,40,22,
sequence,flow.Sequence,8_21,2024-03-07T16:10:37.365Z,,,,,,,,,,,2948.8000000000466,completion,,,,,,,low,low,,,,,,,false,,,,,true,793936,793935,790985.594,791080.0999994278,790986.2,793838.5,1,40,,
trial,html.Screen,8_22_0,2024-03-07T16:10:39.379Z,,,,2,0.0119001144851157,-0.0063430114540141,,0.04,true,ll,2111.199999809265,response,-0.8949188450526304,1.012602193358484,-0.8975787376153662,-0.9064772839637844,1.036847726147712,-0.9844291979982347,low,low,,ISIC_0003822.JPG,,ISIC_0057067.JPG,28,43,false,0.1,ll,keypress(f),0,true,795949.8000001907,795949.6999998093,793836.916,793936.3000001907,793838.5,795856.6,1,40,23,
sequence,flow.Sequence,8_22,2024-03-07T16:10:39.379Z,,,,,,,,,,,2111.199999809265,completion,,,,,,,low,low,,,,,,,false,,,,,true,795950,795949.6999998093,793836.916,793936.1999998093,793838.5,795856.6,1,40,,
trial,html.Screen,8_23_0,2024-03-07T16:10:43.285Z,,,,2,-0.039520186367207,-0.0377961575607372,,0.04,false,lh,3998.700000190758,response,-0.7079689798840642,1.012602193358484,-0.8975787376153662,0.9053957126199562,1.036847726147712,-0.9844291979982347,low,high,,ISIC_6356149.JPG,,ISIC_0058863.JPG,28,28,false,0.22000000000000008,hh,keypress(i),0,true,799855.6999998093,799855.3000001907,795840.3,795950,795856.6,799760,1,40,24,
sequence,flow.Sequence,8_23,2024-03-07T16:10:43.285Z,,,,,,,,,,,3998.700000190758,completion,,,,,,,low,high,,,,,,,false,,,,,true,799856.1999998093,799855.3000001907,795840.3,795950,795856.6,799760,1,40,,
trial,html.Screen,8_24_0,2024-03-07T16:10:46.300Z,,,,2,-0.0388334549081915,0.0303399972963369,,0.04,true,hh,3110.699999809265,response,1.0161855018674797,1.012602193358484,-0.9475787376153663,1.1331366334676347,1.036847726147712,-0.9844291979982347,high,high,,ISIC_4961708.JPG,,ISIC_3521671.JPG,28,26,false,0.1,hh,keypress(i),0,true,802871.0999994278,802870.6999998093,799757.684,799856.5999994278,799760,802779.2,1,40,25,
sequence,flow.Sequence,8_24,2024-03-07T16:10:46.301Z,,,,,,,,,,,3110.699999809265,completion,,,,,,,high,high,,,,,,,false,,,,,true,802871.5999994278,802870.6999998093,799757.684,799856.3999996185,799760,802779.2,1,40,,
trial,html.Screen,8_25_0,2024-03-07T16:10:50.028Z,,,,2,-0.0199950873045219,-0.0172506388509166,,0.04,true,hh,3819.1000001907814,response,1.008831959223626,0.9692661730437955,-0.9475787376153663,0.9823409524664072,0.9692661730437955,-0.9844291979982347,high,high,,ISIC_0029906.JPG,,ISIC_1579745.JPG,28,36,false,0.11,hh,keypress(i),0,true,806598.5999994278,806598.3000001907,802777.286,802871.8999996185,802779.2,806515.5,1,40,26,
sequence,flow.Sequence,8_25,2024-03-07T16:10:50.028Z,,,,,,,,,,,3819.1000001907814,completion,,,,,,,high,high,,,,,,,false,,,,,true,806599.0999994278,806598.3000001907,802777.286,802871.8999996185,802779.2,806515.5,1,40,,
trial,html.Screen,8_26_0,2024-03-07T16:10:53.100Z,,,,2,0.0308384937406319,-0.0038396364323947,,0.04,false,lh,3155.0999994277954,response,-1.004142980655507,0.9692661730437955,-0.9475787376153663,0.7749773174967559,0.9692661730437955,-0.9844291979982347,low,high,,ISIC_0029825.JPG,,ISIC_3936223.JPG,28,27,false,0.20000000000000007,ll,keypress(f),0,true,809671,809670.5999994278,806499.2,806599.1999998093,806515.5,809584.9,1,40,27,
sequence,flow.Sequence,8_26,2024-03-07T16:10:53.100Z,,,,,,,,,,,3155.0999994277954,completion,,,,,,,low,high,,,,,,,false,,,,,true,809671.3999996185,809670.5999994278,806499.2,806599.1999998093,806515.5,809584.9,1,40,,
trial,html.Screen,8_27_0,2024-03-07T16:10:54.980Z,,,,2,-0.0241900387072296,0.0339955304424736,,0.04,true,hh,1965.999999618507,response,0.9833548049624848,0.9692661730437955,-0.9475787376153663,0.9129629471000654,1.0192661730437955,-0.9844291979982347,high,high,,ISIC_0010789.JPG,,ISIC_0000848.JPG,28,35,false,0.11,hh,keypress(i),0,true,811551.1999998093,811550.8999996185,809568.3,809671.6999998093,809584.9,811471.2,1,40,28,
sequence,flow.Sequence,8_27,2024-03-07T16:10:54.981Z,,,,,,,,,,,1965.999999618507,completion,,,,,,,high,high,,,,,,,false,,,,,true,811551.8000001907,811550.8999996185,809568.3,809671.5999994278,809584.9,811471.2,1,40,,
trial,html.Screen,8_28_0,2024-03-07T16:11:02.196Z,,,,2,-0.0164027439304477,0.0082910758715273,,0.04,false,lh,7295.600000190781,response,-1.0685314915436992,0.8981588760312751,-0.9475787376153663,0.8203833713472237,1.0192661730437955,-0.9844291979982347,low,high,,ISIC_7381224.JPG,,ISIC_0029374.JPG,28,25,false,0.22000000000000008,hl,keypress(j),0,true,818767.0999994278,818766.8000001907,811452.332,811552.0999994278,811471.2,818675.6,1,40,29,
sequence,flow.Sequence,8_28,2024-03-07T16:11:02.197Z,,,,,,,,,,,7295.600000190781,completion,,,,,,,low,high,,,,,,,false,,,,,true,818767.6999998093,818766.8000001907,811452.332,811551.8999996185,811471.2,818675.6,1,40,,
trial,html.Screen,8_29_0,2024-03-07T16:11:07.482Z,,,,2,0.0286056110007553,0.036125199756515,,0.04,false,hl,5376.999999427819,response,0.8472024037189965,0.8981588760312751,-0.9975787376153663,-0.986370061404882,1.0692661730437956,-0.9844291979982347,high,low,,ISIC_6535558.JPG,,ISIC_0054355.JPG,28,25,false,0.21000000000000008,lh,keypress(e),0,true,824052.6999998093,824052.5999994278,818670.912,818767.8999996185,818675.6,823963.3,1,40,30,
sequence,flow.Sequence,8_29,2024-03-07T16:11:07.482Z,,,,,,,,,,,5376.999999427819,completion,,,,,,,high,low,,,,,,,false,,,,,true,824052.8999996185,824052.5999994278,818670.912,818767.8999996185,818675.6,823963.3,1,40,,
trial,html.Screen,8_30_0,2024-03-07T16:11:09.610Z,,,,2,0.0286056110007553,0.036125199756515,,0.04,true,ll,2218.0999996184837,response,-1.0593040390975434,0.9481588760312751,-0.9975787376153663,-1.0413442695273454,1.0692661730437956,-1.0344291979982347,low,low,,ISIC_6535558.JPG,,ISIC_0061293.JPG,28,42,false,0.1,ll,keypress(f),0,true,826181.5,826181.3999996185,823946.8,824052.8999996185,823963.3,826098.6,1,40,31,
sequence,flow.Sequence,8_30,2024-03-07T16:11:09.610Z,,,,,,,,,,,2218.0999996184837,completion,,,,,,,low,low,,,,,,,false,,,,,true,826181.5,826181.3999996185,823946.8,824052.8999996185,823963.3,826098.6,1,40,,
trial,html.Screen,8_31_0,2024-03-07T16:11:16.900Z,,,,2,0.0367706518941078,-0.0161069838272154,,0.04,false,hl,7371.700000190758,response,0.8830264383952469,0.9481588760312751,-0.9975787376153663,-0.8635562538060516,1.0692661730437956,-1.0344291979982347,high,low,,ISIC_0033419.JPG,,ISIC_0032258.JPG,28,27,false,0.2600000000000001,hh,keypress(i),0,true,833470.5999994278,833470.3000001907,826080.478,826181.5,826098.6,833387.9,1,40,32,
sequence,flow.Sequence,8_31,2024-03-07T16:11:16.900Z,,,,,,,,,,,7371.700000190758,completion,,,,,,,high,low,,,,,,,false,,,,,true,833471,833470.3000001907,826080.478,826181.5,826098.6,833387.9,1,40,,
trial,html.Screen,8_32_0,2024-03-07T16:11:27.250Z,,,,2,0.0367744112927588,0.0324865661712824,,0.04,true,hl,10433.199999427772,response,0.9754077946987664,0.9481588760312751,-0.9975787376153663,-1.1821868813141057,1.0692661730437956,-1.0844291979982348,high,low,,ISIC_4523565.JPG,,ISIC_0024317.JPG,28,26,false,0.28000000000000014,hl,keypress(j),0,true,843821.3000001907,843821.0999994278,833371.3,833471.0999994278,833387.9,843729.6,1,40,33,
sequence,flow.Sequence,8_32,2024-03-07T16:11:27.250Z,,,,,,,,,,,10433.199999427772,completion,,,,,,,high,low,,,,,,,false,,,,,true,843821.3999996185,843821.0999994278,833371.3,833471.0999994278,833387.9,843729.6,1,40,,
trial,html.Screen,8_33_0,2024-03-07T16:11:29.428Z,,,,2,-0.0199950873045219,-0.0172506388509166,,0.04,true,hh,2269.200000190758,response,0.9170020765489288,0.8981588760312751,-0.9975787376153663,1.1743572988147262,1.0692661730437956,-1.0844291979982348,high,high,,ISIC_0029906.JPG,,ISIC_5458290.JPG,28,29,false,0.11,hh,keypress(i),0,true,845999.1999998093,845998.8000001907,843721.86,843821.5,843729.6,845914.8,1,40,34,
sequence,flow.Sequence,8_33,2024-03-07T16:11:29.429Z,,,,,,,,,,,2269.200000190758,completion,,,,,,,high,high,,,,,,,false,,,,,true,845999.6999998093,845998.8000001907,843721.86,843821.3999996185,843729.6,845914.8,1,40,,
trial,html.Screen,8_34_0,2024-03-07T16:11:35.045Z,,,,2,-0.0109416414475118,-0.005246498750811,,0.04,true,ll,5700.599999618484,response,-1.0454436589399478,0.8981588760312751,-0.9975787376153663,-1.110086733022912,1.0692661730437956,-1.0844291979982348,low,low,,ISIC_0064279.JPG,,ISIC_0053916.JPG,28,46,false,0.1,ll,keypress(f),0,true,851615.8999996185,851615.3999996185,845898.4,845999.8999996185,845914.8,851532.282,1,40,35,
sequence,flow.Sequence,8_34,2024-03-07T16:11:35.045Z,,,,,,,,,,,5700.599999618484,completion,,,,,,,low,low,,,,,,,false,,,,,true,851616.5,851615.3999996185,845898.4,845999.8000001907,845914.8,851532.282,1,40,,
trial,html.Screen,8_35_0,2024-03-07T16:11:44.210Z,,,,2,0.0009714874637896,-0.0174815595031679,,0.04,true,lh,9248.617999618524,response,-0.9138670886161264,0.8981588760312751,-0.9475787376153663,0.8414121478342018,1.0692661730437956,-1.0344291979982347,low,high,,ISIC_9848743.JPG,,ISIC_6709052.JPG,28,25,false,0.2400000000000001,lh,keypress(e),0,true,860781,860780.8999996185,851532.282,851616.8999996185,851532.282,860693.6,1,40,36,
sequence,flow.Sequence,8_35,2024-03-07T16:11:44.210Z,,,,,,,,,,,9248.617999618524,completion,,,,,,,low,high,,,,,,,false,,,,,true,860781.0999994278,860780.8999996185,851532.282,851616.8000001907,851532.282,860693.6,1,40,,
trial,html.Screen,8_36_0,2024-03-07T16:11:47.412Z,,,,2,0.0367706518941078,-0.0161069838272154,,0.04,true,hh,3289.0999998092884,response,0.8326661044614712,0.8981588760312751,-0.9475787376153663,1.0208030773499672,1.0192661730437955,-1.0344291979982347,high,high,,ISIC_0033419.JPG,,ISIC_4477599.JPG,28,26,false,0.1,hh,keypress(i),0,true,863983.0999994278,863982.6999998093,860677,860781.0999994278,860693.6,863896.5,1,40,37,
sequence,flow.Sequence,8_36,2024-03-07T16:11:47.413Z,,,,,,,,,,,3289.0999998092884,completion,,,,,,,high,high,,,,,,,false,,,,,true,863983.5999994278,863982.6999998093,860677,860781.0999994278,860693.6,863896.5,1,40,,
trial,html.Screen,8_37_0,2024-03-07T16:11:57.644Z,,,,2,0.0283578106329894,-0.0088840758711548,,0.04,true,ll,10318.300000190735,response,-0.9575090175925351,0.8767345909057191,-0.9475787376153663,-1.0307816252475666,1.0192661730437955,-1.0344291979982347,low,low,,ISIC_0060707.JPG,,ISIC_1369273.JPG,28,34,false,0.1,ll,keypress(f),0,true,874215,874214.8000001907,863879.8,863983.8999996185,863896.5,874121.3,1,40,38,
sequence,flow.Sequence,8_37,2024-03-07T16:11:57.644Z,,,,,,,,,,,10318.300000190735,completion,,,,,,,low,low,,,,,,,false,,,,,true,874215.3000001907,874214.8000001907,863879.8,863983.8000001907,863896.5,874121.3,1,40,,
trial,html.Screen,8_38_0,2024-03-07T16:12:13.631Z,,,,2,-0.0199950873045219,-0.0172506388509166,,0.04,,,16013.29999999993,timeout,0.7991459998473059,0.8767345909057191,-0.9441453214200508,-1.0280788723474688,1.0192661730437955,-1.0344291979982347,high,low,,ISIC_0029906.JPG,,ISIC_7951202.JPG,28,26,false,0.2300000000000001,,,0,true,890202.5,890202.1999998093,874113.698,874215.5999994278,874121.3,890134.6,1,40,39,
sequence,flow.Sequence,8_38,2024-03-07T16:12:13.632Z,,,,,,,,,,,16080.899999809219,completion,,,,,,,high,low,,,,,,,false,,,,,true,890202.8000001907,890202.1999998093,874113.698,874215.5,874121.3,890134.6,1,40,,
trial,html.Screen,8_39_0,2024-03-07T16:12:19.300Z,,,,2,-0.0388334549081915,0.0303399972963369,,0.04,false,hl,5736.200000190758,response,0.8472024037189965,0.8767345909057191,-0.9441453214200508,-0.986370061404882,1.0192661730437955,-1.0344291979982347,high,low,,ISIC_4961708.JPG,,ISIC_0054355.JPG,28,26,false,0.2300000000000001,lh,keypress(e),0,true,895871.1999998093,895870.8000001907,890117.9,890202.8999996185,890134.6,895806.2,1,40,40,
sequence,flow.Sequence,8_39,2024-03-07T16:12:19.301Z,,,,,,,,,,,5736.200000190758,completion,,,,,,,high,low,,,,,,,false,,,,,true,895871.8999996185,895870.8000001907,890117.9,890202.8999996185,890134.6,895806.2,1,40,,
stair_loop,flow.Loop,8,2024-03-07T16:12:19.301Z,,,,,,,,,,,241981.30000019073,completion,,,,,,,,,,,,,,,false,,,,,true,895872.1999998093,895870.8000001907,653872.9,653980.8000001907,653889.5,895806.2,1,40,,
exp_instructions,html.Screen,9,2024-03-07T16:12:40.764Z,,,,,,,,,,,21527.699999618577,response,,,,,,,,,,,,,,,,,continue,keypress(Space),,,917335.1999998093,917333.8999996185,895789.3,895872.3999996185,895806.2,917240.3,,,,
trial,html.Screen,10_0_0,2024-03-07T16:12:45.570Z,,,,1,0,-0.0102871556606504,,0.04,false,hl,4900.500000190688,response,0.7010101889216934,0.9417221571461221,-0.9572353959958351,-0.9022783418178474,1.0425774627823539,-1.021929197998235,high,low,,ISIC_1805163.JPG,9,ISIC_0057858.JPG,28,28,false,0.2600000000000001,ll,keypress(f),0,false,922141,922140.8000001907,917238.676,917335.5999994278,917240.3,922044.2,5,600,1,
break,html.Screen,10_0_1,2024-03-07T16:12:45.571Z,,,,,,,,,,,NaN,,,,,,,,high,low,,,,,,,false,,,,,false,922141.5,922141.3999996185,,922141.0999994278,,922044.2,5,600,,
break_continue,html.Screen,10_0_2,2024-03-07T16:12:45.571Z,,,,,,,,,,,NaN,,,,,,,,high,low,,,,,,,false,,,,,false,922142,922141.8000001907,,922141.6999998093,,922044.2,5,600,,
sequence,flow.Sequence,10_0,2024-03-07T16:12:45.571Z,,,,,,,,,,,4901.500000190688,completion,,,,,,,high,low,,,,,,,false,,,,,false,922142.0999994278,922141.8000001907,917238.676,917335.5999994278,917240.3,922044.2,5,600,,
trial,html.Screen,10_1_0,2024-03-07T16:12:53.757Z,,,,1,0.0118382036798625,0.0300588245877227,,0.04,false,ll,8283.100000190781,response,-0.8663139955905144,0.9417221571461221,-0.9572353959958351,-0.940959443919478,1.0425774627823539,-1.021929197998235,low,low,,ISIC_4748605.JPG,9,ISIC_0010040.JPG,28,32,false,0.1,lh,keypress(e),0,false,930327.5999994278,930327.3000001907,922041.082,922142.1999998093,922044.2,930234.4,5,600,2,
break,html.Screen,10_1_1,2024-03-07T16:12:53.758Z,,,,,,,,,,,NaN,,,,,,,,low,low,,,,,,,false,,,,,false,930329.3000001907,930328.6999998093,,930328,,930234.4,5,600,,
break_continue,html.Screen,10_1_2,2024-03-07T16:12:53.760Z,,,,,,,,,,,NaN,,,,,,,,low,low,,,,,,,false,,,,,false,930330.5999994278,930330.0999994278,,930329.5999994278,,930234.4,5,600,,
sequence,flow.Sequence,10_1,2024-03-07T16:12:53.760Z,,,,,,,,,,,8285.899999427842,completion,,,,,,,low,low,,,,,,,false,,,,,false,930330.8999996185,930330.0999994278,922041.082,922142.1999998093,922044.2,930234.4,5,600,,
trial,html.Screen,10_2_0,2024-03-07T16:12:57.820Z,,,,1,0.0044063257337227,0.0172548282859886,,0.04,true,lh,4156.400000190712,response,-0.9138670886161264,0.9417221571461221,-0.9572353959958351,0.8414121478342018,1.0425774627823539,-1.021929197998235,low,high,,ISIC_7413786.JPG,9,ISIC_6709052.JPG,28,26,false,0.2300000000000001,lh,keypress(e),0,false,934391.0999994278,934390.8000001907,930228.246,930331.1999998093,930234.4,934304.4,5,600,3,
break,html.Screen,10_2_1,2024-03-07T16:12:57.822Z,,,,,,,,,,,NaN,,,,,,,,low,high,,,,,,,false,,,,,false,934392.5999994278,934392.1999998093,,934391.5999994278,,934304.4,5,600,,
break_continue,html.Screen,10_2_2,2024-03-07T16:12:57.823Z,,,,,,,,,,,NaN,,,,,,,,low,high,,,,,,,false,,,,,false,934393.8000001907,934393.1999998093,,934392.8999996185,,934304.4,5,600,,
sequence,flow.Sequence,10_2,2024-03-07T16:12:57.823Z,,,,,,,,,,,4158.799999809242,completion,,,,,,,low,high,,,,,,,false,,,,,false,934394,934393.1999998093,930228.246,930331,930234.4,934304.4,5,600,,
trial,html.Screen,10_3_0,2024-03-07T16:13:02.420Z,,,,1,-0.0199950873045219,-0.0172506388509166,,0.04,true,hh,4686.599999999977,response,0.8919402924145458,0.9417221571461221,-0.9572353959958351,1.0374085478567705,1.0425774627823539,-1.021929197998235,high,high,,ISIC_0029906.JPG,9,ISIC_0026371.JPG,28,30,false,0.1,hh,keypress(i),0,false,938991.3999996185,938991,934287.8,934394.1999998093,934304.4,938908.3,5,600,4,
break,html.Screen,10_3_1,2024-03-07T16:13:02.422Z,,,,,,,,,,,NaN,,,,,,,,high,high,,,,,,,false,,,,,false,938992.8999996185,938992.5,,938991.8000001907,,938908.3,5,600,,
break_continue,html.Screen,10_3_2,2024-03-07T16:13:02.423Z,,,,,,,,,,,NaN,,,,,,,,high,high,,,,,,,false,,,,,false,938993.8999996185,938993.5,,938993.0999994278,,938908.3,5,600,,
sequence,flow.Sequence,10_3,2024-03-07T16:13:02.423Z,,,,,,,,,,,4689.099999999977,completion,,,,,,,high,high,,,,,,,false,,,,,false,938994.1999998093,938993.5,934287.8,934394.1999998093,934304.4,938908.3,5,600,,
trial,html.Screen,10_4_0,2024-03-07T16:13:04.659Z,,,,1,0.0220026381002083,-0.0170756452911772,,0.04,true,hh,2321.1999999999534,response,0.9394358755892184,0.9417221571461221,-0.9572353959958351,1.0256934713188917,1.0425774627823539,-1.021929197998235,high,high,,ISIC_5347806.JPG,9,ISIC_4264600.JPG,28,30,false,0.1,hh,keypress(i),0,false,941229.5999994278,941229.5,938891.6,938994.3999996185,938908.3,941143.6,5,600,5,
break,html.Screen,10_4_1,2024-03-07T16:13:04.659Z,,,,,,,,,,,NaN,,,,,,,,high,high,,,,,,,false,,,,,false,941230.3000001907,941230.0999994278,,941229.8000001907,,941143.6,5,600,,
break_continue,html.Screen,10_4_2,2024-03-07T16:13:04.660Z,,,,,,,,,,,NaN,,,,,,,,high,high,,,,,,,false,,,,,false,941230.8999996185,941230.6999998093,,941230.5,,941143.6,5,600,,
sequence,flow.Sequence,10_4,2024-03-07T16:13:04.660Z,,,,,,,,,,,2322.3999998092186,completion,,,,,,,high,high,,,,,,,false,,,,,false,941231,941230.6999998093,938891.6,938994.3000001907,938908.3,941143.6,5,600,,
trial,html.Screen,10_5_0,2024-03-07T16:13:08.900Z,,,,1,0.0118382036798625,0.0300588245877227,,0.04,true,hh,4327.200000190758,response,1.0325421457475312,0.9417221571461221,-0.9572353959958351,1.0219157566370058,1.0425774627823539,-1.021929197998235,high,high,,ISIC_4748605.JPG,9,ISIC_5336548.JPG,28,30,false,0.1,hh,keypress(i),0,false,945471.0999994278,945470.8000001907,941127,941231.1999998093,941143.6,945380.2,5,600,6,
break,html.Screen,10_5_1,2024-03-07T16:13:08.902Z,,,,,,,,,,,NaN,,,,,,,,high,high,,,,,,,false,,,,,false,945472.5,945472.0999994278,,945471.5,,945380.2,5,600,,
break_continue,html.Screen,10_5_2,2024-03-07T16:13:08.902Z,,,,,,,,,,,NaN,,,,,,,,high,high,,,,,,,false,,,,,false,945473.3999996185,945473.0999994278,,945472.6999998093,,945380.2,5,600,,
sequence,flow.Sequence,10_5,2024-03-07T16:13:08.903Z,,,,,,,,,,,4329.499999427819,completion,,,,,,,high,high,,,,,,,false,,,,,false,945473.6999998093,945473.0999994278,941127,941231.0999994278,941143.6,945380.2,5,600,,
trial,html.Screen,10_6_0,2024-03-07T16:13:10.948Z,,,,1,-0.0199950873045219,-0.0172506388509166,,0.04,false,lh,2138.8000000000466,response,-1.168911077628813,0.9417221571461221,-0.9572353959958351,1.2181838235193114,1.0425774627823539,-1.021929197998235,low,high,,ISIC_0029906.JPG,8,ISIC_7358691.JPG,28,26,false,0.2300000000000001,hh,keypress(i),0,false,947519.3999996185,947519,945379.656,945473.8999996185,945380.2,947431.9,5,600,7,
break,html.Screen,10_6_1,2024-03-07T16:13:10.950Z,,,,,,,,,,,NaN,,,,,,,,low,high,,,,,,,false,,,,,false,947521.0999994278,947520.6999998093,,947519.8999996185,,947431.9,5,600,,
break_continue,html.Screen,10_6_2,2024-03-07T16:13:10.951Z,,,,,,,,,,,NaN,,,,,,,,low,high,,,,,,,false,,,,,false,947522.1999998093,947521.8000001907,,947521.3999996185,,947431.9,5,600,,
sequence,flow.Sequence,10_6,2024-03-07T16:13:10.952Z,,,,,,,,,,,2141.6000001907814,completion,,,,,,,low,high,,,,,,,false,,,,,false,947522.5999994278,947521.8000001907,945379.656,945473.8999996185,945380.2,947431.9,5,600,,
trial,html.Screen,10_7_0,2024-03-07T16:13:19.980Z,,,,1,-0.0198696495649504,0.0387952353063878,,0.04,false,hh,9119.099999999977,response,1.008831959223626,0.9417221571461221,-0.9572353959958351,0.9823409524664072,1.0425774627823539,-1.021929197998235,high,high,,ISIC_6735970.JPG,9,ISIC_1579745.JPG,28,30,false,0.1,lh,keypress(e),0,false,956551.3999996185,956551,947415.3,947522.8000001907,947431.9,956456.1,5,600,8,
break,html.Screen,10_7_1,2024-03-07T16:13:19.982Z,,,,,,,,,,,NaN,,,,,,,,high,high,,,,,,,false,,,,,false,956553.0999994278,956552.5999994278,,956551.8999996185,,956456.1,5,600,,
break_continue,html.Screen,10_7_2,2024-03-07T16:13:19.983Z,,,,,,,,,,,NaN,,,,,,,,high,high,,,,,,,false,,,,,false,956554.1999998093,956553.8000001907,,956553.3999996185,,956456.1,5,600,,
sequence,flow.Sequence,10_7,2024-03-07T16:13:19.983Z,,,,,,,,,,,9121.900000190712,completion,,,,,,,high,high,,,,,,,false,,,,,false,956554.5,956553.8000001907,947415.3,947522.6999998093,947431.9,956456.1,5,600,,
trial,html.Screen,10_8_0,2024-03-07T16:13:30.188Z,,,,1,0.0118382036798625,0.0300588245877227,,0.04,true,hl,10302.999999427819,response,1.075512775389519,0.9417221571461221,-0.9572353959958351,-1.0454702683049502,1.0425774627823539,-1.021929197998235,high,low,,ISIC_4748605.JPG,9,ISIC_0033603.JPG,28,28,false,0.2600000000000001,hl,keypress(j),0,false,966759.5999994278,966759.0999994278,956455.356,956554.6999998093,956456.1,966664.558,5,600,9,
break,html.Screen,10_8_1,2024-03-07T16:13:30.190Z,,,,,,,,,,,NaN,,,,,,,,high,low,,,,,,,false,,,,,false,966761,966760.5999994278,,966759.8999996185,,966664.558,5,600,,
break_continue,html.Screen,10_8_2,2024-03-07T16:13:30.191Z,,,,,,,,,,,NaN,,,,,,,,high,low,,,,,,,false,,,,,false,966762.0999994278,966761.6999998093,,966761.3000001907,,966664.558,5,600,,
sequence,flow.Sequence,10_8,2024-03-07T16:13:30.191Z,,,,,,,,,,,10305.599999809288,completion,,,,,,,high,low,,,,,,,false,,,,,false,966762.3999996185,966761.6999998093,956455.356,956554.5999994278,956456.1,966664.558,5,600,,
trial,html.Screen,10_9_0,2024-03-07T16:13:38.100Z,,,,1,-0.0088741920055285,-0.0058246074740588,,0.04,false,hl,8006.242000190774,response,0.8828738626295417,0.9417221571461221,-0.9572353959958351,-0.8288177599439582,1.0425774627823539,-1.021929197998235,high,low,,ISIC_4136663.JPG,9,ISIC_0056041.JPG,28,28,false,0.2600000000000001,ll,keypress(f),0,false,974671.1999998093,974670.8000001907,966664.558,966762.5999994278,966664.558,974587.6,5,600,10,
break,html.Screen,10_9_1,2024-03-07T16:13:38.102Z,,,,,,,,,,,NaN,,,,,,,,high,low,,,,,,,false,,,,,false,974672.8000001907,974672.1999998093,,974671.5999994278,,974587.6,5,600,,
break_continue,html.Screen,10_9_2,2024-03-07T16:13:38.103Z,,,,,,,,,,,NaN,,,,,,,,high,low,,,,,,,false,,,,,false,974673.8000001907,974673.3999996185,,974673,,974587.6,5,600,,
sequence,flow.Sequence,10_9,2024-03-07T16:13:38.103Z,,,,,,,,,,,8008.841999618569,completion,,,,,,,high,low,,,,,,,false,,,,,false,974674.1999998093,974673.3999996185,966664.558,966762.5999994278,966664.558,974587.6,5,600,,
trial,html.Screen,10_10_0,2024-03-07T16:13:48.061Z,,,,1,-0.0065172941585523,0.0118857043117315,,0.04,true,lh,10043.799999618554,response,-0.9138670886161264,0.9417221571461221,-0.9572353959958351,0.8414121478342018,1.0425774627823539,-1.021929197998235,low,high,,ISIC_6119202.JPG,9,ISIC_6709052.JPG,28,26,false,0.2300000000000001,lh,keypress(e),0,false,984631.8000001907,984631.3999996185,974581.724,974674.3999996185,974587.6,984562.7,5,600,11,
break,html.Screen,10_10_1,2024-03-07T16:13:48.062Z,,,,,,,,,,,NaN,,,,,,,,low,high,,,,,,,false,,,,,false,984633,984632.8000001907,,984632.1999998093,,984562.7,5,600,,
break_continue,html.Screen,10_10_2,2024-03-07T16:13:48.063Z,,,,,,,,,,,NaN,,,,,,,,low,high,,,,,,,false,,,,,false,984634,984633.5,,984633.1999998093,,984562.7,5,600,,
sequence,flow.Sequence,10_10,2024-03-07T16:13:48.063Z,,,,,,,,,,,10045.900000000023,completion,,,,,,,low,high,,,,,,,false,,,,,false,984634.1999998093,984633.5,974581.724,974674.3000001907,974587.6,984562.7,5,600,,
trial,html.Screen,10_11_0,2024-03-07T16:13:51.452Z,,,,1,-0.0199950873045219,-0.0172506388509166,,0.04,true,ll,3459.899999427842,response,-0.9682677628288195,0.9417221571461221,-0.9572353959958351,-1.1060047717990744,1.0425774627823539,-1.021929197998235,low,low,,ISIC_0029906.JPG,9,ISIC_0011505.JPG,28,32,false,0.1,ll,keypress(f),0,false,988023.0999994278,988022.5999994278,984546.3,984634.3000001907,984562.7,987932.1,5,600,12,
break,html.Screen,10_11_1,2024-03-07T16:13:51.453Z,,,,,,,,,,,NaN,,,,,,,,low,low,,,,,,,false,,,,,false,988024.3999996185,988024.0999994278,,988023.3999996185,,987932.1,5,600,,
break_continue,html.Screen,10_11_2,2024-03-07T16:13:51.455Z,,,,,,,,,,,NaN,,,,,,,,low,low,,,,,,,false,,,,,false,988025.5999994278,988025.0999994278,,988024.8000001907,,987932.1,5,600,,
sequence,flow.Sequence,10_11,2024-03-07T16:13:51.455Z,,,,,,,,,,,3462.399999427842,completion,,,,,,,low,low,,,,,,,false,,,,,false,988025.8000001907,988025.0999994278,984546.3,984634.3000001907,984562.7,987932.1,5,600,,
trial,html.Screen,10_12_0,2024-03-07T16:13:57.755Z,,,,1,-0.0388181790775959,0.0049623405709465,,0.04,true,hl,6393.700000190758,response,0.8034318937720549,0.9417221571461221,-0.9572353959958351,-1.0024917298189338,1.0425774627823539,-1.021929197998235,high,low,,ISIC_0061880.JPG,9,ISIC_0032766.JPG,28,28,false,0.2600000000000001,hl,keypress(j),0,false,994326,994325.8000001907,987930.238,988026,987932.1,994237.3,5,600,13,
break,html.Screen,10_12_1,2024-03-07T16:13:57.756Z,,,,,,,,,,,NaN,,,,,,,,high,low,,,,,,,false,,,,,false,994326.5999994278,994326.5,,994326.1999998093,,994237.3,5,600,,
break_continue,html.Screen,10_12_2,2024-03-07T16:13:57.756Z,,,,,,,,,,,NaN,,,,,,,,high,low,,,,,,,false,,,,,false,994327,994326.8999996185,,994326.8000001907,,994237.3,5,600,,
sequence,flow.Sequence,10_12,2024-03-07T16:13:57.756Z,,,,,,,,,,,6394.799999618554,completion,,,,,,,high,low,,,,,,,false,,,,,false,994327.1999998093,994326.8999996185,987930.238,988026,987932.1,994237.3,5,600,,
trial,html.Screen,10_13_0,2024-03-07T16:14:02.957Z,,,,1,0.0044063257337227,0.0172548282859886,,0.04,false,hl,5289.899999809219,response,0.7991459998473059,0.9417221571461221,-0.9572353959958351,-1.0280788723474688,1.0425774627823539,-1.021929197998235,high,low,,ISIC_7413786.JPG,10,ISIC_7951202.JPG,28,28,false,0.2600000000000001,ll,keypress(f),0,false,999527.5999994278,999527.1999998093,994232.588,994327.1999998093,994237.3,999441.5,5,600,14,
break,html.Screen,10_13_1,2024-03-07T16:14:02.958Z,,,,,,,,,,,NaN,,,,,,,,high,low,,,,,,,false,,,,,false,999528.8999996185,999528.5999994278,,999527.8999996185,,999441.5,5,600,,
break_continue,html.Screen,10_13_2,2024-03-07T16:14:02.959Z,,,,,,,,,,,NaN,,,,,,,,high,low,,,,,,,false,,,,,false,999529.8999996185,999529.5,,999529.1999998093,,999441.5,5,600,,
sequence,flow.Sequence,10_13,2024-03-07T16:14:02.959Z,,,,,,,,,,,5292.199999999953,completion,,,,,,,high,low,,,,,,,false,,,,,false,999530.1999998093,999529.5,994232.588,994327.1999998093,994237.3,999441.5,5,600,,
trial,html.Screen,10_14_0,2024-03-07T16:14:05.404Z,,,,1,-0.0109416414475118,-0.005246498750811,,0.04,true,ll,2533.3999996185303,response,-1.048482877784125,0.9417221571461221,-0.9572353959958351,-1.0716857765902368,1.0425774627823539,-1.021929197998235,low,low,,ISIC_0064279.JPG,8,ISIC_0063961.JPG,28,32,false,0.1,ll,keypress(f),0,false,1001975.3000001907,1001974.8999996185,999425.1,999530.5,999441.5,1001894.2,5,600,15,
break,html.Screen,10_14_1,2024-03-07T16:14:05.406Z,,,,,,,,,,,NaN,,,,,,,,low,low,,,,,,,false,,,,,false,1001976.6999998093,1001976.3000001907,,1001975.6999998093,,1001894.2,5,600,,
break_continue,html.Screen,10_14_2,2024-03-07T16:14:05.407Z,,,,,,,,,,,NaN,,,,,,,,low,low,,,,,,,false,,,,,false,1001977.6999998093,1001977.3000001907,,1001976.8999996185,,1001894.2,5,600,,
sequence,flow.Sequence,10_14,2024-03-07T16:14:05.407Z,,,,,,,,,,,2535.800000190735,completion,,,,,,,low,low,,,,,,,false,,,,,false,1001978.0999994278,1001977.3000001907,999425.1,999530.3999996185,999441.5,1001894.2,5,600,,
trial,html.Screen,10_15_0,2024-03-07T16:14:07.877Z,,,,1,-0.0164027439304477,0.0082910758715273,,0.04,true,ll,2552.9999998093117,response,-0.9314324055507326,0.9417221571461221,-0.9572353959958351,-0.974030949255159,1.0425774627823539,-1.021929197998235,low,low,,ISIC_7381224.JPG,9,ISIC_9024529.JPG,28,32,false,0.1,ll,keypress(f),0,false,1004447.5,1004447.1999998093,1001875.876,1001978.3000001907,1001894.2,1004362.6,5,600,16,
break,html.Screen,10_15_1,2024-03-07T16:14:07.878Z,,,,,,,,,,,NaN,,,,,,,,low,low,,,,,,,false,,,,,false,1004448.8000001907,1004448.5,,1004448,,1004362.6,5,600,,
break_continue,html.Screen,10_15_2,2024-03-07T16:14:07.878Z,,,,,,,,,,,NaN,,,,,,,,low,low,,,,,,,false,,,,,false,1004449.5,1004449.1999998093,,1004448.8999996185,,1004362.6,5,600,,
sequence,flow.Sequence,10_15,2024-03-07T16:14:07.879Z,,,,,,,,,,,2554.9999998093117,completion,,,,,,,low,low,,,,,,,false,,,,,false,1004449.8000001907,1004449.1999998093,1001875.876,1001978.3000001907,1001894.2,1004362.6,5,600,,
trial,html.Screen,10_16_0,2024-03-07T16:14:10.277Z,,,,1,0.0076984477620101,0.0069458408496562,,0.04,true,hh,2484.700000190758,response,0.875928844868032,0.9417221571461221,-0.9572353959958351,1.0147952958458766,1.0425774627823539,-1.021929197998235,high,high,,ISIC_0000434.JPG,9,ISIC_7492682.JPG,28,30,false,0.1,hh,keypress(i),0,false,1006847.6999998093,1006847.3000001907,1004345.828,1004449.8999996185,1004362.6,1006764.5,5,600,17,
break,html.Screen,10_16_1,2024-03-07T16:14:10.278Z,,,,,,,,,,,NaN,,,,,,,,high,high,,,,,,,false,,,,,false,1006849.1999998093,1006848.8000001907,,1006848.0999994278,,1006764.5,5,600,,
break_continue,html.Screen,10_16_2,2024-03-07T16:14:10.279Z,,,,,,,,,,,NaN,,,,,,,,high,high,,,,,,,false,,,,,false,1006850.1999998093,1006849.8000001907,,1006849.3999996185,,1006764.5,5,600,,
sequence,flow.Sequence,10_16,2024-03-07T16:14:10.279Z,,,,,,,,,,,2487.200000190758,completion,,,,,,,high,high,,,,,,,false,,,,,false,1006850.5,1006849.8000001907,1004345.828,1004449.8999996185,1004362.6,1006764.5,5,600,,
trial,html.Screen,10_17_0,2024-03-07T16:14:12.436Z,,,,1,0.0258224118104549,-0.0029364553353019,,0.04,true,ll,2242.699999809265,response,-0.9657289110900686,0.9417221571461221,-0.9572353959958351,-0.9643331448263084,1.0425774627823539,-1.021929197998235,low,low,,ISIC_8325226.JPG,9,ISIC_0063447.JPG,28,32,false,0.1,ll,keypress(f),0,false,1009007.5,1009007.1999998093,1006747.7,1006850.8000001907,1006764.5,1008916.1,5,600,18,
break,html.Screen,10_17_1,2024-03-07T16:14:12.438Z,,,,,,,,,,,NaN,,,,,,,,low,low,,,,,,,false,,,,,false,1009008.8999996185,1009008.5999994278,,1009007.8999996185,,1008916.1,5,600,,
break_continue,html.Screen,10_17_2,2024-03-07T16:14:12.439Z,,,,,,,,,,,NaN,,,,,,,,low,low,,,,,,,false,,,,,false,1009010.0999994278,1009009.5999994278,,1009009.3000001907,,1008916.1,5,600,,
sequence,flow.Sequence,10_17,2024-03-07T16:14:12.439Z,,,,,,,,,,,2245.0999994277954,completion,,,,,,,low,low,,,,,,,false,,,,,false,1009010.3999996185,1009009.5999994278,1006747.7,1006850.5999994278,1006764.5,1008916.1,5,600,,
trial,html.Screen,10_18_0,2024-03-07T16:14:28.427Z,,,,1,0.0076984477620101,0.0069458408496562,,0.04,,,16013.099999999977,timeout,-0.9138670886161264,0.9417221571461221,-0.9572353959958351,0.8414121478342018,1.0425774627823539,-1.021929197998235,low,high,,ISIC_0000434.JPG,9,ISIC_6709052.JPG,28,26,false,0.2300000000000001,,,0,false,1024997.8000001907,1024997.3000001907,1008915.054,1009010.5999994278,1008916.1,1024929.2,5,600,19,
break,html.Screen,10_18_1,2024-03-07T16:14:28.428Z,,,,,,,,,,,NaN,,,,,,,,low,high,,,,,,,false,,,,,false,1024999.1999998093,1024998.8999996185,,1024998.3000001907,,1024929.2,5,600,,
break_continue,html.Screen,10_18_2,2024-03-07T16:14:28.430Z,,,,,,,,,,,NaN,,,,,,,,low,high,,,,,,,false,,,,,false,1025000.6999998093,1025000,,1024999.5,,1024929.2,5,600,,
sequence,flow.Sequence,10_18,2024-03-07T16:14:28.430Z,,,,,,,,,,,16083.900000000023,completion,,,,,,,low,high,,,,,,,false,,,,,false,1025001,1025000,1008915.054,1009010.5999994278,1008916.1,1024929.2,5,600,,
trial,html.Screen,10_19_0,2024-03-07T16:14:33.171Z,,,,1,-0.0109416414475118,-0.005246498750811,,0.04,true,hh,4812.600000190781,response,0.8775389671837809,0.9417221571461221,-0.9572353959958351,0.97697295261856,1.0425774627823539,-1.021929197998235,high,high,,ISIC_0064279.JPG,10,ISIC_0071957.JPG,28,30,false,0.1,hh,keypress(i),0,false,1029741.8999996185,1029741.8000001907,1024912.7,1025001.3000001907,1024929.2,1029649.7,5,600,20,
break,html.Screen,10_19_1,2024-03-07T16:14:33.171Z,,,,,,,,,,,NaN,,,,,,,,high,high,,,,,,,false,,,,,false,1029742.0999994278,1029742,,1029741.8999996185,,1029649.7,5,600,,
break_continue,html.Screen,10_19_2,2024-03-07T16:14:33.171Z,,,,,,,,,,,NaN,,,,,,,,high,high,,,,,,,false,,,,,false,1029742.0999994278,1029742.0999994278,,1029742.0999994278,,1029649.7,5,600,,
sequence,flow.Sequence,10_19,2024-03-07T16:14:33.171Z,,,,,,,,,,,4812.899999427842,completion,,,,,,,high,high,,,,,,,false,,,,,false,1029742.1999998093,1029742.0999994278,1024912.7,1025001.1999998093,1024929.2,1029649.7,5,600,,
trial,html.Screen,10_20_0,2024-03-07T16:14:40.490Z,,,,1,-0.0088741920055285,-0.0058246074740588,,0.04,false,hh,7411.699999618577,response,0.8614312505426347,0.9417221571461221,-0.9572353959958351,1.0055649935805588,1.0425774627823539,-1.021929197998235,high,high,,ISIC_4136663.JPG,9,ISIC_6946260.JPG,28,30,false,0.1,lh,keypress(e),0,false,1037061.3999996185,1037061.3999996185,1029633.3,1029742.1999998093,1029649.7,1036972.8,5,600,21,
break,html.Screen,10_20_1,2024-03-07T16:14:40.491Z,,,,,,,,,,,NaN,,,,,,,,high,high,,,,,,,false,,,,,false,1037061.8000001907,1037061.8000001907,,1037061.5,,1036972.8,5,600,,
break_continue,html.Screen,10_20_2,2024-03-07T16:14:40.491Z,,,,,,,,,,,NaN,,,,,,,,high,high,,,,,,,false,,,,,false,1037062.0999994278,1037062,,1037061.8999996185,,1036972.8,5,600,,
sequence,flow.Sequence,10_20,2024-03-07T16:14:40.491Z,,,,,,,,,,,7412.300000000047,completion,,,,,,,high,high,,,,,,,false,,,,,false,1037062.1999998093,1037062,1029633.3,1029742.1999998093,1029649.7,1036972.8,5,600,,
trial,html.Screen,10_21_0,2024-03-07T16:14:45.677Z,,,,1,0.0308384937406319,-0.0038396364323947,,0.04,true,ll,5274.500000190688,response,-0.9575090175925351,0.9417221571461221,-0.9572353959958351,-1.0307816252475666,1.0425774627823539,-1.021929197998235,low,low,,ISIC_0029825.JPG,9,ISIC_1369273.JPG,28,32,false,0.1,ll,keypress(f),0,false,1042247.6999998093,1042247.3000001907,1036956,1037062.1999998093,1036972.8,1042160.1,5,600,22,
break,html.Screen,10_21_1,2024-03-07T16:14:45.678Z,,,,,,,,,,,NaN,,,,,,,,low,low,,,,,,,false,,,,,false,1042249,1042248.5999994278,,1042248.0999994278,,1042160.1,5,600,,
break_continue,html.Screen,10_21_2,2024-03-07T16:14:45.679Z,,,,,,,,,,,NaN,,,,,,,,low,low,,,,,,,false,,,,,false,1042250.0999994278,1042249.5999994278,,1042249.3000001907,,1042160.1,5,600,,
sequence,flow.Sequence,10_21,2024-03-07T16:14:45.679Z,,,,,,,,,,,5276.799999427749,completion,,,,,,,low,low,,,,,,,false,,,,,false,1042250.3000001907,1042249.5999994278,1036956,1037062.1999998093,1036972.8,1042160.1,5,600,,
trial,html.Screen,10_22_0,2024-03-07T16:14:47.626Z,,,,1,-0.0198696495649504,0.0387952353063878,,0.04,true,hh,2036.7000001907581,response,0.9394358755892184,0.9417221571461221,-0.9572353959958351,1.0256934713188917,1.0425774627823539,-1.021929197998235,high,high,,ISIC_6735970.JPG,9,ISIC_4264600.JPG,28,30,false,0.1,hh,keypress(i),0,false,1044196.8999996185,1044196.8000001907,1042143.3,1042250.3999996185,1042160.1,1044111.7,5,600,23,
break,html.Screen,10_22_1,2024-03-07T16:14:47.626Z,,,,,,,,,,,NaN,,,,,,,,high,high,,,,,,,false,,,,,false,1044197.1999998093,1044197.1999998093,,1044197.0999994278,,1044111.7,5,600,,
break_continue,html.Screen,10_22_2,2024-03-07T16:14:47.627Z,,,,,,,,,,,NaN,,,,,,,,high,high,,,,,,,false,,,,,false,1044197.5,1044197.3999996185,,1044197.3000001907,,1044111.7,5,600,,
sequence,flow.Sequence,10_22,2024-03-07T16:14:47.627Z,,,,,,,,,,,2037.2999996185536,completion,,,,,,,high,high,,,,,,,false,,,,,false,1044197.5999994278,1044197.3999996185,1042143.3,1042250.3999996185,1042160.1,1044111.7,5,600,,
trial,html.Screen,10_23_0,2024-03-07T16:14:53.996Z,,,,1,0.0286056110007553,0.036125199756515,,0.04,false,hl,6454.800000000047,response,0.7010101889216934,0.9417221571461221,-0.9572353959958351,-0.9022783418178474,1.0425774627823539,-1.021929197998235,high,low,,ISIC_6535558.JPG,8,ISIC_0057858.JPG,28,28,false,0.2600000000000001,lh,keypress(e),0,false,1050566.8000001907,1050566.5,1044095.2,1044197.5999994278,1044111.7,1050483.7,5,600,24,
break,html.Screen,10_23_1,2024-03-07T16:14:53.997Z,,,,,,,,,,,NaN,,,,,,,,high,low,,,,,,,false,,,,,false,1050567.6999998093,1050567.3999996185,,1050567.0999994278,,1050483.7,5,600,,
break_continue,html.Screen,10_23_2,2024-03-07T16:14:53.997Z,,,,,,,,,,,NaN,,,,,,,,high,low,,,,,,,false,,,,,false,1050568.3999996185,1050568.0999994278,,1050567.8999996185,,1050483.7,5,600,,
sequence,flow.Sequence,10_23,2024-03-07T16:14:53.998Z,,,,,,,,,,,6456.399999427842,completion,,,,,,,high,low,,,,,,,false,,,,,false,1050568.5999994278,1050568.0999994278,1044095.2,1044197.5999994278,1044111.7,1050483.7,5,600,,
trial,html.Screen,10_24_0,2024-03-07T16:14:56.018Z,,,,1,0.0044063257337227,0.0172548282859886,,0.04,true,ll,2105.1000001907814,response,-0.944391889009556,0.9417221571461221,-0.9572353959958351,-1.0361692964751965,1.0425774627823539,-1.021929197998235,low,low,,ISIC_7413786.JPG,9,ISIC_0058676.JPG,28,32,false,0.1,ll,keypress(f),0,false,1052588.8000001907,1052588.8000001907,1050466.8,1050568.6999998093,1050483.7,1052501.9,5,600,25,
break,html.Screen,10_24_1,2024-03-07T16:14:56.018Z,,,,,,,,,,,NaN,,,,,,,,low,low,,,,,,,false,,,,,false,1052589.1999998093,1052589.0999994278,,1052589,,1052501.9,5,600,,
break_continue,html.Screen,10_24_2,2024-03-07T16:14:56.018Z,,,,,,,,,,,NaN,,,,,,,,low,low,,,,,,,false,,,,,false,1052589.3999996185,1052589.3000001907,,1052589.3000001907,,1052501.9,5,600,,
sequence,flow.Sequence,10_24,2024-03-07T16:14:56.019Z,,,,,,,,,,,2105.6000001907814,completion,,,,,,,low,low,,,,,,,false,,,,,false,1052589.5,1052589.3000001907,1050466.8,1050568.6999998093,1050483.7,1052501.9,5,600,,
trial,html.Screen,10_25_0,2024-03-07T16:15:01.907Z,,,,1,-0.0065172941585523,0.0118857043117315,,0.04,true,lh,5976.400000190828,response,-0.8867328775712738,0.9417221571461221,-0.9572353959958351,1.0063426986460375,1.0425774627823539,-1.021929197998235,low,high,,ISIC_6119202.JPG,9,ISIC_0055759.JPG,28,26,false,0.2300000000000001,lh,keypress(e),0,false,1058478.3999996185,1058478.3000001907,1052485.5,1052589.5,1052501.9,1058390.2,5,600,26,
break,html.Screen,10_25_1,2024-03-07T16:15:01.908Z,,,,,,,,,,,NaN,,,,,,,,low,high,,,,,,,false,,,,,false,1058478.5999994278,1058478.5999994278,,1058478.5,,1058390.2,5,600,,
break_continue,html.Screen,10_25_2,2024-03-07T16:15:01.908Z,,,,,,,,,,,NaN,,,,,,,,low,high,,,,,,,false,,,,,false,1058478.8000001907,1058478.6999998093,,1058478.6999998093,,1058390.2,5,600,,
sequence,flow.Sequence,10_25,2024-03-07T16:15:01.908Z,,,,,,,,,,,5976.799999809358,completion,,,,,,,low,high,,,,,,,false,,,,,false,1058478.8000001907,1058478.6999998093,1052485.5,1052589.5,1052501.9,1058390.2,5,600,,
trial,html.Screen,10_26_0,2024-03-07T16:15:04.212Z,,,,1,0.0286056110007553,0.036125199756515,,0.04,true,hh,2392.4999998093117,response,1.0040510013663018,0.9417221571461221,-0.9572353959958351,0.9707475308236284,1.0425774627823539,-1.021929197998235,high,high,,ISIC_6535558.JPG,9,ISIC_0026911.JPG,28,30,false,0.1,hh,keypress(i),0,false,1060783,1060782.6999998093,1058373.7,1058478.8000001907,1058390.2,1060692.2,5,600,27,
break,html.Screen,10_26_1,2024-03-07T16:15:04.213Z,,,,,,,,,,,NaN,,,,,,,,high,high,,,,,,,false,,,,,false,1060784.1999998093,1060783.8999996185,,1060783.3999996185,,1060692.2,5,600,,
break_continue,html.Screen,10_26_2,2024-03-07T16:15:04.214Z,,,,,,,,,,,NaN,,,,,,,,high,high,,,,,,,false,,,,,false,1060785.3000001907,1060784.8000001907,,1060784.5,,1060692.2,5,600,,
sequence,flow.Sequence,10_26,2024-03-07T16:15:04.215Z,,,,,,,,,,,2394.6000001907814,completion,,,,,,,high,high,,,,,,,false,,,,,false,1060785.5999994278,1060784.8000001907,1058373.7,1058478.8000001907,1058390.2,1060692.2,5,600,,
trial,html.Screen,10_27_0,2024-03-07T16:15:11.866Z,,,,1,-0.0199950873045219,-0.0172506388509166,,0.04,false,lh,7744.300000000047,response,-0.7396001261916139,0.9417221571461221,-0.9572353959958351,0.9901017340796716,1.0425774627823539,-1.021929197998235,low,high,,ISIC_0029906.JPG,9,ISIC_8679617.JPG,28,26,false,0.2300000000000001,hh,keypress(i),0,false,1068436.5999994278,1068436.5,1060691.858,1060785.8999996185,1060692.2,1068365,5,600,28,
break,html.Screen,10_27_1,2024-03-07T16:15:11.866Z,,,,,,,,,,,NaN,,,,,,,,low,high,,,,,,,false,,,,,false,1068436.8000001907,1068436.6999998093,,1068436.6999998093,,1068365,5,600,,
break_continue,html.Screen,10_27_2,2024-03-07T16:15:11.866Z,,,,,,,,,,,NaN,,,,,,,,low,high,,,,,,,false,,,,,false,1068436.8999996185,1068436.8999996185,,1068436.8999996185,,1068365,5,600,,
sequence,flow.Sequence,10_27,2024-03-07T16:15:11.866Z,,,,,,,,,,,7744.699999618577,completion,,,,,,,low,high,,,,,,,false,,,,,false,1068436.8999996185,1068436.8999996185,1060691.858,1060785.8000001907,1060692.2,1068365,5,600,,
trial,html.Screen,10_28_0,2024-03-07T16:15:13.561Z,,,,1,0.0118382036798625,0.0300588245877227,,0.04,true,hh,1767.3000001907349,response,1.0325421457475312,0.9417221571461221,-0.9572353959958351,1.0219157566370058,1.0425774627823539,-1.021929197998235,high,high,,ISIC_4748605.JPG,10,ISIC_5336548.JPG,28,30,false,0.1,hh,keypress(i),0,false,1070132.3999996185,1070132.3000001907,1068348.3,1068437,1068365,1070050.8,5,600,29,
break,html.Screen,10_28_1,2024-03-07T16:15:13.562Z,,,,,,,,,,,NaN,,,,,,,,high,high,,,,,,,false,,,,,false,1070132.5999994278,1070132.5999994278,,1070132.5,,1070050.8,5,600,,
break_continue,html.Screen,10_28_2,2024-03-07T16:15:13.562Z,,,,,,,,,,,NaN,,,,,,,,high,high,,,,,,,false,,,,,false,1070132.8000001907,1070132.6999998093,,1070132.6999998093,,1070050.8,5,600,,
sequence,flow.Sequence,10_28,2024-03-07T16:15:13.562Z,,,,,,,,,,,1767.6999998092651,completion,,,,,,,high,high,,,,,,,false,,,,,false,1070132.8000001907,1070132.6999998093,1068348.3,1068437,1068365,1070050.8,5,600,,
trial,html.Screen,10_29_0,2024-03-07T16:15:15.570Z,,,,1,-0.001445457736793,-0.0165307427449982,,0.04,true,hh,2090.0999996184837,response,1.00975234958099,0.9417221571461221,-0.9572353959958351,0.958677033057289,1.0425774627823539,-1.021929197998235,high,high,,ISIC_0027350.JPG,8,ISIC_0976232.JPG,28,30,false,0.1,hh,keypress(i),0,false,1072141,1072140.8999996185,1070032.372,1070132.8000001907,1070050.8,1072051.5,5,600,30,
break,html.Screen,10_29_1,2024-03-07T16:15:15.570Z,,,,,,,,,,,NaN,,,,,,,,high,high,,,,,,,false,,,,,false,1072141.3000001907,1072141.1999998093,,1072141,,1072051.5,5,600,,
break_continue,html.Screen,10_29_2,2024-03-07T16:15:15.570Z,,,,,,,,,,,NaN,,,,,,,,high,high,,,,,,,false,,,,,false,1072141.3999996185,1072141.3999996185,,1072141.3000001907,,1072051.5,5,600,,
sequence,flow.Sequence,10_29,2024-03-07T16:15:15.571Z,,,,,,,,,,,2090.5999996184837,completion,,,,,,,high,high,,,,,,,false,,,,,false,1072141.3999996185,1072141.3999996185,1070032.372,1070132.8000001907,1070050.8,1072051.5,5,600,,
trial,html.Screen,10_30_0,2024-03-07T16:15:21.522Z,,,,1,-0.039520186367207,-0.0377961575607372,,0.04,true,lh,6041.39999961853,response,-0.8544507134472948,0.9417221571461221,-0.9572353959958351,0.9244388608707323,1.0425774627823539,-1.021929197998235,low,high,,ISIC_6356149.JPG,10,ISIC_3565564.JPG,28,26,false,0.2300000000000001,lh,keypress(e),0,false,1078093,1078092.8999996185,1072034.7,1072141.3999996185,1072051.5,1078006.3,5,600,31,
break,html.Screen,10_30_1,2024-03-07T16:15:21.522Z,,,,,,,,,,,NaN,,,,,,,,low,high,,,,,,,false,,,,,false,1078093.3999996185,1078093.3000001907,,1078093.0999994278,,1078006.3,5,600,,
break_continue,html.Screen,10_30_2,2024-03-07T16:15:21.523Z,,,,,,,,,,,NaN,,,,,,,,low,high,,,,,,,false,,,,,false,1078093.5999994278,1078093.5,,1078093.3999996185,,1078006.3,5,600,,
sequence,flow.Sequence,10_30,2024-03-07T16:15:21.523Z,,,,,,,,,,,6042,completion,,,,,,,low,high,,,,,,,false,,,,,false,1078093.6999998093,1078093.5,1072034.7,1072141.3999996185,1072051.5,1078006.3,5,600,,
trial,html.Screen,10_31_0,2024-03-07T16:15:25.618Z,,,,1,0.0286056110007553,0.036125199756515,,0.04,false,lh,4182.199999999953,response,-0.7872534775441857,0.9417221571461221,-0.9572353959958351,0.8441107693833454,1.0425774627823539,-1.021929197998235,low,high,,ISIC_6535558.JPG,9,ISIC_0028788.JPG,28,26,false,0.2300000000000001,hh,keypress(i),0,false,1082188.6999998093,1082188.5,1078002.302,1078093.8000001907,1078006.3,1082093,5,600,32,
break,html.Screen,10_31_1,2024-03-07T16:15:25.618Z,,,,,,,,,,,NaN,,,,,,,,low,high,,,,,,,false,,,,,false,1082188.8999996185,1082188.8999996185,,1082188.6999998093,,1082093,5,600,,
break_continue,html.Screen,10_31_2,2024-03-07T16:15:25.618Z,,,,,,,,,,,NaN,,,,,,,,low,high,,,,,,,false,,,,,false,1082189.0999994278,1082189,,1082188.8999996185,,1082093,5,600,,
sequence,flow.Sequence,10_31,2024-03-07T16:15:25.618Z,,,,,,,,,,,4182.699999999953,completion,,,,,,,low,high,,,,,,,false,,,,,false,1082189.0999994278,1082189,1078002.302,1078093.8000001907,1078006.3,1082093,5,600,,
trial,html.Screen,10_32_0,2024-03-07T16:15:28.723Z,,,,1,0.0286056110007553,0.036125199756515,,0.04,false,hl,3200.8999996185303,response,0.7883321712536753,0.9417221571461221,-0.9572353959958351,-1.0011430756825364,1.0425774627823539,-1.021929197998235,high,low,,ISIC_6535558.JPG,9,ISIC_9828853.JPG,28,28,false,0.2600000000000001,hh,keypress(i),0,false,1085294,1085293.8999996185,1082076.332,1082189.1999998093,1082093,1085195.5,5,600,33,
break,html.Screen,10_32_1,2024-03-07T16:15:28.724Z,,,,,,,,,,,NaN,,,,,,,,high,low,,,,,,,false,,,,,false,1085294.5999994278,1085294.3999996185,,1085294.1999998093,,1085195.5,5,600,,
break_continue,html.Screen,10_32_2,2024-03-07T16:15:28.724Z,,,,,,,,,,,NaN,,,,,,,,high,low,,,,,,,false,,,,,false,1085295.1999998093,1085295.0999994278,,1085294.8999996185,,1085195.5,5,600,,
sequence,flow.Sequence,10_32,2024-03-07T16:15:28.724Z,,,,,,,,,,,3202.0999994277954,completion,,,,,,,high,low,,,,,,,false,,,,,false,1085295.3000001907,1085295.0999994278,1082076.332,1082189.1999998093,1082093,1085195.5,5,600,,
trial,html.Screen,10_33_0,2024-03-07T16:15:30.412Z,,,,1,-0.0374659946425444,-0.0086043094957617,,0.04,false,hl,1787.5,response,1.0453124399868816,0.9417221571461221,-0.9572353959958351,-0.8986747280184286,1.0425774627823539,-1.021929197998235,high,low,,ISIC_0033051.JPG,9,ISIC_0013967.JPG,28,28,false,0.2600000000000001,hh,keypress(i),0,false,1086983.3000001907,1086983,1085193.716,1085295.3000001907,1085195.5,1086897,5,600,34,
break,html.Screen,10_33_1,2024-03-07T16:15:30.413Z,,,,,,,,,,,NaN,,,,,,,,high,low,,,,,,,false,,,,,false,1086983.8000001907,1086983.6999998093,,1086983.5,,1086897,5,600,,
break_continue,html.Screen,10_33_2,2024-03-07T16:15:30.413Z,,,,,,,,,,,NaN,,,,,,,,high,low,,,,,,,false,,,,,false,1086984.0999994278,1086984,,1086983.8999996185,,1086897,5,600,,
sequence,flow.Sequence,10_33,2024-03-07T16:15:30.413Z,,,,,,,,,,,1788.5,completion,,,,,,,high,low,,,,,,,false,,,,,false,1086984.0999994278,1086984,1085193.716,1085295.3000001907,1085195.5,1086897,5,600,,
trial,html.Screen,10_34_0,2024-03-07T16:15:32.322Z,,,,1,-0.0109416414475118,-0.005246498750811,,0.04,true,hh,1996,response,1.0161855018674797,0.9417221571461221,-0.9572353959958351,1.1331366334676347,1.0425774627823539,-1.021929197998235,high,high,,ISIC_0064279.JPG,10,ISIC_3521671.JPG,28,30,false,0.1,hh,keypress(i),0,false,1088893.0999994278,1088893,1086880.2,1086984.1999998093,1086897,1088798.6,5,600,35,
break,html.Screen,10_34_1,2024-03-07T16:15:32.323Z,,,,,,,,,,,NaN,,,,,,,,high,high,,,,,,,false,,,,,false,1088893.3999996185,1088893.3999996185,,1088893.1999998093,,1088798.6,5,600,,
break_continue,html.Screen,10_34_2,2024-03-07T16:15:32.323Z,,,,,,,,,,,NaN,,,,,,,,high,high,,,,,,,false,,,,,false,1088893.6999998093,1088893.6999998093,,1088893.5,,1088798.6,5,600,,
sequence,flow.Sequence,10_34,2024-03-07T16:15:32.323Z,,,,,,,,,,,1996.6999998092651,completion,,,,,,,high,high,,,,,,,false,,,,,false,1088893.6999998093,1088893.6999998093,1086880.2,1086984.1999998093,1086897,1088798.6,5,600,,
trial,html.Screen,10_35_0,2024-03-07T16:15:37.459Z,,,,1,-0.0388334549081915,0.0303399972963369,,0.04,false,hl,5231.099999809172,response,0.7308116448711435,0.9417221571461221,-0.9572353959958351,-0.908713834988551,1.0425774627823539,-1.021929197998235,high,low,,ISIC_4961708.JPG,9,ISIC_7811951.JPG,28,28,false,0.2600000000000001,ll,keypress(f),0,false,1094029.8999996185,1094029.6999998093,1088798.234,1088893.8000001907,1088798.6,1093936.1,5,600,36,
break,html.Screen,10_35_1,2024-03-07T16:15:37.460Z,,,,,,,,,,,NaN,,,,,,,,high,low,,,,,,,false,,,,,false,1094030.5,1094030.3999996185,,1094030.0999994278,,1093936.1,5,600,,
break_continue,html.Screen,10_35_2,2024-03-07T16:15:37.460Z,,,,,,,,,,,NaN,,,,,,,,high,low,,,,,,,false,,,,,false,1094030.6999998093,1094030.6999998093,,1094030.5999994278,,1093936.1,5,600,,
sequence,flow.Sequence,10_35,2024-03-07T16:15:37.460Z,,,,,,,,,,,5232.099999809172,completion,,,,,,,high,low,,,,,,,false,,,,,false,1094030.6999998093,1094030.6999998093,1088798.234,1088893.8000001907,1088798.6,1093936.1,5,600,,
trial,html.Screen,10_36_0,2024-03-07T16:15:39.795Z,,,,1,0.0118382036798625,0.0300588245877227,,0.04,false,lh,2429.399999999907,response,-0.90812608370647,0.9417221571461221,-0.9572353959958351,1.2720026872926935,1.0425774627823539,-1.021929197998235,low,high,,ISIC_4748605.JPG,9,ISIC_0450295.JPG,28,26,false,0.2300000000000001,hh,keypress(i),0,false,1096365.5999994278,1096365.5,1093919.6,1094030.8000001907,1093936.1,1096271.4,5,600,37,
break,html.Screen,10_36_1,2024-03-07T16:15:39.795Z,,,,,,,,,,,NaN,,,,,,,,low,high,,,,,,,false,,,,,false,1096365.8999996185,1096365.8999996185,,1096365.8000001907,,1096271.4,5,600,,
break_continue,html.Screen,10_36_2,2024-03-07T16:15:39.795Z,,,,,,,,,,,NaN,,,,,,,,low,high,,,,,,,false,,,,,false,1096366.0999994278,1096366,,1096365.8999996185,,1096271.4,5,600,,
sequence,flow.Sequence,10_36,2024-03-07T16:15:39.795Z,,,,,,,,,,,2429.899999999907,completion,,,,,,,low,high,,,,,,,false,,,,,false,1096366.0999994278,1096366,1093919.6,1094030.8000001907,1093936.1,1096271.4,5,600,,
trial,html.Screen,10_37_0,2024-03-07T16:15:44.658Z,,,,1,-0.0199950873045219,-0.0172506388509166,,0.04,true,ll,4957.1999994278885,response,-0.9575090175925351,0.9417221571461221,-0.9572353959958351,-1.0307816252475666,1.0425774627823539,-1.021929197998235,low,low,,ISIC_0029906.JPG,10,ISIC_1369273.JPG,28,32,false,0.1,ll,keypress(f),0,false,1101228.6999998093,1101228.5999994278,1096254.7,1096366.0999994278,1096271.4,1101142,5,600,38,
break,html.Screen,10_37_1,2024-03-07T16:15:44.658Z,,,,,,,,,,,NaN,,,,,,,,low,low,,,,,,,false,,,,,false,1101228.8999996185,1101228.8999996185,,1101228.6999998093,,1101142,5,600,,
break_continue,html.Screen,10_37_2,2024-03-07T16:15:44.658Z,,,,,,,,,,,NaN,,,,,,,,low,low,,,,,,,false,,,,,false,1101229,1101229,,1101229,,1101142,5,600,,
sequence,flow.Sequence,10_37,2024-03-07T16:15:44.658Z,,,,,,,,,,,4957.600000000093,completion,,,,,,,low,low,,,,,,,false,,,,,false,1101229.0999994278,1101229,1096254.7,1096366.0999994278,1096271.4,1101142,5,600,,
trial,html.Screen,10_38_0,2024-03-07T16:15:55.722Z,,,,1,0.0076984477620101,0.0069458408496562,,0.04,true,hl,11151.099999427795,response,0.7882758084023446,0.9417221571461221,-0.9572353959958351,-0.8296405881378283,1.0425774627823539,-1.021929197998235,high,low,,ISIC_0000434.JPG,10,ISIC_0065882.JPG,28,28,false,0.2600000000000001,hl,keypress(j),0,false,1112293.1999998093,1112293.0999994278,1101125.7,1101229.0999994278,1101142,1112201.1,5,600,39,
break,html.Screen,10_38_1,2024-03-07T16:15:55.723Z,,,,,,,,,,,NaN,,,,,,,,high,low,,,,,,,false,,,,,false,1112293.5,1112293.3999996185,,1112293.3000001907,,1112201.1,5,600,,
break_continue,html.Screen,10_38_2,2024-03-07T16:15:55.723Z,,,,,,,,,,,NaN,,,,,,,,high,low,,,,,,,false,,,,,false,1112293.6999998093,1112293.5999994278,,1112293.5,,1112201.1,5,600,,
