sender,sender_type,sender_id,timestamp,meta,,age,blockNo,c1,c2,condition,control_tolerance,correct,correctResponse,duration,ended_on,f1,f1_high,f1_low,f2,f2_high,f2_low,feature_level1,feature_level2,gender,img_left,img_reveal,img_right,n_control_images,n_target_images,practice,range_tolerance,response,response_action,selection_duration,staircase,time_commit,time_end,time_render,time_run,time_show,time_switch,total_blocks,total_trials,trialNo,url
informed_consent,html.Screen,0,2023-11-20T17:33:51.406Z,"{""labjs_version"":""20.2.4"",""labjs_build"":{""flavor"":""development"",""commit"":""f5b4a49f956347addd546a832a3327688c2c0fef""},""location"":""https://labjs.felixhenninger.com/api/labjs_preview/index.html"",""userAgent"":""Mozilla/5.0 (Windows NT 10.0; Win64; x64) AppleWebKit/537.36 (KHTML, like Gecko) Chrome/119.0.0.0 Safari/537.36"",""platform"":""Win32"",""language"":""en-US"",""locale"":""en-US"",""timeZone"":""America/Chicago"",""timezoneOffset"":360,""screen_width"":1920,""screen_height"":1080,""scroll_width"":945,""scroll_height"":918,""window_innerWidth"":945,""window_innerHeight"":966,""devicePixelRatio"":1}",,,,,,,,,,11971.26300001192,response,,,,,,,,,,,,,,,,,consent,click button,,,12852.800000011921,12839.800000011921,851.731,856.8999999761581,868.537,12851.76,,,,{}
Demography form,html.Form,1,2023-11-20T17:34:02.697Z,,,18,,,,,,,,11291.54000001192,form submission,,,,,,,,,female,,,,,,,,,,,,24143.5,24143.30000001192,12835.265,12853.099999964237,12851.76,24151.806,,,,
Welcome,html.Screen,2,2023-11-20T17:35:19.810Z,,,,,,,"[""asym"",""bor""]",,,,77103.99400001192,response,,,,,,,,,,,,,,,,,continue,click button,,,101256.39999997616,101255.80000001192,24135.259,24143.599999964237,24151.806,101268.656,,,,
demo_instructions,html.Screen,3,2023-11-20T17:35:57.138Z,,,,,,,,,,,37315.243999976155,response,,,,,,,,,,,,,,,,,continue,click button,,,138584.39999997616,138583.89999997616,101251.909,101256.59999996424,101268.656,138602.509,,,,
trial,html.Screen,4_0_0,2023-11-20T17:36:14.712Z,,,,0,-1.2282561398079586,-1.210457198775374,,,true,hh,17554.99100000001,response,1.131522954199764,1.2,-1.2,1.1047184491749509,1.2,-1.2,high,high,,ISIC_9141817.JPG,,ISIC_1868816.JPG,,26,true,0.15000000000000002,hh,keypress(i),100,false,156157.69999998808,156157.5,138568.709,138584.5,138602.509,156185.347,1,16,1,
sequence,flow.Sequence,4_0,2023-11-20T17:36:14.712Z,,,,,,,,,,,17554.99100000001,completion,,,,,,,high,high,,,,,,,true,,,,,false,156158.09999996424,156157.5,138568.709,138584.5,138602.509,156185.347,1,16,,
trial,html.Screen,4_1_0,2023-11-20T17:36:21.938Z,,,,0,-1.185875658992962,-1.2635548590325487,,,true,hh,7198.152999999991,response,1.0959058628476686,1.2,-1.2,1.1684835186766898,1.2,-1.2,high,high,,ISIC_0011703.JPG,,ISIC_5920470.JPG,,26,true,0.15000000000000002,hh,keypress(i),100,false,163383.69999998808,163383.5,156168.829,156158.09999996424,156185.347,163402.042,1,16,2,
sequence,flow.Sequence,4_1,2023-11-20T17:36:21.938Z,,,,,,,,,,,7198.152999999991,completion,,,,,,,high,high,,,,,,,true,,,,,false,163384,163383.5,156168.829,156158.09999996424,156185.347,163402.042,1,16,,
trial,html.Screen,4_2_0,2023-11-20T17:36:25.308Z,,,,0,-1.1383813631375823,-1.1319312220332556,,,true,hh,3351.6579999880923,response,1.1388430156686884,1.2,-1.2,1.2700552354887775,1.2,-1.2,high,high,,ISIC_6227397.JPG,,ISIC_9939653.JPG,,26,true,0.15000000000000002,hh,keypress(i),100,false,166754,166753.69999998808,163385.359,163384.09999996424,163402.042,166785.362,1,16,3,
sequence,flow.Sequence,4_2,2023-11-20T17:36:25.309Z,,,,,,,,,,,3351.6579999880923,completion,,,,,,,high,high,,,,,,,true,,,,,false,166754.59999996424,166753.69999998808,163385.359,163384.09999996424,163402.042,166785.362,1,16,,
trial,html.Screen,4_3_0,2023-11-20T17:36:28.965Z,,,,0,-1.1383813631375823,-1.1319312220332556,,,true,hh,3625.2379999642435,response,1.241406480986552,1.2,-1.2,1.081912821786771,1.2,-1.2,high,high,,ISIC_6227397.JPG,,ISIC_4223155.JPG,,26,true,0.15000000000000002,hh,keypress(i),100,false,170410.80000001192,170410.59999996424,166768.755,166754.89999997616,166785.362,170435.356,1,16,4,
sequence,flow.Sequence,4_3,2023-11-20T17:36:28.965Z,,,,,,,,,,,3625.2379999642435,completion,,,,,,,high,high,,,,,,,true,,,,,false,170410.89999997616,170410.59999996424,166768.755,166754.69999998808,166785.362,170435.356,1,16,,
trial,html.Screen,4_4_0,2023-11-20T17:36:41.068Z,,,,0,1.201100953917304,1.1751492358160105,,,true,ll,12078.34399998808,response,-1.185875658992962,1.2,-1.2,-1.2635548590325487,1.2,-1.2,low,low,,ISIC_0647224.JPG,,ISIC_0011703.JPG,,30,true,0.1,ll,keypress(f),100,false,182514,182513.69999998808,170418.694,170411.09999996424,170435.356,182535.484,1,16,5,
sequence,flow.Sequence,4_4,2023-11-20T17:36:41.069Z,,,,,,,,,,,12078.34399998808,completion,,,,,,,low,low,,,,,,,true,,,,,false,182514.30000001192,182513.69999998808,170418.694,170411,170435.356,182535.484,1,16,,
trial,html.Screen,4_5_0,2023-11-20T17:36:46.437Z,,,,0,1.2318069697449794,1.1703576816778267,,,true,ll,5347.1159999642405,response,-1.343727382922318,1.2,-1.2,-1.2738570369689235,1.2,-1.2,low,low,,ISIC_2732573.JPG,,ISIC_0001157.JPG,,53,true,0.15000000000000002,ll,keypress(f),100,false,187883,187882.59999996424,182518.697,182514.39999997616,182535.484,187902.251,1,16,6,
sequence,flow.Sequence,4_5,2023-11-20T17:36:46.438Z,,,,,,,,,,,5347.1159999642405,completion,,,,,,,low,low,,,,,,,true,,,,,false,187883.30000001192,187882.59999996424,182518.697,182514.39999997616,182535.484,187902.251,1,16,,
trial,html.Screen,4_6_0,2023-11-20T17:36:50.145Z,,,,0,1.0717785279820962,1.1267239445830604,,,true,ll,3688.44899998809,response,-1.2952503640839694,1.2,-1.2,-1.107234527385344,1.2,-1.2,low,low,,ISIC_9948815.JPG,,ISIC_0034134.JPG,,53,true,0.15000000000000002,ll,keypress(f),100,false,191590.80000001192,191590.69999998808,187885.372,187883.39999997616,187902.251,191618.916,1,16,7,
sequence,flow.Sequence,4_6,2023-11-20T17:36:50.145Z,,,,,,,,,,,3688.44899998809,completion,,,,,,,low,low,,,,,,,true,,,,,false,191591,191590.69999998808,187885.372,187883.39999997616,187902.251,191618.916,1,16,,
trial,html.Screen,4_7_0,2023-11-20T17:36:54.921Z,,,,0,1.0870240111136478,1.332340670965917,,,true,ll,4747.18399996424,response,-1.1512633312172555,1.2,-1.2,-1.337709216648353,1.2,-1.2,low,low,,ISIC_0000660.JPG,,ISIC_6512653.JPG,,53,true,0.15000000000000002,ll,keypress(f),100,false,196366.30000001192,196366.09999996424,191602.168,191591.09999996424,191618.916,196402.038,1,16,8,
sequence,flow.Sequence,4_7,2023-11-20T17:36:54.921Z,,,,,,,,,,,4747.18399996424,completion,,,,,,,low,low,,,,,,,true,,,,,false,196366.5,196366.09999996424,191602.168,191591.09999996424,191618.916,196402.038,1,16,,
trial,html.Screen,4_8_0,2023-11-20T17:37:19.173Z,,,,0,1.2695509547992938,-0.9641099676945492,,,true,lh,24216.462,response,-0.8947611078712571,1.2,-1.2,0.8960964505004638,1.2,-1.2,low,high,,ISIC_0025841.JPG,,ISIC_6441128.JPG,,27,true,0.42000000000000026,lh,keypress(e),100,false,220618.59999996424,220618.5,196368.694,196366.5,196402.038,220652.072,1,16,9,
sequence,flow.Sequence,4_8,2023-11-20T17:37:19.173Z,,,,,,,,,,,24216.462,completion,,,,,,,low,high,,,,,,,true,,,,,false,220619,220618.5,196368.694,196366.5,196402.038,220652.072,1,16,,
trial,html.Screen,4_9_0,2023-11-20T17:37:36.408Z,,,,0,1.0865333402803938,-1.0542635307358266,,,true,lh,17201.428000000014,response,-0.8655167308525522,1.2,-1.2,0.9298580423306444,1.2,-1.2,low,high,,ISIC_0034006.JPG,,ISIC_4603706.JPG,,27,true,0.42000000000000026,lh,keypress(e),100,false,237853.69999998808,237853.5,220618.77,220619.09999996424,220652.072,237885.519,1,16,10,
sequence,flow.Sequence,4_9,2023-11-20T17:37:36.408Z,,,,,,,,,,,17201.428000000014,completion,,,,,,,low,high,,,,,,,true,,,,,false,237854.09999996424,237853.5,220618.77,220619.09999996424,220652.072,237885.519,1,16,,
trial,html.Screen,4_10_0,2023-11-20T17:37:46.996Z,,,,0,0.8487429103619056,-0.9778257804233036,,,true,lh,10555.680999988079,response,-0.991146183030456,1.2,-1.2,0.9949639823722534,1.2,-1.2,low,high,,ISIC_4554863.JPG,,ISIC_6342224.JPG,,27,true,0.42000000000000026,lh,keypress(e),100,false,248441.30000001192,248441.19999998808,237868.787,237854.19999998808,237885.519,248468.756,1,16,11,
sequence,flow.Sequence,4_10,2023-11-20T17:37:46.996Z,,,,,,,,,,,10555.680999988079,completion,,,,,,,low,high,,,,,,,true,,,,,false,248441.5,248441.19999998808,237868.787,237854.19999998808,237885.519,248468.756,1,16,,
trial,html.Screen,4_11_0,2023-11-20T17:38:07.582Z,,,,0,0.858338058340649,-0.9540612223480284,,,true,lh,20559.143999976164,response,-0.809764442462202,1.2,-1.2,1.005337148078696,1.2,-1.2,low,high,,ISIC_8922893.JPG,,ISIC_2379379.JPG,,27,true,0.42000000000000026,lh,keypress(e),100,false,269028,269027.89999997616,248452.134,248441.59999996424,248468.756,269052.122,1,16,12,
sequence,flow.Sequence,4_11,2023-11-20T17:38:07.582Z,,,,,,,,,,,20559.143999976164,completion,,,,,,,low,high,,,,,,,true,,,,,false,269028.09999996424,269027.89999997616,248452.134,248441.5,248468.756,269052.122,1,16,,
trial,html.Screen,4_12_0,2023-11-20T17:38:16.842Z,,,,0,-0.7809949855371787,0.8493861117004308,,,true,hl,9234.878000000026,response,1.0751036484083878,1.2,-1.2,-1.143906455483852,1.2,-1.2,high,low,,ISIC_7450481.JPG,,ISIC_0064406.JPG,,26,true,0.3600000000000002,hl,keypress(j),100,false,278287.3000000119,278287,269035.494,269028.1999999881,269052.122,278318.884,1,16,13,
sequence,flow.Sequence,4_12,2023-11-20T17:38:16.842Z,,,,,,,,,,,9234.878000000026,completion,,,,,,,high,low,,,,,,,true,,,,,false,278287.59999996424,278287,269035.494,269028.1999999881,269052.122,278318.884,1,16,,
trial,html.Screen,4_13_0,2023-11-20T17:38:41.223Z,,,,0,-1.0115965332688306,0.8282633603842442,,,true,hl,24349.4160000119,response,0.8487429103619056,1.2,-1.2,-0.9778257804233036,1.2,-1.2,high,low,,ISIC_1069587.JPG,,ISIC_4554863.JPG,,33,true,0.42000000000000026,hl,keypress(j),100,false,302668.5,302668.3000000119,278302.174,278287.8000000119,278318.884,302702.163,1,16,14,
sequence,flow.Sequence,4_13,2023-11-20T17:38:41.223Z,,,,,,,,,,,24349.4160000119,completion,,,,,,,high,low,,,,,,,true,,,,,false,302668.8000000119,302668.3000000119,278302.174,278287.8000000119,278318.884,302702.163,1,16,,
trial,html.Screen,4_14_0,2023-11-20T17:38:51.578Z,,,,0,-0.8200962008791046,0.7936051642828523,,,true,hl,10321.13700001192,response,1.2364994561934892,1.2,-1.2,-0.9174173651516624,1.2,-1.2,high,low,,ISIC_0027031.JPG,,ISIC_3481133.JPG,,33,true,0.42000000000000026,hl,keypress(j),100,false,313023.59999996424,313023.3000000119,302668.892,302668.89999997616,302702.163,313068.823,1,16,15,
sequence,flow.Sequence,4_14,2023-11-20T17:38:51.578Z,,,,,,,,,,,10321.13700001192,completion,,,,,,,high,low,,,,,,,true,,,,,false,313023.89999997616,313023.3000000119,302668.892,302668.89999997616,302702.163,313068.823,1,16,,
trial,html.Screen,4_15_0,2023-11-20T17:38:57.797Z,,,,0,-0.8200962008791046,0.7936051642828523,,,true,hl,6173.076999976183,response,0.8979276789594874,1.2,-1.2,-0.925374811016654,1.2,-1.2,high,low,,ISIC_0027031.JPG,,ISIC_4208361.JPG,,33,true,0.42000000000000026,hl,keypress(j),100,false,319242.09999996424,319241.89999997616,313035.583,313024,313068.823,319269.019,1,16,16,
sequence,flow.Sequence,4_15,2023-11-20T17:38:57.797Z,,,,,,,,,,,6173.076999976183,completion,,,,,,,high,low,,,,,,,true,,,,,false,319242.39999997616,319241.89999997616,313035.583,313023.89999997616,313068.823,319269.019,1,16,,
demonstration_loop,flow.Loop,4,2023-11-20T17:38:57.797Z,,,,,,,,,,,180639.39099997617,completion,,,,,,,,,,,,,,,true,,,,,false,319242.59999996424,319241.89999997616,138568.709,138584.5,138602.509,319269.019,1,16,,
practice_instructions,html.Screen,5,2023-11-20T17:39:28.507Z,,,,,,,,,,,30674.78100001195,response,,,,,,,,,,,,,,,,,continue,click button,,,349951.6999999881,349943.8000000119,319252.235,319242.6999999881,319269.019,350002.246,,,,
trial,html.Screen,6_0_0,2023-11-20T17:39:38.680Z,,,,1,-0.8623414234919863,0.782830143980698,,,true,hl,10109.653999976174,response,1.2075172235545184,1.2,-1.2,-0.9116724966267612,1.2,-1.2,high,low,,ISIC_2727016.JPG,,ISIC_0024235.JPG,,26,true,0.3600000000000002,hl,keypress(j),0,false,360124.8000000119,360111.89999997616,349935.831,349951.8000000119,350002.246,360135.598,1,40,1,
sequence,flow.Sequence,6_0,2023-11-20T17:39:38.680Z,,,,,,,,,,,10109.653999976174,completion,,,,,,,high,low,,,,,,,true,,,,,false,360125.09999996424,360111.89999997616,349935.831,349951.8000000119,350002.246,360135.598,1,40,,
trial,html.Screen,6_1_0,2023-11-20T17:39:52.916Z,,,,1,1.1642596483638106,1.109799097093339,,,true,ll,14224.702000011923,response,-1.2619464934239444,1.2,-1.2,-1.0459343554484073,1.2,-1.2,low,low,,ISIC_0765584.JPG,,ISIC_0034068.JPG,,339,true,0.42000000000000026,ll,keypress(f),0,false,374360.39999997616,374360.3000000119,360118.929,360125.09999996424,360135.598,374385.604,1,40,2,
sequence,flow.Sequence,6_1,2023-11-20T17:39:52.916Z,,,,,,,,,,,14224.702000011923,completion,,,,,,,low,low,,,,,,,true,,,,,false,374360.5,374360.3000000119,360118.929,360125.09999996424,360135.598,374385.604,1,40,,
trial,html.Screen,6_2_0,2023-11-20T17:40:04.093Z,,,,1,1.2331439637486756,-0.9691143900156988,,,true,lh,11151.595999988087,response,-0.8092423703106274,1.2,-1.2,1.1870093485714288,1.2,-1.2,low,high,,ISIC_7877488.JPG,,ISIC_8592235.JPG,,27,true,0.42000000000000026,lh,keypress(e),0,false,385537.39999997616,385537.1999999881,374351.952,374360.59999996424,374385.604,385552.259,1,40,3,
sequence,flow.Sequence,6_2,2023-11-20T17:40:04.093Z,,,,,,,,,,,11151.595999988087,completion,,,,,,,low,high,,,,,,,true,,,,,false,385537.8000000119,385537.1999999881,374351.952,374360.59999996424,374385.604,385552.259,1,40,,
trial,html.Screen,6_3_0,2023-11-20T17:40:15.100Z,,,,1,0.9696118525781644,-0.9244148283103414,,,true,lh,10992.0410000119,response,-1.0264463986917702,1.2,-1.2,1.2804054832904397,1.2,-1.2,low,high,,ISIC_7927525.JPG,,ISIC_7889838.JPG,,27,true,0.42000000000000026,lh,keypress(e),0,false,396544.3000000119,396544.3000000119,385535.208,385538,385552.259,396552.309,1,40,4,
sequence,flow.Sequence,6_3,2023-11-20T17:40:15.100Z,,,,,,,,,,,10992.0410000119,completion,,,,,,,low,high,,,,,,,true,,,,,false,396544.5,396544.3000000119,385535.208,385537.89999997616,385552.259,396552.309,1,40,,
trial,html.Screen,6_4_0,2023-11-20T17:40:21.124Z,,,,1,-1.2915523362516486,-1.1264977790562936,,,true,hh,6016.09099997615,response,0.9029354290897352,1.2,-1.2,1.1346860677105404,1.2,-1.2,high,high,,ISIC_0502582.JPG,,ISIC_4153687.JPG,,179,true,0.3600000000000002,hh,keypress(i),0,false,402568.5,402568.39999997616,396535.327,396544.59999996424,396552.309,402585.682,1,40,5,
sequence,flow.Sequence,6_4,2023-11-20T17:40:21.124Z,,,,,,,,,,,6016.09099997615,completion,,,,,,,high,high,,,,,,,true,,,,,false,402568.59999996424,402568.39999997616,396535.327,396544.59999996424,396552.309,402585.682,1,40,,
trial,html.Screen,6_5_0,2023-11-20T17:40:29.660Z,,,,1,1.3189473926989124,1.0770264364718942,,,true,ll,8518.717999976187,response,-1.29026082950341,1.2,-1.2,-1.144672688339213,1.2,-1.2,low,low,,ISIC_6093728.JPG,,ISIC_0054317.JPG,,30,true,0.1,ll,keypress(f),0,false,411104.59999996424,411104.39999997616,402568.918,402568.6999999881,402585.682,411135.66,1,40,6,
sequence,flow.Sequence,6_5,2023-11-20T17:40:29.660Z,,,,,,,,,,,8518.717999976187,completion,,,,,,,low,low,,,,,,,true,,,,,false,411104.6999999881,411104.39999997616,402568.918,402568.6999999881,402585.682,411135.66,1,40,,
trial,html.Screen,6_6_0,2023-11-20T17:40:42.564Z,,,,1,-0.7809949855371787,0.8493861117004308,,,true,hl,12872.640000011947,response,1.2364994561934892,1.2,-1.2,-0.9174173651516624,1.2,-1.2,high,low,,ISIC_7450481.JPG,,ISIC_3481133.JPG,,26,true,0.3600000000000002,hl,keypress(j),0,false,424008.5,424008.3000000119,411102.021,411104.8000000119,411135.66,424018.966,1,40,7,
sequence,flow.Sequence,6_6,2023-11-20T17:40:42.564Z,,,,,,,,,,,12872.640000011947,completion,,,,,,,high,low,,,,,,,true,,,,,false,424008.6999999881,424008.3000000119,411102.021,411104.8000000119,411135.66,424018.966,1,40,,
trial,html.Screen,6_7_0,2023-11-20T17:40:50.173Z,,,,1,1.0789197754694622,1.1654690806750023,,,true,ll,7597.933999976143,response,-1.3971937664265142,1.2,-1.2,-1.286138745604178,1.2,-1.2,low,low,,ISIC_1576437.JPG,,ISIC_0061379.JPG,,339,true,0.42000000000000026,ll,keypress(f),0,false,431617.09999996424,431616.89999997616,424001.912,424008.8000000119,424018.966,431652.32,1,40,8,
sequence,flow.Sequence,6_7,2023-11-20T17:40:50.173Z,,,,,,,,,,,7597.933999976143,completion,,,,,,,low,low,,,,,,,true,,,,,false,431617.39999997616,431616.89999997616,424001.912,424008.8000000119,424018.966,431652.32,1,40,,
trial,html.Screen,6_8_0,2023-11-20T17:41:03.916Z,,,,1,-0.7809949855371787,0.8493861117004308,,,true,hl,13707.980000011914,response,0.9696118525781644,1.2,-1.2,-0.9244148283103414,1.2,-1.2,high,low,,ISIC_7450481.JPG,,ISIC_7927525.JPG,,26,true,0.3600000000000002,hl,keypress(j),0,false,445360.39999997616,445360.3000000119,431602.084,431617.5,431652.32,445369.034,1,40,9,
sequence,flow.Sequence,6_8,2023-11-20T17:41:03.916Z,,,,,,,,,,,13707.980000011914,completion,,,,,,,high,low,,,,,,,true,,,,,false,445360.59999996424,445360.3000000119,431602.084,431617.5,431652.32,445369.034,1,40,,
trial,html.Screen,6_9_0,2023-11-20T17:41:15.989Z,,,,1,1.011737552725394,-0.8500530224490773,,,true,lh,12064.165999988094,response,-1.0115965332688306,1.2,-1.2,0.8282633603842442,1.2,-1.2,low,high,,ISIC_2998367.JPG,,ISIC_1069587.JPG,,27,true,0.42000000000000026,lh,keypress(e),0,false,457433.39999997616,457433.1999999881,445351.911,445360.59999996424,445369.034,457435.75,1,40,10,
sequence,flow.Sequence,6_9,2023-11-20T17:41:15.990Z,,,,,,,,,,,12064.165999988094,completion,,,,,,,low,high,,,,,,,true,,,,,false,457433.8000000119,457433.1999999881,445351.911,445360.59999996424,445369.034,457435.75,1,40,,
trial,html.Screen,6_10_0,2023-11-20T17:41:25.165Z,,,,1,-1.126264390089724,-1.271896565050952,,,true,hh,9173.050000011921,response,1.294521945180264,1.2,-1.2,1.3794745596957585,1.2,-1.2,high,high,,ISIC_1520897.JPG,,ISIC_3601224.JPG,,179,true,0.3600000000000002,hh,keypress(i),0,false,466608.89999997616,466608.8000000119,457418.809,457434,457435.75,466652.387,1,40,11,
sequence,flow.Sequence,6_10,2023-11-20T17:41:25.165Z,,,,,,,,,,,9173.050000011921,completion,,,,,,,high,high,,,,,,,true,,,,,false,466609.1999999881,466608.8000000119,457418.809,457433.89999997616,457435.75,466652.387,1,40,,
trial,html.Screen,6_11_0,2023-11-20T17:41:39.661Z,,,,1,0.8534691366511764,-1.03975580494588,,,true,lh,14452.613000000012,response,-0.948927472020595,1.2,-1.2,1.0660437155921598,1.2,-1.2,low,high,,ISIC_0056788.JPG,,ISIC_5808758.JPG,,27,true,0.42000000000000026,lh,keypress(e),0,false,481105.1999999881,481105,466602.196,466609.3000000119,466652.387,481135.764,1,40,12,
sequence,flow.Sequence,6_11,2023-11-20T17:41:39.661Z,,,,,,,,,,,14452.613000000012,completion,,,,,,,low,high,,,,,,,true,,,,,false,481105.39999997616,481105,466602.196,466609.1999999881,466652.387,481135.764,1,40,,
trial,html.Screen,6_12_0,2023-11-20T17:41:51.885Z,,,,1,-0.8623414234919863,0.782830143980698,,,true,hl,12192.935999988054,response,1.020990671779317,1.2,-1.2,-1.0116513850520903,1.2,-1.2,high,low,,ISIC_2727016.JPG,,ISIC_0011995.JPG,,26,true,0.3600000000000002,hl,keypress(j),0,false,493328.8000000119,493328.6999999881,481102.003,481105.59999996424,481135.764,493335.733,1,40,13,
sequence,flow.Sequence,6_12,2023-11-20T17:41:51.885Z,,,,,,,,,,,12192.935999988054,completion,,,,,,,high,low,,,,,,,true,,,,,false,493329.09999996424,493328.6999999881,481102.003,481105.59999996424,481135.764,493335.733,1,40,,
trial,html.Screen,6_13_0,2023-11-20T17:42:02.678Z,,,,1,-1.2071341803968807,-1.235960269089932,,,true,hh,10785.766999999993,response,1.2023251949137908,1.2,-1.2,0.883329474530484,1.2,-1.2,high,high,,ISIC_0058174.JPG,,ISIC_2620357.JPG,,253,true,0.42000000000000026,hh,keypress(i),0,false,504121.89999997616,504121.5,493318.649,493329.3000000119,493335.733,504152.435,1,40,14,
sequence,flow.Sequence,6_13,2023-11-20T17:42:02.678Z,,,,,,,,,,,10785.766999999993,completion,,,,,,,high,high,,,,,,,true,,,,,false,504122.3000000119,504121.5,493318.649,493329.1999999881,493335.733,504152.435,1,40,,
trial,html.Screen,6_14_0,2023-11-20T17:42:15.301Z,,,,1,0.8534691366511764,-1.03975580494588,,,true,lh,12592.764999988081,response,-0.8816288864119318,1.2,-1.2,0.801867301188093,1.2,-1.2,low,high,,ISIC_0056788.JPG,,ISIC_9196783.JPG,,27,true,0.42000000000000026,lh,keypress(e),0,false,516745.39999997616,516745.1999999881,504118.876,504122.5,504152.435,516785.761,1,40,15,
sequence,flow.Sequence,6_14,2023-11-20T17:42:15.302Z,,,,,,,,,,,12592.764999988081,completion,,,,,,,low,high,,,,,,,true,,,,,false,516745.6999999881,516745.1999999881,504118.876,504122.39999997616,504152.435,516785.761,1,40,,
trial,html.Screen,6_15_0,2023-11-20T17:42:25.252Z,,,,1,-0.8816288864119318,0.801867301188093,,,true,hl,9910.63899997616,response,1.2331439637486756,1.2,-1.2,-0.9691143900156988,1.2,-1.2,high,low,,ISIC_9196783.JPG,,ISIC_7877488.JPG,,26,true,0.3600000000000002,hl,keypress(j),0,false,526696.3999999762,526696.3999999762,516735.471,516745.89999997616,516785.761,526702.485,1,40,16,
sequence,flow.Sequence,6_15,2023-11-20T17:42:25.253Z,,,,,,,,,,,9910.63899997616,completion,,,,,,,high,low,,,,,,,true,,,,,false,526696.5999999642,526696.3999999762,516735.471,516745.89999997616,516785.761,526702.485,1,40,,
trial,html.Screen,6_16_0,2023-11-20T17:42:36.293Z,,,,1,1.1598623261077452,1.203269031614007,,,true,ll,11033.714999988093,response,-1.1233838977156558,1.2,-1.2,-0.8600511147636151,1.2,-1.2,low,low,,ISIC_0002639.JPG,,ISIC_0031965.JPG,,339,true,0.42000000000000026,ll,keypress(f),0,false,537736.3999999762,537736.1999999881,526685.476,526696.6999999881,526702.485,537769.163,1,40,17,
sequence,flow.Sequence,6_16,2023-11-20T17:42:36.293Z,,,,,,,,,,,11033.714999988093,completion,,,,,,,low,low,,,,,,,true,,,,,false,537736.5,537736.1999999881,526685.476,526696.6999999881,526702.485,537769.163,1,40,,
trial,html.Screen,6_17_0,2023-11-20T17:42:52.310Z,,,,1,-0.8200962008791046,0.7936051642828523,,,,,16016.714000000036,timeout,1.011737552725394,1.2,-1.2,-0.8500530224490773,1.2,-1.2,high,low,,ISIC_0027031.JPG,,ISIC_2998367.JPG,,26,true,0.3600000000000002,,,0,false,553753.3000000119,553753.0999999642,537735.42,537736.5999999642,537769.163,553785.877,1,40,18,
sequence,flow.Sequence,6_17,2023-11-20T17:42:52.310Z,,,,,,,,,,,15983.936999964295,completion,,,,,,,high,low,,,,,,,true,,,,,false,553753.5,553753.0999999642,537735.42,537736.5999999642,537769.163,553785.877,1,40,,
trial,html.Screen,6_18_0,2023-11-20T17:43:00.254Z,,,,1,0.991282840649944,-0.9397921099839784,,,true,lh,7911.3229999881005,response,-1.0264463986917702,1.2,-1.2,1.2804054832904397,1.2,-1.2,low,high,,ISIC_0000463.JPG,,ISIC_7889838.JPG,,27,true,0.42000000000000026,lh,keypress(e),0,false,561697.3999999762,561697.1999999881,553769.187,553753.5999999642,553785.877,561719.188,1,40,19,
sequence,flow.Sequence,6_18,2023-11-20T17:43:00.254Z,,,,,,,,,,,7911.3229999881005,completion,,,,,,,low,high,,,,,,,true,,,,,false,561697.8000000119,561697.1999999881,553769.187,553753.5999999642,553785.877,561719.188,1,40,,
trial,html.Screen,6_19_0,2023-11-20T17:43:07.982Z,,,,1,1.1181734135756094,-0.944560381774994,,,true,lh,7705.711999976193,response,-0.809764442462202,1.2,-1.2,1.005337148078696,1.2,-1.2,low,high,,ISIC_9688534.JPG,,ISIC_2379379.JPG,,27,true,0.42000000000000026,lh,keypress(e),0,false,569425.1999999881,569424.8999999762,561685.589,561698,561719.188,569435.927,1,40,20,
sequence,flow.Sequence,6_19,2023-11-20T17:43:07.982Z,,,,,,,,,,,7705.711999976193,completion,,,,,,,low,high,,,,,,,true,,,,,false,569425.5,569424.8999999762,561685.589,561698,561719.188,569435.927,1,40,,
trial,html.Screen,6_20_0,2023-11-20T17:43:12.045Z,,,,1,-1.2254187569955004,-1.174555235109734,,,true,hh,4052.472999976133,response,1.1508713823316503,1.2,-1.2,1.5479614913480244,1.2,-1.2,high,high,,ISIC_0027187.JPG,,ISIC_5859812.JPG,,179,true,0.3600000000000002,hh,keypress(i),0,false,573488.5999999642,573488.3999999762,569418.988,569425.6999999881,569435.927,573502.68,1,40,21,
sequence,flow.Sequence,6_20,2023-11-20T17:43:12.045Z,,,,,,,,,,,4052.472999976133,completion,,,,,,,high,high,,,,,,,true,,,,,false,573488.8000000119,573488.3999999762,569418.988,569425.5999999642,569435.927,573502.68,1,40,,
trial,html.Screen,6_21_0,2023-11-20T17:43:14.909Z,,,,1,-1.1253220985777015,-1.108725659461368,,,true,hh,2850.219999976107,response,1.0717785279820962,1.2,-1.2,1.1267239445830604,1.2,-1.2,high,high,,ISIC_0054954.JPG,,ISIC_9948815.JPG,,26,true,0.15000000000000002,hh,keypress(i),0,false,576353.0999999642,576352.8999999762,573485.779,573488.8999999762,573502.68,576402.533,1,40,22,
sequence,flow.Sequence,6_21,2023-11-20T17:43:14.910Z,,,,,,,,,,,2850.219999976107,completion,,,,,,,high,high,,,,,,,true,,,,,false,576353.3999999762,576352.8999999762,573485.779,573488.8999999762,573502.68,576402.533,1,40,,
trial,html.Screen,6_22_0,2023-11-20T17:43:22.206Z,,,,1,-0.8200962008791046,0.7936051642828523,,,true,hl,7246.866999976104,response,1.2331439637486756,1.2,-1.2,-0.9691143900156988,1.2,-1.2,high,low,,ISIC_0027031.JPG,,ISIC_7877488.JPG,,26,true,0.3600000000000002,hl,keypress(j),0,false,583649.5999999642,583649.3999999762,576352.602,576353.5,576402.533,583669.22,1,40,23,
sequence,flow.Sequence,6_22,2023-11-20T17:43:22.206Z,,,,,,,,,,,7246.866999976104,completion,,,,,,,high,low,,,,,,,true,,,,,false,583649.8999999762,583649.3999999762,576352.602,576353.5,576402.533,583669.22,1,40,,
trial,html.Screen,6_23_0,2023-11-20T17:43:34.901Z,,,,1,0.9696118525781644,-0.9244148283103414,,,true,lh,12675.379999964265,response,-0.948927472020595,1.2,-1.2,1.0660437155921598,1.2,-1.2,low,high,,ISIC_7927525.JPG,,ISIC_5808758.JPG,,27,true,0.42000000000000026,lh,keypress(e),0,false,596344.6999999881,596344.5999999642,583635.742,583650.0999999642,583669.22,596352.565,1,40,24,
sequence,flow.Sequence,6_23,2023-11-20T17:43:34.901Z,,,,,,,,,,,12675.379999964265,completion,,,,,,,low,high,,,,,,,true,,,,,false,596344.8999999762,596344.5999999642,583635.742,583650,583669.22,596352.565,1,40,,
trial,html.Screen,6_24_0,2023-11-20T17:43:40.661Z,,,,1,1.1653123206802332,1.2976858999596654,,,true,ll,5751.634999988135,response,-0.9294025002993848,1.2,-1.2,-1.4649296524284852,1.2,-1.2,low,low,,ISIC_0071508.JPG,,ISIC_1348843.JPG,,245,true,0.3600000000000002,ll,keypress(f),0,false,602104.3000000119,602104.1999999881,596335.392,596344.8999999762,596352.565,602119.252,1,40,25,
sequence,flow.Sequence,6_24,2023-11-20T17:43:40.661Z,,,,,,,,,,,5751.634999988135,completion,,,,,,,low,low,,,,,,,true,,,,,false,602104.3999999762,602104.1999999881,596335.392,596344.8999999762,596352.565,602119.252,1,40,,
trial,html.Screen,6_25_0,2023-11-20T17:43:44.813Z,,,,1,-1.2923059965680113,-1.222688159093534,,,true,hh,4137.347999964259,response,1.1653123206802332,1.2,-1.2,1.2976858999596654,1.2,-1.2,high,high,,ISIC_0072175.JPG,,ISIC_0071508.JPG,,26,true,0.15000000000000002,hh,keypress(i),0,false,606256.8000000119,606256.5999999642,602102.398,602104.5999999642,602119.252,606269.249,1,40,26,
sequence,flow.Sequence,6_25,2023-11-20T17:43:44.814Z,,,,,,,,,,,4137.347999964259,completion,,,,,,,high,high,,,,,,,true,,,,,false,606257.3000000119,606256.5999999642,602102.398,602104.5999999642,602119.252,606269.249,1,40,,
trial,html.Screen,6_26_0,2023-11-20T17:43:50.726Z,,,,1,1.2503149164557643,1.0796591227570405,,,true,ll,5899.7510000000475,response,-1.1474466950560966,1.2,-1.2,-1.268445326285509,1.2,-1.2,low,low,,ISIC_2466892.JPG,,ISIC_5216586.JPG,,30,true,0.1,ll,keypress(f),0,false,612169.0999999642,612169,606252.484,606257.3999999762,606269.249,612219.24,1,40,27,
sequence,flow.Sequence,6_26,2023-11-20T17:43:50.726Z,,,,,,,,,,,5899.7510000000475,completion,,,,,,,low,low,,,,,,,true,,,,,false,612169.5,612169,606252.484,606257.3999999762,606269.249,612219.24,1,40,,
trial,html.Screen,6_27_0,2023-11-20T17:44:06.760Z,,,,1,-0.8947611078712571,0.8960964505004638,,,,,16016.695000000065,timeout,0.991282840649944,1.2,-1.2,-0.9397921099839784,1.2,-1.2,high,low,,ISIC_6441128.JPG,,ISIC_0000463.JPG,,26,true,0.3600000000000002,,,0,false,628203,628202.8999999762,612169.185,612169.5999999642,612219.24,628235.935,1,40,28,
sequence,flow.Sequence,6_27,2023-11-20T17:44:06.760Z,,,,,,,,,,,15983.659999976167,completion,,,,,,,high,low,,,,,,,true,,,,,false,628203.1999999881,628202.8999999762,612169.185,612169.5999999642,612219.24,628235.935,1,40,,
trial,html.Screen,6_28_0,2023-11-20T17:44:15.013Z,,,,1,1.2711018615747949,1.1042234044781618,,,true,ll,8220.365000011865,response,-1.24994064298842,1.2,-1.2,-0.8554516937538746,1.2,-1.2,low,low,,ISIC_8603734.JPG,,ISIC_0061829.JPG,,339,true,0.42000000000000026,ll,keypress(f),0,false,636456.5,636456.3000000119,628219.477,628203.3000000119,628235.935,636469.293,1,40,29,
sequence,flow.Sequence,6_28,2023-11-20T17:44:15.013Z,,,,,,,,,,,8220.365000011865,completion,,,,,,,low,low,,,,,,,true,,,,,false,636456.6999999881,636456.3000000119,628219.477,628203.3000000119,628235.935,636469.293,1,40,,
trial,html.Screen,6_29_0,2023-11-20T17:44:20.213Z,,,,1,-1.1033977063872138,-1.2513071571733083,,,true,hh,5187.30699996429,response,1.0870240111136478,1.2,-1.2,1.332340670965917,1.2,-1.2,high,high,,ISIC_0025472.JPG,,ISIC_0000660.JPG,,26,true,0.15000000000000002,hh,keypress(i),0,false,641656.8000000119,641656.5999999642,636452.357,636456.6999999881,636469.293,641669.268,1,40,30,
sequence,flow.Sequence,6_29,2023-11-20T17:44:20.214Z,,,,,,,,,,,5187.30699996429,completion,,,,,,,high,high,,,,,,,true,,,,,false,641657.0999999642,641656.5999999642,636452.357,636456.6999999881,636469.293,641669.268,1,40,,
trial,html.Screen,6_30_0,2023-11-20T17:44:24.534Z,,,,1,-1.1253220985777015,-1.108725659461368,,,true,hh,4307.532000011881,response,1.1642596483638106,1.2,-1.2,1.109799097093339,1.2,-1.2,high,high,,ISIC_0054954.JPG,,ISIC_0765584.JPG,,26,true,0.15000000000000002,hh,keypress(i),0,false,645977.0999999642,645976.8000000119,641652.623,641657.0999999642,641669.268,645985.937,1,40,31,
sequence,flow.Sequence,6_30,2023-11-20T17:44:24.534Z,,,,,,,,,,,4307.532000011881,completion,,,,,,,high,high,,,,,,,true,,,,,false,645977.3000000119,645976.8000000119,641652.623,641657.0999999642,641669.268,645985.937,1,40,,
trial,html.Screen,6_31_0,2023-11-20T17:44:29.341Z,,,,1,1.131522954199764,1.1047184491749509,,,true,ll,4798.462999976124,response,-1.2493792664822851,1.2,-1.2,-1.1336008561684745,1.2,-1.2,low,low,,ISIC_1868816.JPG,,ISIC_0061475.JPG,,30,true,0.1,ll,keypress(f),0,false,650784.5999999642,650784.3999999762,645969.325,645977.5,645985.937,650819.3,1,40,32,
sequence,flow.Sequence,6_31,2023-11-20T17:44:29.342Z,,,,,,,,,,,4798.462999976124,completion,,,,,,,low,low,,,,,,,true,,,,,false,650784.6999999881,650784.3999999762,645969.325,645977.3999999762,645985.937,650819.3,1,40,,
trial,html.Screen,6_32_0,2023-11-20T17:44:38.838Z,,,,1,-1.276222161935671,0.9657780821973284,,,true,hl,9461.29999996419,response,1.2364994561934892,1.2,-1.2,-0.9174173651516624,1.2,-1.2,high,low,,ISIC_6710411.JPG,,ISIC_3481133.JPG,,26,true,0.3600000000000002,hl,keypress(j),0,false,660280.5999999642,660280.5999999642,650769.138,650784.6999999881,650819.3,660302.66,1,40,33,
sequence,flow.Sequence,6_32,2023-11-20T17:44:38.838Z,,,,,,,,,,,9461.29999996419,completion,,,,,,,high,low,,,,,,,true,,,,,false,660280.8000000119,660280.5999999642,650769.138,650784.6999999881,650819.3,660302.66,1,40,,
trial,html.Screen,6_33_0,2023-11-20T17:44:47.605Z,,,,1,-1.0022829373011404,0.8311726972863814,,,true,hl,8745.640000011888,response,0.8487429103619056,1.2,-1.2,-0.9778257804233036,1.2,-1.2,high,low,,ISIC_0033287.JPG,,ISIC_4554863.JPG,,33,true,0.42000000000000026,hl,keypress(j),0,false,669048.5,669048.3000000119,660269.059,660280.8999999762,660302.66,669052.673,1,40,34,
sequence,flow.Sequence,6_33,2023-11-20T17:44:47.606Z,,,,,,,,,,,8745.640000011888,completion,,,,,,,high,low,,,,,,,true,,,,,false,669048.6999999881,669048.3000000119,660269.059,660280.8999999762,660302.66,669052.673,1,40,,
trial,html.Screen,6_34_0,2023-11-20T17:44:56.551Z,,,,1,-1.247270138097585,-1.1704704713504994,,,true,hh,8940.62700001197,response,1.0769490291795207,1.2,-1.2,1.0174515954885954,1.2,-1.2,high,high,,ISIC_0065774.JPG,,ISIC_0028135.JPG,,253,true,0.42000000000000026,hh,keypress(i),0,false,677993.5,677993.3000000119,669035.751,669048.6999999881,669052.673,678002.708,1,40,35,
sequence,flow.Sequence,6_34,2023-11-20T17:44:56.551Z,,,,,,,,,,,8940.62700001197,completion,,,,,,,high,high,,,,,,,true,,,,,false,677993.8999999762,677993.3000000119,669035.751,669048.6999999881,669052.673,678002.708,1,40,,
trial,html.Screen,6_35_0,2023-11-20T17:44:58.566Z,,,,1,-1.156827121261563,-1.2544342720917778,,,true,hh,2006.391999964253,response,1.2706447584800626,1.2,-1.2,1.0903308007916603,1.2,-1.2,high,high,,ISIC_0060397.JPG,,ISIC_9425937.JPG,,26,true,0.15000000000000002,hh,keypress(i),0,false,680009.3000000119,680009.0999999642,677985.671,677994.0999999642,678002.708,680069.357,1,40,36,
sequence,flow.Sequence,6_35,2023-11-20T17:44:58.567Z,,,,,,,,,,,2006.391999964253,completion,,,,,,,high,high,,,,,,,true,,,,,false,680009.5999999642,680009.0999999642,677985.671,677994,678002.708,680069.357,1,40,,
trial,html.Screen,6_36_0,2023-11-20T17:45:04.926Z,,,,1,0.9579209317488,-1.0147487101263497,,,true,lh,6299.64300000004,response,-0.948927472020595,1.2,-1.2,1.0660437155921598,1.2,-1.2,low,high,,ISIC_8124482.JPG,,ISIC_5808758.JPG,,27,true,0.42000000000000026,lh,keypress(e),0,false,686369.3000000119,686369,680002.876,680009.8000000119,680069.357,686402.668,1,40,37,
sequence,flow.Sequence,6_36,2023-11-20T17:45:04.927Z,,,,,,,,,,,6299.64300000004,completion,,,,,,,low,high,,,,,,,true,,,,,false,686369.5999999642,686369,680002.876,680009.6999999881,680069.357,686402.668,1,40,,
trial,html.Screen,6_37_0,2023-11-20T17:45:12.190Z,,,,1,0.879102500583965,-1.0933081951979773,,,true,lh,7230.531999988132,response,-0.991146183030456,1.2,-1.2,0.9949639823722534,1.2,-1.2,low,high,,ISIC_0046223.JPG,,ISIC_6342224.JPG,,27,true,0.42000000000000026,lh,keypress(e),0,false,693633.3000000119,693633.1999999881,686369.37,686369.8000000119,686402.668,693652.719,1,40,38,
sequence,flow.Sequence,6_37,2023-11-20T17:45:12.191Z,,,,,,,,,,,7230.531999988132,completion,,,,,,,low,high,,,,,,,true,,,,,false,693633.6999999881,693633.1999999881,686369.37,686369.8000000119,686402.668,693652.719,1,40,,
trial,html.Screen,6_38_0,2023-11-20T17:45:18.189Z,,,,1,1.086647361897092,1.1528935990320313,,,true,ll,5979.380999964196,response,-1.2888167797913492,1.2,-1.2,-1.558506218067666,1.2,-1.2,low,low,,ISIC_3505339.JPG,,ISIC_0009931.JPG,,245,true,0.3600000000000002,ll,keypress(f),0,false,699632.1999999881,699632.0999999642,693619.253,693633.8999999762,693652.719,699636.037,1,40,39,
sequence,flow.Sequence,6_38,2023-11-20T17:45:18.189Z,,,,,,,,,,,5979.380999964196,completion,,,,,,,low,low,,,,,,,true,,,,,false,699632.3999999762,699632.0999999642,693619.253,693633.8000000119,693652.719,699636.037,1,40,,
trial,html.Screen,6_39_0,2023-11-20T17:45:26.487Z,,,,1,1.09666761087476,1.1072126870290426,,,true,ll,8293.162999988068,response,-1.0910404089869363,1.2,-1.2,-1.119702461098404,1.2,-1.2,low,low,,ISIC_0071754.JPG,,ISIC_0067097.JPG,,53,true,0.15000000000000002,ll,keypress(f),0,false,707929.5,707929.1999999881,699619.309,699632.3999999762,699636.037,707936.099,1,40,40,
sequence,flow.Sequence,6_39,2023-11-20T17:45:26.487Z,,,,,,,,,,,8293.162999988068,completion,,,,,,,low,low,,,,,,,true,,,,,false,707929.8000000119,707929.1999999881,699619.309,699632.3999999762,699636.037,707936.099,1,40,,
practice_loop,flow.Loop,6,2023-11-20T17:45:26.487Z,,,,,,,,,,,357926.9539999881,completion,,,,,,,,,,,,,,,true,,,,,false,707930.0999999642,707929.1999999881,349935.831,349951.8000000119,350002.246,707936.099,1,40,,
stair_instructions,html.Screen,7,2023-11-20T17:46:20.806Z,,,,,,,,,,,54311.900999999954,response,,,,,,,,,,,,,,,,,continue,click button,,,762248.5,762248,707919.308,707930.3000000119,707936.099,762252.796,,,,
trial,html.Screen,8_0_0,2023-11-20T17:46:29.129Z,,,,2,-0.0057914759495055,-0.0074667911845194,,0.05,true,ll,8318.603999976185,response,-1.156827121261563,1.2,-1.2,-1.2544342720917778,1.2,-1.2,low,low,,ISIC_0058723.JPG,,ISIC_0060397.JPG,33,53,false,0.15000000000000002,ll,keypress(f),0,true,770571.5,770571.3999999762,762236.239,762248.5999999642,762252.796,770586.205,1,40,1,
sequence,flow.Sequence,8_0,2023-11-20T17:46:29.129Z,,,,,,,,,,,8318.603999976185,completion,,,,,,,low,low,,,,,,,false,,,,,true,770571.5999999642,770571.3999999762,762236.239,762248.5999999642,762252.796,770586.205,1,40,,
trial,html.Screen,8_1_0,2023-11-20T17:46:34.446Z,,,,2,-0.0389988030702649,-0.0143212271490256,,0.05,true,hh,5302.295000000042,response,1.2711018615747949,1.15,-1.15,1.1042234044781618,1.15,-1.15,high,high,,ISIC_0064669.JPG,,ISIC_8603734.JPG,33,30,false,0.13,hh,keypress(i),0,true,775888.5999999642,775888.5,770569.475,770571.6999999881,770586.205,775902.819,1,40,2,
sequence,flow.Sequence,8_1,2023-11-20T17:46:34.446Z,,,,,,,,,,,5302.295000000042,completion,,,,,,,high,high,,,,,,,false,,,,,true,775888.6999999881,775888.5,770569.475,770571.6999999881,770586.205,775902.819,1,40,,
trial,html.Screen,8_2_0,2023-11-20T17:46:39.168Z,,,,2,-0.0363437082783146,-0.0333332186217051,,0.05,false,hl,4707.2809999642195,response,1.2695509547992938,1.15,-1.15,-0.9641099676945492,1.15,-1.15,high,low,,ISIC_3314555.JPG,,ISIC_0025841.JPG,33,25,false,0.31000000000000016,hh,keypress(i),0,true,780610.3000000119,780610.0999999642,775886.136,775888.8000000119,775902.819,780619.476,1,40,3,
sequence,flow.Sequence,8_2,2023-11-20T17:46:39.168Z,,,,,,,,,,,4707.2809999642195,completion,,,,,,,high,low,,,,,,,false,,,,,true,780610.5999999642,780610.0999999642,775886.136,775888.8000000119,775902.819,780619.476,1,40,,
trial,html.Screen,8_3_0,2023-11-20T17:46:42.926Z,,,,2,-0.0324770283903853,-0.0249968632204382,,0.05,true,ll,3748.723999988055,response,-1.188743606919222,1.1368871796387279,-1.15,-1.0980226451001782,1.15,-1.15,low,low,,ISIC_7266462.JPG,,ISIC_0060481.JPG,33,27,false,0.1,ll,keypress(f),0,true,784368.1999999881,784368.1999999881,780602.88,780610.8000000119,780619.476,784386.591,1,40,4,
sequence,flow.Sequence,8_3,2023-11-20T17:46:42.926Z,,,,,,,,,,,3748.723999988055,completion,,,,,,,low,low,,,,,,,false,,,,,true,784368.3999999762,784368.1999999881,780602.88,780610.6999999881,780619.476,784386.591,1,40,,
trial,html.Screen,8_4_0,2023-11-20T17:46:51.015Z,,,,2,-0.0450282431170921,0,,0.05,false,lh,8070.808999976143,response,-0.796241477082623,1.1368871796387279,-1.0933831260097,0.9017449335975743,1.15,-1.15,low,high,,ISIC_1805163.JPG,,ISIC_8588033.JPG,33,28,false,0.3600000000000002,ll,keypress(f),0,true,792457.6999999881,792457.3999999762,784352.952,784368.3999999762,784386.591,792469.51,1,40,5,
sequence,flow.Sequence,8_4,2023-11-20T17:46:51.016Z,,,,,,,,,,,8070.808999976143,completion,,,,,,,low,high,,,,,,,false,,,,,true,792458,792457.3999999762,784352.952,784368.3999999762,784386.591,792469.51,1,40,,
trial,html.Screen,8_5_0,2023-11-20T17:46:54.598Z,,,,2,-0.0107854985447517,-0.0478010417136109,,0.05,false,hl,3570.7900000119116,response,1.2331439637486756,1.1368871796387279,-1.0933831260097,-0.9691143900156988,1.15,-1.15,high,low,,ISIC_0010500.JPG,,ISIC_7877488.JPG,33,25,false,0.30000000000000016,hh,keypress(i),0,true,796040.3000000119,796040.3000000119,792452.596,792458.1999999881,792469.51,796052.812,1,40,6,
sequence,flow.Sequence,8_5,2023-11-20T17:46:54.598Z,,,,,,,,,,,3570.7900000119116,completion,,,,,,,high,low,,,,,,,false,,,,,true,796040.3999999762,796040.3000000119,792452.596,792458.1999999881,792469.51,796052.812,1,40,,
trial,html.Screen,8_6_0,2023-11-20T17:47:03.390Z,,,,2,0.0134764727102299,0.0033499036460912,,0.05,false,ll,8779.488000011886,response,-1.0698162624196283,1.1368871796387279,-1.0933831260097,-1.219634566983089,1.15,-1.15,low,low,,ISIC_0009998.JPG,,ISIC_0030552.JPG,33,29,false,0.11,hl,keypress(j),0,true,804832.3000000119,804832.3000000119,796036.089,796040.5,796052.812,804852.827,1,40,7,
sequence,flow.Sequence,8_6,2023-11-20T17:47:03.390Z,,,,,,,,,,,8779.488000011886,completion,,,,,,,low,low,,,,,,,false,,,,,true,804832.5,804832.3000000119,796036.089,796040.3999999762,796052.812,804852.827,1,40,,
trial,html.Screen,8_7_0,2023-11-20T17:47:11.079Z,,,,2,0.0362376068089956,0.047825070846155,,0.05,false,lh,7668.772999964189,response,-0.991146183030456,1.1368871796387279,-1.1433831260097,0.9949639823722534,1.15,-1.15,low,high,,ISIC_6985114.JPG,,ISIC_6342224.JPG,33,27,false,0.3700000000000002,ll,keypress(f),0,true,812521.8999999762,812521.5999999642,804819.277,804832.5,804852.827,812536.241,1,40,8,
sequence,flow.Sequence,8_7,2023-11-20T17:47:11.080Z,,,,,,,,,,,7668.772999964189,completion,,,,,,,low,high,,,,,,,false,,,,,true,812522.3000000119,812521.5999999642,804819.277,804832.5,804852.827,812536.241,1,40,,
trial,html.Screen,8_8_0,2023-11-20T17:47:14.142Z,,,,2,-0.0070725527271049,-0.0049995141077508,,0.05,true,hh,3048.0590000118827,response,1.0406934755278734,1.1368871796387279,-1.1433831260097,1.2406966347110775,1.15,-1.15,high,high,,ISIC_6124481.JPG,,ISIC_2687641.JPG,33,28,false,0.13,hh,keypress(i),0,true,815584.5,815584.3000000119,812519.324,812522.3999999762,812536.241,815604.269,1,40,9,
sequence,flow.Sequence,8_8,2023-11-20T17:47:14.142Z,,,,,,,,,,,3048.0590000118827,completion,,,,,,,high,high,,,,,,,false,,,,,true,815584.6999999881,815584.3000000119,812519.324,812522.3999999762,812536.241,815604.269,1,40,,
trial,html.Screen,8_9_0,2023-11-20T17:47:18.759Z,,,,2,-0.0027483411352856,-0.0100996915276271,,0.05,true,hh,4596.930999988108,response,0.9821381220613687,1.0906950551194754,-1.1433831260097,1.1931254848796,1.15,-1.15,high,high,,ISIC_7364041.JPG,,ISIC_4107717.JPG,33,31,false,0.13,hh,keypress(i),0,true,820201.3000000119,820201.1999999881,815569.514,815584.8000000119,815604.269,820220.803,1,40,10,
sequence,flow.Sequence,8_9,2023-11-20T17:47:18.759Z,,,,,,,,,,,4596.930999988108,completion,,,,,,,high,high,,,,,,,false,,,,,true,820201.5999999642,820201.1999999881,815569.514,815584.8000000119,815604.269,820220.803,1,40,,
trial,html.Screen,8_10_0,2023-11-20T17:47:26.855Z,,,,2,-0.0050679133050021,0.0009714874637896,,0.05,false,ll,8075.896999988123,response,-1.135372722680314,1.0906950551194754,-1.1433831260097,-1.0926414044454305,1.0376318034704843,-1.15,low,low,,ISIC_9848743.JPG,,ISIC_2355513.JPG,33,25,false,0.1,lh,keypress(e),0,true,828296.8000000119,828296.6999999881,820186.203,820201.8000000119,820220.803,828302.841,1,40,11,
sequence,flow.Sequence,8_10,2023-11-20T17:47:26.855Z,,,,,,,,,,,8075.896999988123,completion,,,,,,,low,low,,,,,,,false,,,,,true,828297,828296.6999999881,820186.203,820201.8000000119,820220.803,828302.841,1,40,,
trial,html.Screen,8_11_0,2023-11-20T17:47:41.231Z,,,,2,0.0097091270150747,-0.0417921315885292,,0.05,false,hl,14369.858999988064,response,0.9696118525781644,1.0906950551194754,-1.0933831260097,-0.9244148283103414,1.0376318034704843,-1.15,high,low,,ISIC_3967213.JPG,,ISIC_7927525.JPG,33,26,false,0.30000000000000016,lh,keypress(e),0,true,842672.8000000119,842672.6999999881,828285.988,828297.0999999642,828302.841,842686.24,1,40,12,
sequence,flow.Sequence,8_11,2023-11-20T17:47:41.231Z,,,,,,,,,,,14369.858999988064,completion,,,,,,,high,low,,,,,,,false,,,,,true,842672.8999999762,842672.6999999881,828285.988,828297,828302.841,842686.24,1,40,,
trial,html.Screen,8_12_0,2023-11-20T17:47:47.672Z,,,,2,-0.0057914759495055,-0.0074667911845194,,0.05,true,hl,6427.1599999761675,response,0.8809306963311293,1.1406950551194754,-1.0933831260097,-0.8614910030038974,1.0376318034704843,-1.15,high,low,,ISIC_0058723.JPG,,ISIC_0013731.JPG,33,25,false,0.30000000000000016,hl,keypress(j),0,true,849113.6999999881,849113.3999999762,842669.02,842673,842686.24,849119.607,1,40,13,
sequence,flow.Sequence,8_12,2023-11-20T17:47:47.672Z,,,,,,,,,,,6427.1599999761675,completion,,,,,,,high,low,,,,,,,false,,,,,true,849114,849113.3999999762,842669.02,842673,842686.24,849119.607,1,40,,
trial,html.Screen,8_13_0,2023-11-20T17:47:51.479Z,,,,2,-0.0069555338059566,0.0310100918136373,,0.05,true,ll,3801.292999976198,response,-1.1253220985777015,1.1406950551194754,-1.0933831260097,-1.108725659461368,1.0376318034704843,-1.15,low,low,,ISIC_0011177.JPG,,ISIC_0054954.JPG,33,29,false,0.11,ll,keypress(f),0,true,852921.0999999642,852920.8999999762,849102.846,849114.1999999881,849119.607,852952.904,1,40,14,
sequence,flow.Sequence,8_13,2023-11-20T17:47:51.479Z,,,,,,,,,,,3801.292999976198,completion,,,,,,,low,low,,,,,,,false,,,,,true,852921.5,852920.8999999762,849102.846,849114.0999999642,849119.607,852952.904,1,40,,
trial,html.Screen,8_14_0,2023-11-20T17:47:55.127Z,,,,2,0.0134764727102299,0.0033499036460912,,0.05,false,lh,3616.0960000000196,response,-0.809764442462202,1.1406950551194754,-1.0933831260097,1.005337148078696,1.0376318034704843,-1.0670238790195345,low,high,,ISIC_0009998.JPG,,ISIC_2379379.JPG,33,27,false,0.31000000000000016,hh,keypress(i),0,true,856569.3000000119,856569,852919.558,852921.5999999642,852952.904,856586.37,1,40,15,
sequence,flow.Sequence,8_14,2023-11-20T17:47:55.128Z,,,,,,,,,,,3616.0960000000196,completion,,,,,,,low,high,,,,,,,false,,,,,true,856569.5999999642,856569,852919.558,852921.5999999642,852952.904,856586.37,1,40,,
trial,html.Screen,8_15_0,2023-11-20T17:47:58.327Z,,,,2,-0.0456515796420274,0.0273567130070961,,0.05,true,ll,3182.8299999880837,response,-1.0762260610050776,1.1406950551194754,-1.1433831260097,-1.082709423673037,1.0376318034704843,-1.0670238790195345,low,low,,ISIC_0068610.JPG,,ISIC_0058666.JPG,33,30,false,0.1,ll,keypress(f),0,true,859769.3999999762,859769.1999999881,856569.502,856569.6999999881,856586.37,859786.235,1,40,16,
sequence,flow.Sequence,8_15,2023-11-20T17:47:58.328Z,,,,,,,,,,,3182.8299999880837,completion,,,,,,,low,low,,,,,,,false,,,,,true,859769.6999999881,859769.1999999881,856569.502,856569.6999999881,856586.37,859786.235,1,40,,
trial,html.Screen,8_16_0,2023-11-20T17:48:02.647Z,,,,2,-0.0456515796420274,0.0273567130070961,,0.05,true,ll,4302.364999964251,response,-1.0917349644156236,1.1406950551194754,-1.1433831260097,-0.9715963767506804,1.0376318034704843,-1.0670238790195345,low,low,,ISIC_0068610.JPG,,ISIC_0034059.JPG,33,30,false,0.1,ll,keypress(f),0,true,864088.8000000119,864088.5999999642,859769.51,859769.8999999762,859786.235,864102.934,1,40,17,
sequence,flow.Sequence,8_16,2023-11-20T17:48:02.647Z,,,,,,,,,,,4302.364999964251,completion,,,,,,,low,low,,,,,,,false,,,,,true,864089.0999999642,864088.5999999642,859769.51,859769.8000000119,859786.235,864102.934,1,40,,
trial,html.Screen,8_17_0,2023-11-20T17:48:11.239Z,,,,2,-0.0069555338059566,0.0310100918136373,,0.05,false,hh,8578.165999964229,response,1.0378929077920005,1.1406950551194754,-0.9771529002118586,1.012953297890337,1.0376318034704843,-0.9771529002118586,high,high,,ISIC_0011177.JPG,,ISIC_0231745.JPG,33,27,false,0.11,lh,keypress(e),0,true,872681.1999999881,872681.0999999642,864086.128,864089.1999999881,864102.934,872702.925,1,40,18,
sequence,flow.Sequence,8_17,2023-11-20T17:48:11.239Z,,,,,,,,,,,8578.165999964229,completion,,,,,,,high,high,,,,,,,false,,,,,true,872681.5,872681.0999999642,864086.128,864089.0999999642,864102.934,872702.925,1,40,,
trial,html.Screen,8_18_0,2023-11-20T17:48:16.303Z,,,,2,-0.0456515796420274,0.0273567130070961,,0.05,true,hl,5041.7749999880325,response,1.4747161152848791,1.1906950551194755,-0.9771529002118586,-0.847048591307387,0.9876318034704843,-0.9771529002118586,high,low,,ISIC_0068610.JPG,,ISIC_0016092.JPG,33,26,false,0.29000000000000015,hl,keypress(j),0,true,877744.8999999762,877744.6999999881,872669.301,872681.5999999642,872702.925,877752.939,1,40,19,
sequence,flow.Sequence,8_18,2023-11-20T17:48:16.303Z,,,,,,,,,,,5041.7749999880325,completion,,,,,,,high,low,,,,,,,false,,,,,true,877745.0999999642,877744.6999999881,872669.301,872681.5999999642,872702.925,877752.939,1,40,,
trial,html.Screen,8_19_0,2023-11-20T17:48:23.112Z,,,,2,-0.0329095507339554,0.0382899749693245,,0.05,false,hl,6800.560999999987,response,1.0751036484083878,1.1906950551194755,-0.9771529002118586,-1.143906455483852,0.9876318034704843,-0.9771529002118586,high,low,,ISIC_8812781.JPG,,ISIC_0064406.JPG,33,26,false,0.29000000000000015,ll,keypress(f),0,true,884553.6999999881,884553.5,877736.187,877745.0999999642,877752.939,884569.628,1,40,20,
sequence,flow.Sequence,8_19,2023-11-20T17:48:23.112Z,,,,,,,,,,,6800.560999999987,completion,,,,,,,high,low,,,,,,,false,,,,,true,884554.1999999881,884553.5,877736.187,877745.0999999642,877752.939,884569.628,1,40,,
trial,html.Screen,8_20_0,2023-11-20T17:48:30.032Z,,,,2,0.0188047466661863,-0.0288346930436979,,0.05,false,lh,6903.771999976132,response,-0.8947611078712571,1.1906950551194755,-0.9771529002118586,0.8960964505004638,0.9876318034704843,-0.9454775233956194,low,high,,ISIC_0014157.JPG,,ISIC_6441128.JPG,33,25,false,0.21000000000000008,hh,keypress(i),0,true,891473.5999999642,891473.3999999762,884552.958,884554.3000000119,884569.628,891486.298,1,40,21,
sequence,flow.Sequence,8_20,2023-11-20T17:48:30.032Z,,,,,,,,,,,6903.771999976132,completion,,,,,,,low,high,,,,,,,false,,,,,true,891474,891473.3999999762,884552.958,884554.3000000119,884569.628,891486.298,1,40,,
trial,html.Screen,8_21_0,2023-11-20T17:48:35.231Z,,,,2,0.0102460616775615,-0.0309670599545429,,0.05,false,hl,5186.101999976207,response,1.10953285327247,1.1906950551194755,-1.0271529002118587,-0.7377773112414787,0.9876318034704843,-0.9454775233956194,high,low,,ISIC_0072041.JPG,,ISIC_1720840.JPG,33,25,false,0.2600000000000001,hh,keypress(i),0,true,896672.5999999642,896672.3999999762,891469.656,891474.1999999881,891486.298,896686.285,1,40,22,
sequence,flow.Sequence,8_21,2023-11-20T17:48:35.231Z,,,,,,,,,,,5186.101999976207,completion,,,,,,,high,low,,,,,,,false,,,,,true,896672.6999999881,896672.3999999762,891469.656,891474.0999999642,891486.298,896686.285,1,40,,
trial,html.Screen,8_22_0,2023-11-20T17:48:37.654Z,,,,2,-0.0070725527271049,-0.0049995141077508,,0.05,true,hh,2409.8149999642046,response,1.1920465299859582,1.1906950551194755,-1.0271529002118587,0.9548921292696696,0.9876318034704843,-0.9954775233956195,high,high,,ISIC_6124481.JPG,,ISIC_5566396.JPG,33,26,false,0.11,hh,keypress(i),0,true,899096.1999999881,899096.0999999642,896669.608,896672.6999999881,896686.285,899102.985,1,40,23,
sequence,flow.Sequence,8_22,2023-11-20T17:48:37.655Z,,,,,,,,,,,2409.8149999642046,completion,,,,,,,high,high,,,,,,,false,,,,,true,899096.3999999762,899096.0999999642,896669.608,896672.6999999881,896686.285,899102.985,1,40,,
trial,html.Screen,8_23_0,2023-11-20T17:48:41.832Z,,,,2,0,0.0264544974620926,,0.05,true,ll,4170.414999976172,response,-1.0088070132449485,0.9822124912710697,-1.0271529002118587,-1.0292526683018866,0.9822124912710697,-0.9954775233956195,low,low,,ISIC_0056991.JPG,,ISIC_0059314.JPG,33,33,false,0.1,ll,keypress(f),0,true,903273.6999999881,903273.3999999762,899086.406,899096.3999999762,899102.985,903286.337,1,40,24,
sequence,flow.Sequence,8_23,2023-11-20T17:48:41.832Z,,,,,,,,,,,4170.414999976172,completion,,,,,,,low,low,,,,,,,false,,,,,true,903274,903273.3999999762,899086.406,899096.3999999762,899102.985,903286.337,1,40,,
trial,html.Screen,8_24_0,2023-11-20T17:48:49.489Z,,,,2,-0.0085520978188085,0.0464691161264081,,0.05,false,hl,7643.5629999761,response,0.9579209317488,0.9822124912710697,-1.0271529002118587,-1.0147487101263497,0.9822124912710697,-0.9954775233956195,high,low,,ISIC_0758797.JPG,,ISIC_8124482.JPG,33,26,false,0.21000000000000008,hh,keypress(i),0,true,910930.1999999881,910929.8999999762,903269.521,903274.1999999881,903286.337,910936.328,1,40,25,
sequence,flow.Sequence,8_24,2023-11-20T17:48:49.489Z,,,,,,,,,,,7643.5629999761,completion,,,,,,,high,low,,,,,,,false,,,,,true,910930.8000000119,910929.8999999762,903269.521,903274.1999999881,903286.337,910936.328,1,40,,
trial,html.Screen,8_25_0,2023-11-20T17:48:54.311Z,,,,2,0.0348234368746005,-0.0236866303880924,,0.05,false,lh,4816.571999976179,response,-0.796241477082623,0.9822124912710697,-1.0271529002118587,0.9017449335975743,0.9822124912710697,-1.0454775233956195,low,high,,ISIC_0011099.JPG,,ISIC_8588033.JPG,33,27,false,0.2500000000000001,hh,keypress(i),0,true,915753.0999999642,915752.8999999762,910919.536,910930.8999999762,910936.328,915769.883,1,40,26,
sequence,flow.Sequence,8_25,2023-11-20T17:48:54.312Z,,,,,,,,,,,4816.571999976179,completion,,,,,,,low,high,,,,,,,false,,,,,true,915753.1999999881,915752.8999999762,910919.536,910930.8000000119,910936.328,915769.883,1,40,,
trial,html.Screen,8_26_0,2023-11-20T17:48:59.296Z,,,,2,-0.0456515796420274,0.0273567130070961,,0.05,true,hh,4967.2169999642065,response,0.924867075003666,0.9822124912710697,-1.0771529002118587,0.9114881908569834,0.9822124912710697,-1.0454775233956195,high,high,,ISIC_0068610.JPG,,ISIC_7499769.JPG,33,36,false,0.1,hh,keypress(i),0,true,920737.3000000119,920737.0999999642,915752.998,915753.3000000119,915769.883,920752.998,1,40,27,
sequence,flow.Sequence,8_26,2023-11-20T17:48:59.296Z,,,,,,,,,,,4967.2169999642065,completion,,,,,,,high,high,,,,,,,false,,,,,true,920737.5999999642,920737.0999999642,915752.998,915753.3000000119,915769.883,920752.998,1,40,,
trial,html.Screen,8_27_0,2023-11-20T17:49:08.640Z,,,,2,-0.0389988030702649,-0.0143212271490256,,0.05,true,lh,9328.201999988058,response,-1.0164576835546473,0.8566165622272788,-1.0771529002118587,0.8120626538423016,0.8566165622272788,-1.0454775233956195,low,high,,ISIC_0064669.JPG,,ISIC_6002694.JPG,33,26,false,0.2300000000000001,lh,keypress(e),0,true,930081.3999999762,930081.1999999881,920736.307,920737.8000000119,920752.998,930086.38,1,40,28,
sequence,flow.Sequence,8_27,2023-11-20T17:49:08.640Z,,,,,,,,,,,9328.201999988058,completion,,,,,,,low,high,,,,,,,false,,,,,true,930081.6999999881,930081.1999999881,920736.307,920737.6999999881,920752.998,930086.38,1,40,,
trial,html.Screen,8_28_0,2023-11-20T17:49:13.727Z,,,,2,0.0245376145053177,-0.0436993426328401,,0.05,true,ll,5082.119999999995,response,-0.9991183219041097,0.8566165622272788,-1.0771529002118587,-1.0098382533872188,0.8566165622272788,-1.0454775233956195,low,low,,ISIC_0056444.JPG,,ISIC_0010415.JPG,33,31,false,0.1,ll,keypress(f),0,true,935168.6999999881,935168.5,930069.502,930081.8000000119,930086.38,935186.87,1,40,29,
sequence,flow.Sequence,8_28,2023-11-20T17:49:13.727Z,,,,,,,,,,,5082.119999999995,completion,,,,,,,low,low,,,,,,,false,,,,,true,935168.8000000119,935168.5,930069.502,930081.6999999881,930086.38,935186.87,1,40,,
trial,html.Screen,8_29_0,2023-11-20T17:49:21.519Z,,,,2,-0.0324770283903853,-0.0249968632204382,,0.05,true,hh,7773.529999976163,response,0.8849616197102024,0.8566165622272788,-0.9544782876456641,0.8708774591990956,0.8566165622272788,-1.0454775233956195,high,high,,ISIC_7266462.JPG,,ISIC_2872107.JPG,33,44,false,0.1,hh,keypress(i),0,true,942960.3999999762,942960.3999999762,935153.092,935168.8999999762,935186.87,942969.694,1,40,30,
sequence,flow.Sequence,8_29,2023-11-20T17:49:21.519Z,,,,,,,,,,,7773.529999976163,completion,,,,,,,high,high,,,,,,,false,,,,,true,942960.5999999642,942960.3999999762,935153.092,935168.8999999762,935186.87,942969.694,1,40,,
trial,html.Screen,8_30_0,2023-11-20T17:49:29.376Z,,,,2,-0.0069555338059566,0.0310100918136373,,0.05,true,lh,7847.606000011903,response,-0.8947611078712571,0.8566165622272788,-0.9544782876456641,0.8960964505004638,0.827919539454649,-1.0454775233956195,low,high,,ISIC_0011177.JPG,,ISIC_6441128.JPG,33,28,false,0.17000000000000004,lh,keypress(e),0,true,950817.5,950817.3000000119,942952.901,942960.6999999881,942969.694,950819.742,1,40,31,
sequence,flow.Sequence,8_30,2023-11-20T17:49:29.376Z,,,,,,,,,,,7847.606000011903,completion,,,,,,,low,high,,,,,,,false,,,,,true,950817.8999999762,950817.3000000119,942952.901,942960.5999999642,942969.694,950819.742,1,40,,
trial,html.Screen,8_31_0,2023-11-20T17:49:33.664Z,,,,2,-0.0057914759495055,-0.0074667911845194,,0.05,true,hh,4285.157999976189,response,0.8399678098416189,0.8566165622272788,-0.9544782876456641,0.7546375633653641,0.827919539454649,-1.0454775233956195,high,high,,ISIC_0058723.JPG,,ISIC_3994250.JPG,33,53,false,0.1,hh,keypress(i),0,true,955105,955104.8999999762,950802.783,950818.0999999642,950819.742,955119.672,1,40,32,
sequence,flow.Sequence,8_31,2023-11-20T17:49:33.664Z,,,,,,,,,,,4285.157999976189,completion,,,,,,,high,high,,,,,,,false,,,,,true,955105.3000000119,955104.8999999762,950802.783,950818,950819.742,955119.672,1,40,,
trial,html.Screen,8_32_0,2023-11-20T17:49:39.863Z,,,,2,-0.0069555338059566,0.0310100918136373,,0.05,false,hl,6184.6280000119,response,0.6336866128947327,0.7753670069329139,-0.9544782876456641,-1.1497253047346905,0.7753670069329139,-1.0454775233956195,high,low,,ISIC_0011177.JPG,,ISIC_8747095.JPG,33,27,false,0.16000000000000003,lh,keypress(e),0,true,961304.3999999762,961304.3000000119,955103.003,955105.3999999762,955119.672,961319.757,1,40,33,
sequence,flow.Sequence,8_32,2023-11-20T17:49:39.863Z,,,,,,,,,,,6184.6280000119,completion,,,,,,,high,low,,,,,,,false,,,,,true,961304.5,961304.3000000119,955103.003,955105.3000000119,955119.672,961319.757,1,40,,
trial,html.Screen,8_33_0,2023-11-20T17:49:46.848Z,,,,2,-0.0329095507339554,0.0382899749693245,,0.05,true,hl,6969.342999964254,response,0.9579209317488,0.825367006932914,-0.9544782876456641,-1.0147487101263497,0.7753670069329139,-1.0954775233956195,high,low,,ISIC_8812781.JPG,,ISIC_8124482.JPG,33,26,false,0.18000000000000005,hl,keypress(j),0,true,968289.3000000119,968289.0999999642,961302.856,961304.5999999642,961319.757,968303.152,1,40,34,
sequence,flow.Sequence,8_33,2023-11-20T17:49:46.848Z,,,,,,,,,,,6969.342999964254,completion,,,,,,,high,low,,,,,,,false,,,,,true,968289.5999999642,968289.0999999642,961302.856,961304.5,961319.757,968303.152,1,40,,
trial,html.Screen,8_34_0,2023-11-20T17:49:52.280Z,,,,2,0.013431314305098,-0.0140597582944232,,0.05,true,ll,5418.247999976156,response,-0.9262674596267249,0.825367006932914,-0.9544782876456641,-1.0275767908572495,0.7753670069329139,-1.0954775233956195,low,low,,ISIC_0069617.JPG,,ISIC_5415749.JPG,33,35,false,0.1,ll,keypress(f),0,true,973721.6999999881,973721.3999999762,968286.112,968289.6999999881,968303.152,973736.41,1,40,35,
sequence,flow.Sequence,8_34,2023-11-20T17:49:52.281Z,,,,,,,,,,,5418.247999976156,completion,,,,,,,low,low,,,,,,,false,,,,,true,973722,973721.3999999762,968286.112,968289.5999999642,968303.152,973736.41,1,40,,
trial,html.Screen,8_35_0,2023-11-20T17:49:55.247Z,,,,2,0.0159061451859594,0.0296598845560212,,0.05,false,lh,2951.8900000118883,response,-0.8035152873995188,0.825367006932914,-0.9711627504917997,0.82868450251632,0.7753670069329139,-0.9711627504917997,low,high,,ISIC_0072564.JPG,,ISIC_0010671.JPG,33,30,false,0.17000000000000004,hh,keypress(i),0,true,976688.3999999762,976688.3000000119,973719.695,973722.1999999881,973736.41,976703.234,1,40,36,
sequence,flow.Sequence,8_35,2023-11-20T17:49:55.247Z,,,,,,,,,,,2951.8900000118883,completion,,,,,,,low,high,,,,,,,false,,,,,true,976688.5999999642,976688.3000000119,973719.695,973722.1999999881,973736.41,976703.234,1,40,,
trial,html.Screen,8_36_0,2023-11-20T17:50:02.687Z,,,,2,-0.0107854985447517,-0.0478010417136109,,0.05,true,hh,7425.365999964182,response,0.9064565001469764,0.825367006932914,-1.0211627504917997,0.7748322849719208,0.7753670069329139,-0.9711627504917997,high,high,,ISIC_0010500.JPG,,ISIC_0025877.JPG,33,66,false,0.1,hh,keypress(i),0,true,984128.8000000119,984128.5999999642,976686.515,976688.6999999881,976703.234,984136.366,1,40,37,
sequence,flow.Sequence,8_36,2023-11-20T17:50:02.688Z,,,,,,,,,,,7425.365999964182,completion,,,,,,,high,high,,,,,,,false,,,,,true,984129,984128.5999999642,976686.515,976688.5999999642,976703.234,984136.366,1,40,,
trial,html.Screen,8_37_0,2023-11-20T17:50:11.231Z,,,,2,-0.039728379742806,0.0228701131373768,,0.05,true,lh,8536.133999999962,response,-0.9388029871780448,0.7517583937441203,-1.0211627504917997,0.6990723246540984,0.7517583937441203,-0.9711627504917997,low,high,,ISIC_0054073.JPG,,ISIC_0014190.JPG,33,26,false,0.17000000000000004,lh,keypress(e),0,true,992672.5999999642,992672.5,984119.715,984129.0999999642,984136.366,992686.611,1,40,38,
sequence,flow.Sequence,8_37,2023-11-20T17:50:11.231Z,,,,,,,,,,,8536.133999999962,completion,,,,,,,low,high,,,,,,,false,,,,,true,992672.8000000119,992672.5,984119.715,984129.0999999642,984136.366,992686.611,1,40,,
trial,html.Screen,8_38_0,2023-11-20T17:50:15.591Z,,,,2,0.0097091270150747,-0.0417921315885292,,0.05,true,hh,4345.689000011887,response,0.6712316442117828,0.7517583937441203,-1.0211627504917997,0.6982740827464552,0.7517583937441203,-0.9711627504917997,high,high,,ISIC_3967213.JPG,,ISIC_0002745.JPG,33,72,false,0.1,hh,keypress(i),0,true,997032.3000000119,997032.3000000119,992669.584,992672.8000000119,992686.611,997036.421,1,40,39,
sequence,flow.Sequence,8_38,2023-11-20T17:50:15.591Z,,,,,,,,,,,4345.689000011887,completion,,,,,,,high,high,,,,,,,false,,,,,true,997032.5,997032.3000000119,992669.584,992672.8000000119,992686.611,997036.421,1,40,,
trial,html.Screen,8_39_0,2023-11-20T17:50:21.376Z,,,,2,0.0097091270150747,-0.0417921315885292,,0.05,false,lh,5780.778999988106,response,-0.9196681231499724,0.7517583937441203,-1.0211627504917997,0.5884632570491719,0.634752863479119,-0.9711627504917997,low,high,,ISIC_3967213.JPG,,ISIC_0011209.JPG,33,25,false,0.15000000000000002,ll,keypress(f),0,true,1002817.5,1002817.1999999881,997019.798,997032.5999999642,997036.421,1002837.67,1,40,40,
sequence,flow.Sequence,8_39,2023-11-20T17:50:21.376Z,,,,,,,,,,,5780.778999988106,completion,,,,,,,low,high,,,,,,,false,,,,,true,1002817.8999999762,1002817.1999999881,997019.798,997032.5,997036.421,1002837.67,1,40,,
stair_loop,flow.Loop,8,2023-11-20T17:50:21.377Z,,,,,,,,,,,240564.4039999881,completion,,,,,,,,,,,,,,,false,,,,,true,1002818.0999999642,1002817.1999999881,762236.239,762248.5,762252.796,1002837.67,1,40,,
exp_instructions,html.Screen,9,2023-11-20T17:50:55.104Z,,,,,,,,,,,33707.13000001188,response,,,,,,,,,,,,,,,,,continue,keypress(Space),,,1036545.3999999762,1036544.8000000119,1002803.033,1002818.3000000119,1002837.67,1036569.858,,,,
trial,html.Screen,10_0_0,2023-11-20T17:51:00.205Z,,,,1,0.0188047466661863,-0.0288346930436979,,0.05,false,lh,5076.541999976151,response,-1.031415631053946,0.9058064078738013,-1.0063529790119856,0.6661096126601223,0.8566269413359396,-1.0143988301696647,low,high,,ISIC_0014157.JPG,9,ISIC_8976269.JPG,33,26,false,0.20000000000000007,hh,keypress(i),0,false,1041646.5,1041646.3999999762,1036535.107,1036545.8000000119,1036569.858,1041653.157,5,600,1,
break,html.Screen,10_0_1,2023-11-20T17:51:00.206Z,,,,,,,,,,,NaN,,,,,,,,low,high,,,,,,,false,,,,,false,1041647.3000000119,1041647.1999999881,,1041646.6999999881,,1041653.157,5,600,,
break_continue,html.Screen,10_0_2,2023-11-20T17:51:00.206Z,,,,,,,,,,,NaN,,,,,,,,low,high,,,,,,,false,,,,,false,1041647.8999999762,1041647.6999999881,,1041647.3999999762,,1041653.157,5,600,,
sequence,flow.Sequence,10_0,2023-11-20T17:51:00.206Z,,,,,,,,,,,5077.841999988072,completion,,,,,,,low,high,,,,,,,false,,,,,false,1041648,1041647.6999999881,1036535.107,1036545.5999999642,1036569.858,1041653.157,5,600,,
trial,html.Screen,10_1_0,2023-11-20T17:51:06.136Z,,,,1,-0.0456515796420274,0.0273567130070961,,0.05,true,lh,5924.242999976152,response,-1.0748728054622358,0.9058064078738013,-1.0063529790119856,0.6883893701485907,0.8566269413359396,-1.0143988301696647,low,high,,ISIC_0068610.JPG,9,ISIC_0059219.JPG,33,26,false,0.20000000000000007,lh,keypress(e),0,false,1047577.5999999642,1047577.3999999762,1041636.324,1041648.1999999881,1041653.157,1047586.541,5,600,2,
break,html.Screen,10_1_1,2023-11-20T17:51:06.137Z,,,,,,,,,,,NaN,,,,,,,,low,high,,,,,,,false,,,,,false,1047578.5999999642,1047578.3000000119,,1047577.8999999762,,1047586.541,5,600,,
break_continue,html.Screen,10_1_2,2023-11-20T17:51:06.137Z,,,,,,,,,,,NaN,,,,,,,,low,high,,,,,,,false,,,,,false,1047579.0999999642,1047578.8999999762,,1047578.6999999881,,1047586.541,5,600,,
sequence,flow.Sequence,10_1,2023-11-20T17:51:06.138Z,,,,,,,,,,,5925.742999976152,completion,,,,,,,low,high,,,,,,,false,,,,,false,1047579.3000000119,1047578.8999999762,1041636.324,1041648.1999999881,1041653.157,1047586.541,5,600,,
trial,html.Screen,10_2_0,2023-11-20T17:51:14.591Z,,,,1,0.0051189696037511,-0.0396625911332438,,0.05,false,hh,8445.959000000032,response,0.8626849314423831,0.9058064078738013,-1.0063529790119856,0.8919402924145458,0.8566269413359396,-1.0143988301696647,high,high,,ISIC_9742891.JPG,9,ISIC_0026371.JPG,33,41,false,0.1,lh,keypress(e),0,false,1056032.5999999642,1056032.5,1047569.758,1047579.5,1047586.541,1056036.513,5,600,3,
break,html.Screen,10_2_1,2023-11-20T17:51:14.591Z,,,,,,,,,,,NaN,,,,,,,,high,high,,,,,,,false,,,,,false,1056033,1056032.8999999762,,1056032.800000012,,1056036.513,5,600,,
break_continue,html.Screen,10_2_2,2023-11-20T17:51:14.591Z,,,,,,,,,,,NaN,,,,,,,,high,high,,,,,,,false,,,,,false,1056033.0999999642,1056033.0999999642,,1056033,,1056036.513,5,600,,
sequence,flow.Sequence,10_2,2023-11-20T17:51:14.591Z,,,,,,,,,,,8446.558999964269,completion,,,,,,,high,high,,,,,,,false,,,,,false,1056033.199999988,1056033.0999999642,1047569.758,1047579.5,1047586.541,1056036.513,5,600,,
trial,html.Screen,10_3_0,2023-11-20T17:51:21.495Z,,,,1,0.0245376145053177,-0.0436993426328401,,0.05,false,hl,6899.986999999965,response,0.9454713230140772,0.9058064078738013,-1.0063529790119856,-0.9245167441969216,0.8566269413359396,-1.0143988301696647,high,low,,ISIC_0056444.JPG,9,ISIC_9101055.JPG,33,25,false,0.19000000000000006,hh,keypress(i),0,false,1062936.699999988,1062936.5,1056019.821,1056033.300000012,1056036.513,1062953.209,5,600,4,
break,html.Screen,10_3_1,2023-11-20T17:51:21.495Z,,,,,,,,,,,NaN,,,,,,,,high,low,,,,,,,false,,,,,false,1062937,1062936.8999999762,,1062936.800000012,,1062953.209,5,600,,
break_continue,html.Screen,10_3_2,2023-11-20T17:51:21.495Z,,,,,,,,,,,NaN,,,,,,,,high,low,,,,,,,false,,,,,false,1062937.0999999642,1062937,,1062937,,1062953.209,5,600,,
sequence,flow.Sequence,10_3,2023-11-20T17:51:21.495Z,,,,,,,,,,,6900.486999999965,completion,,,,,,,high,low,,,,,,,false,,,,,false,1062937.199999988,1062937,1056019.821,1056033.199999988,1056036.513,1062953.209,5,600,,
trial,html.Screen,10_4_0,2023-11-20T17:51:28.711Z,,,,1,-0.0324770283903853,-0.0249968632204382,,0.05,false,hl,7199.290999999968,response,0.7836356408583546,0.9058064078738013,-1.0063529790119856,-1.1197925594706428,0.8566269413359396,-1.0143988301696647,high,low,,ISIC_7266462.JPG,9,ISIC_0024961.JPG,33,25,false,0.19000000000000006,ll,keypress(f),0,false,1070152.5999999642,1070152.5,1062936.422,1062937.199999988,1062953.209,1070170.03,5,600,5,
break,html.Screen,10_4_1,2023-11-20T17:51:28.711Z,,,,,,,,,,,NaN,,,,,,,,high,low,,,,,,,false,,,,,false,1070153,1070152.8999999762,,1070152.800000012,,1070170.03,5,600,,
break_continue,html.Screen,10_4_2,2023-11-20T17:51:28.712Z,,,,,,,,,,,NaN,,,,,,,,high,low,,,,,,,false,,,,,false,1070153.300000012,1070153.199999988,,1070153.199999988,,1070170.03,5,600,,
sequence,flow.Sequence,10_4,2023-11-20T17:51:28.712Z,,,,,,,,,,,7199.990999988047,completion,,,,,,,high,low,,,,,,,false,,,,,false,1070153.3999999762,1070153.199999988,1062936.422,1062937.199999988,1062953.209,1070170.03,5,600,,
trial,html.Screen,10_5_0,2023-11-20T17:51:37.232Z,,,,1,0.0097091270150747,-0.0417921315885292,,0.05,true,lh,8503.06999996421,response,-0.8087127179888679,0.9058064078738013,-1.0063529790119856,0.6577744279636221,0.8566269413359396,-1.0143988301696647,low,high,,ISIC_3967213.JPG,8,ISIC_3941147.JPG,33,26,false,0.20000000000000007,lh,keypress(e),0,false,1078673.199999988,1078673.0999999642,1070136.475,1070153.3999999762,1070170.03,1078686.528,5,600,6,
break,html.Screen,10_5_1,2023-11-20T17:51:37.232Z,,,,,,,,,,,NaN,,,,,,,,low,high,,,,,,,false,,,,,false,1078673.8999999762,1078673.800000012,,1078673.5,,1078686.528,5,600,,
break_continue,html.Screen,10_5_2,2023-11-20T17:51:37.233Z,,,,,,,,,,,NaN,,,,,,,,low,high,,,,,,,false,,,,,false,1078674.300000012,1078674.0999999642,,1078674,,1078686.528,5,600,,
sequence,flow.Sequence,10_5,2023-11-20T17:51:37.233Z,,,,,,,,,,,8504.06999996421,completion,,,,,,,low,high,,,,,,,false,,,,,false,1078674.5,1078674.0999999642,1070136.475,1070153.3999999762,1070170.03,1078686.528,5,600,,
trial,html.Screen,10_6_0,2023-11-20T17:51:47.359Z,,,,1,-0.0450282431170921,0,,0.05,false,hl,10113.972000000067,response,0.9433720631499012,0.9058064078738013,-1.0063529790119856,-1.0582071940347648,0.8566269413359396,-1.0143988301696647,high,low,,ISIC_1805163.JPG,9,ISIC_4890201.JPG,33,25,false,0.19000000000000006,hh,keypress(i),0,false,1088800.5,1088800.5,1078669.667,1078674.5,1078686.528,1088803.205,5,600,7,
break,html.Screen,10_6_1,2023-11-20T17:51:47.359Z,,,,,,,,,,,NaN,,,,,,,,high,low,,,,,,,false,,,,,false,1088801,1088800.800000012,,1088800.5999999642,,1088803.205,5,600,,
break_continue,html.Screen,10_6_2,2023-11-20T17:51:47.359Z,,,,,,,,,,,NaN,,,,,,,,high,low,,,,,,,false,,,,,false,1088801.0999999642,1088801.0999999642,,1088801.0999999642,,1088803.205,5,600,,
sequence,flow.Sequence,10_6,2023-11-20T17:51:47.360Z,,,,,,,,,,,10114.571999964304,completion,,,,,,,high,low,,,,,,,false,,,,,false,1088801.199999988,1088801.0999999642,1078669.667,1078674.5,1078686.528,1088803.205,5,600,,
trial,html.Screen,10_7_0,2023-11-20T17:51:56.200Z,,,,1,-0.0069555338059566,0.0310100918136373,,0.05,true,ll,8837.494999988005,response,-1.0491289899026992,0.9058064078738013,-1.0063529790119856,-1.058683139801412,0.8566269413359396,-1.0143988301696647,low,low,,ISIC_0011177.JPG,9,ISIC_0010866.JPG,33,40,false,0.1,ll,keypress(f),0,false,1097640.8999999762,1097640.699999988,1088786.572,1088801.300000012,1088803.205,1097653.248,5,600,8,
break,html.Screen,10_7_1,2023-11-20T17:51:56.201Z,,,,,,,,,,,NaN,,,,,,,,low,low,,,,,,,false,,,,,false,1097641.5999999642,1097641.3999999762,,1097641.0999999642,,1097653.248,5,600,,
break_continue,html.Screen,10_7_2,2023-11-20T17:51:56.201Z,,,,,,,,,,,NaN,,,,,,,,low,low,,,,,,,false,,,,,false,1097642,1097641.800000012,,1097641.699999988,,1097653.248,5,600,,
sequence,flow.Sequence,10_7,2023-11-20T17:51:56.201Z,,,,,,,,,,,8838.595000011846,completion,,,,,,,low,low,,,,,,,false,,,,,false,1097642.0999999642,1097641.800000012,1088786.572,1088801.300000012,1088803.205,1097653.248,5,600,,
trial,html.Screen,10_8_0,2023-11-20T17:52:01.976Z,,,,1,0.0188047466661863,-0.0288346930436979,,0.05,false,lh,5763.651999976253,response,-0.8816288864119318,0.9058064078738013,-1.0063529790119856,0.801867301188093,0.8566269413359396,-1.0143988301696647,low,high,,ISIC_0014157.JPG,10,ISIC_9196783.JPG,33,26,false,0.20000000000000007,ll,keypress(f),0,false,1103417.0999999642,1103416.8999999762,1097636.286,1097642.300000012,1097653.248,1103419.937,5,600,9,
break,html.Screen,10_8_1,2023-11-20T17:52:01.977Z,,,,,,,,,,,NaN,,,,,,,,low,high,,,,,,,false,,,,,false,1103417.5999999642,1103417.3999999762,,1103417.199999988,,1103419.937,5,600,,
break_continue,html.Screen,10_8_2,2023-11-20T17:52:01.977Z,,,,,,,,,,,NaN,,,,,,,,low,high,,,,,,,false,,,,,false,1103417.8999999762,1103417.8999999762,,1103417.699999988,,1103419.937,5,600,,
sequence,flow.Sequence,10_8,2023-11-20T17:52:01.977Z,,,,,,,,,,,5764.651999976253,completion,,,,,,,low,high,,,,,,,false,,,,,false,1103418.0999999642,1103417.8999999762,1097636.286,1097642.199999988,1097653.248,1103419.937,5,600,,
trial,html.Screen,10_9_0,2023-11-20T17:52:06.848Z,,,,1,-0.0085520978188085,0.0464691161264081,,0.05,true,ll,4868.46299997624,response,-1.0022982145596024,0.9058064078738013,-1.0063529790119856,-0.9703352077282876,0.8566269413359396,-1.0143988301696647,low,low,,ISIC_0758797.JPG,9,ISIC_0011930.JPG,33,40,false,0.1,ll,keypress(f),0,false,1108288.3999999762,1108288.3999999762,1103403.213,1103418.199999988,1103419.937,1108303.384,5,600,10,
break,html.Screen,10_9_1,2023-11-20T17:52:06.848Z,,,,,,,,,,,NaN,,,,,,,,low,low,,,,,,,false,,,,,false,1108288.8999999762,1108288.800000012,,1108288.5999999642,,1108303.384,5,600,,
break_continue,html.Screen,10_9_2,2023-11-20T17:52:06.849Z,,,,,,,,,,,NaN,,,,,,,,low,low,,,,,,,false,,,,,false,1108289.199999988,1108289.0999999642,,1108289,,1108303.384,5,600,,
sequence,flow.Sequence,10_9,2023-11-20T17:52:06.849Z,,,,,,,,,,,4869.162999964319,completion,,,,,,,low,low,,,,,,,false,,,,,false,1108289.300000012,1108289.0999999642,1103403.213,1103418.0999999642,1103419.937,1108303.384,5,600,,
trial,html.Screen,10_10_0,2023-11-20T17:52:09.785Z,,,,1,0.0159061451859594,0.0296598845560212,,0.05,true,hh,2922.01599997608,response,0.8329154010765664,0.9058064078738013,-1.0063529790119856,0.9000661178885296,0.8566269413359396,-1.0143988301696647,high,high,,ISIC_0072564.JPG,8,ISIC_7407847.JPG,33,41,false,0.1,hh,keypress(i),0,false,1111225.699999988,1111225.3999999762,1108286.674,1108289.300000012,1108303.384,1111236.59,5,600,11,
break,html.Screen,10_10_1,2023-11-20T17:52:09.786Z,,,,,,,,,,,NaN,,,,,,,,high,high,,,,,,,false,,,,,false,1111226.699999988,1111226.3999999762,,1111225.8999999762,,1111236.59,5,600,,
break_continue,html.Screen,10_10_2,2023-11-20T17:52:09.787Z,,,,,,,,,,,NaN,,,,,,,,high,high,,,,,,,false,,,,,false,1111227.300000012,1111227.199999988,,1111226.8999999762,,1111236.59,5,600,,
sequence,flow.Sequence,10_10,2023-11-20T17:52:09.787Z,,,,,,,,,,,2923.815999988001,completion,,,,,,,high,high,,,,,,,false,,,,,false,1111227.5999999642,1111227.199999988,1108286.674,1108289.300000012,1108303.384,1111236.59,5,600,,
trial,html.Screen,10_11_0,2023-11-20T17:52:18.129Z,,,,1,-0.0389988030702649,-0.0143212271490256,,0.05,false,hh,8332.809999976074,response,0.8814695482989191,0.9058064078738013,-1.0063529790119856,0.8440767077088777,0.8566269413359396,-1.0143988301696647,high,high,,ISIC_0064669.JPG,9,ISIC_6392461.JPG,33,41,false,0.1,lh,keypress(e),0,false,1119569.5999999642,1119569.3999999762,1111219.841,1111227.800000012,1111236.59,1119586.607,5,600,12,
break,html.Screen,10_11_1,2023-11-20T17:52:18.130Z,,,,,,,,,,,NaN,,,,,,,,high,high,,,,,,,false,,,,,false,1119570.3999999762,1119570.300000012,,1119569.8999999762,,1119586.607,5,600,,
break_continue,html.Screen,10_11_2,2023-11-20T17:52:18.130Z,,,,,,,,,,,NaN,,,,,,,,high,high,,,,,,,false,,,,,false,1119570.8999999762,1119570.699999988,,1119570.5,,1119586.607,5,600,,
sequence,flow.Sequence,10_11,2023-11-20T17:52:18.130Z,,,,,,,,,,,8334.109999987995,completion,,,,,,,high,high,,,,,,,false,,,,,false,1119571.0999999642,1119570.699999988,1111219.841,1111227.800000012,1111236.59,1119586.607,5,600,,
trial,html.Screen,10_12_0,2023-11-20T17:52:23.081Z,,,,1,-0.0450282431170921,0,,0.05,false,hl,4934.792999976082,response,0.8534691366511764,0.9058064078738013,-1.0063529790119856,-1.03975580494588,0.8566269413359396,-1.0143988301696647,high,low,,ISIC_1805163.JPG,9,ISIC_0056788.JPG,33,25,false,0.19000000000000006,ll,keypress(f),0,false,1124521.5999999642,1124521.3999999762,1119570.126,1119571.199999988,1119586.607,1124536.706,5,600,13,
break,html.Screen,10_12_1,2023-11-20T17:52:23.082Z,,,,,,,,,,,NaN,,,,,,,,high,low,,,,,,,false,,,,,false,1124522.3999999762,1124522.199999988,,1124521.8999999762,,1124536.706,5,600,,
break_continue,html.Screen,10_12_2,2023-11-20T17:52:23.082Z,,,,,,,,,,,NaN,,,,,,,,high,low,,,,,,,false,,,,,false,1124522.800000012,1124522.699999988,,1124522.5,,1124536.706,5,600,,
sequence,flow.Sequence,10_12,2023-11-20T17:52:23.082Z,,,,,,,,,,,4936.092999988003,completion,,,,,,,high,low,,,,,,,false,,,,,false,1124523,1124522.699999988,1119570.126,1119571.199999988,1119586.607,1124536.706,5,600,,
trial,html.Screen,10_13_0,2023-11-20T17:52:29.249Z,,,,1,-0.0324770283903853,-0.0249968632204382,,0.05,false,hh,6152.793999999994,response,0.8938250806816868,0.9058064078738013,-1.0063529790119856,0.8120302962631756,0.8566269413359396,-1.0143988301696647,high,high,,ISIC_7266462.JPG,9,ISIC_9268141.JPG,33,41,false,0.1,hl,keypress(j),0,false,1130689.800000012,1130689.5,1124519.875,1124523.199999988,1124536.706,1130703.295,5,600,14,
break,html.Screen,10_13_1,2023-11-20T17:52:29.250Z,,,,,,,,,,,NaN,,,,,,,,high,high,,,,,,,false,,,,,false,1130690.699999988,1130690.5,,1130690.0999999642,,1130703.295,5,600,,
break_continue,html.Screen,10_13_2,2023-11-20T17:52:29.251Z,,,,,,,,,,,NaN,,,,,,,,high,high,,,,,,,false,,,,,false,1130691.3999999762,1130691.199999988,,1130691,,1130703.295,5,600,,
sequence,flow.Sequence,10_13,2023-11-20T17:52:29.251Z,,,,,,,,,,,6154.4939999880735,completion,,,,,,,high,high,,,,,,,false,,,,,false,1130691.5999999642,1130691.199999988,1124519.875,1124523.0999999642,1124536.706,1130703.295,5,600,,
trial,html.Screen,10_14_0,2023-11-20T17:52:33.696Z,,,,1,-0.0456515796420274,0.0273567130070961,,0.05,false,hh,4433.104999976233,response,0.8938250806816868,0.9058064078738013,-1.0063529790119856,0.8120302962631756,0.8566269413359396,-1.0143988301696647,high,high,,ISIC_0068610.JPG,10,ISIC_9268141.JPG,33,41,false,0.1,hl,keypress(j),0,false,1135136.5,1135136.3999999762,1130686.579,1130691.8999999762,1130703.295,1135153.321,5,600,15,
break,html.Screen,10_14_1,2023-11-20T17:52:33.696Z,,,,,,,,,,,NaN,,,,,,,,high,high,,,,,,,false,,,,,false,1135136.8999999762,1135136.800000012,,1135136.699999988,,1135153.321,5,600,,
break_continue,html.Screen,10_14_2,2023-11-20T17:52:33.696Z,,,,,,,,,,,NaN,,,,,,,,high,high,,,,,,,false,,,,,false,1135137,1135137,,1135136.8999999762,,1135153.321,5,600,,
sequence,flow.Sequence,10_14,2023-11-20T17:52:33.696Z,,,,,,,,,,,4433.7050000000745,completion,,,,,,,high,high,,,,,,,false,,,,,false,1135137.0999999642,1135137,1130686.579,1130691.800000012,1130703.295,1135153.321,5,600,,
trial,html.Screen,10_15_0,2023-11-20T17:52:43.720Z,,,,1,-0.0085520978188085,0.0464691161264081,,0.05,false,hl,10007.078999976162,response,1.0751036484083878,0.9058064078738013,-1.0063529790119856,-1.143906455483852,0.8566269413359396,-1.0143988301696647,high,low,,ISIC_0758797.JPG,9,ISIC_0064406.JPG,33,25,false,0.19000000000000006,ll,keypress(f),0,false,1145160.5,1145160.3999999762,1135136.606,1135137.0999999642,1135153.321,1145170.042,5,600,16,
break,html.Screen,10_15_1,2023-11-20T17:52:43.720Z,,,,,,,,,,,NaN,,,,,,,,high,low,,,,,,,false,,,,,false,1145160.800000012,1145160.800000012,,1145160.5999999642,,1145170.042,5,600,,
break_continue,html.Screen,10_15_2,2023-11-20T17:52:43.720Z,,,,,,,,,,,NaN,,,,,,,,high,low,,,,,,,false,,,,,false,1145160.8999999762,1145160.8999999762,,1145160.800000012,,1145170.042,5,600,,
sequence,flow.Sequence,10_15,2023-11-20T17:52:43.720Z,,,,,,,,,,,10007.578999976162,completion,,,,,,,high,low,,,,,,,false,,,,,false,1145161,1145160.8999999762,1135136.606,1135137.0999999642,1135153.321,1145170.042,5,600,,
trial,html.Screen,10_16_0,2023-11-20T17:52:46.465Z,,,,1,-0.0107854985447517,-0.0478010417136109,,0.05,true,hh,2735.057999964338,response,0.9031332540970408,0.9058064078738013,-1.0063529790119856,0.853200189915778,0.8566269413359396,-1.0143988301696647,high,high,,ISIC_0010500.JPG,9,ISIC_4679971.JPG,33,41,false,0.1,hh,keypress(i),0,false,1147905.300000012,1147905.0999999642,1145153.331,1145161.0999999642,1145170.042,1147919.963,5,600,17,
break,html.Screen,10_16_1,2023-11-20T17:52:46.466Z,,,,,,,,,,,NaN,,,,,,,,high,high,,,,,,,false,,,,,false,1147906.199999988,1147906,,1147905.5999999642,,1147919.963,5,600,,
break_continue,html.Screen,10_16_2,2023-11-20T17:52:46.466Z,,,,,,,,,,,NaN,,,,,,,,high,high,,,,,,,false,,,,,false,1147906.800000012,1147906.5999999642,,1147906.5,,1147919.963,5,600,,
sequence,flow.Sequence,10_16,2023-11-20T17:52:46.466Z,,,,,,,,,,,2736.557999964338,completion,,,,,,,high,high,,,,,,,false,,,,,false,1147907,1147906.5999999642,1145153.331,1145161.0999999642,1145170.042,1147919.963,5,600,,
trial,html.Screen,10_17_0,2023-11-20T17:52:56.168Z,,,,1,-0.0070725527271049,-0.0049995141077508,,0.05,false,ll,9688.73699998809,response,-0.9185517403328254,0.9058064078738013,-1.0063529790119856,-0.9975299101285906,0.8566269413359396,-1.0143988301696647,low,low,,ISIC_6124481.JPG,9,ISIC_0011130.JPG,33,40,false,0.1,hh,keypress(i),0,false,1157608.8999999762,1157608.699999988,1147903.362,1147907.199999988,1147919.963,1157619.984,5,600,18,
break,html.Screen,10_17_1,2023-11-20T17:52:56.169Z,,,,,,,,,,,NaN,,,,,,,,low,low,,,,,,,false,,,,,false,1157609.0999999642,1157609.0999999642,,1157608.8999999762,,1157619.984,5,600,,
break_continue,html.Screen,10_17_2,2023-11-20T17:52:56.169Z,,,,,,,,,,,NaN,,,,,,,,low,low,,,,,,,false,,,,,false,1157609.300000012,1157609.300000012,,1157609.199999988,,1157619.984,5,600,,
sequence,flow.Sequence,10_17,2023-11-20T17:52:56.169Z,,,,,,,,,,,9689.337000011932,completion,,,,,,,low,low,,,,,,,false,,,,,false,1157609.3999999762,1157609.300000012,1147903.362,1147907.199999988,1147919.963,1157619.984,5,600,,
trial,html.Screen,10_18_0,2023-11-20T17:53:03.289Z,,,,1,0.0097091270150747,-0.0417921315885292,,0.05,false,lh,7109.115999964299,response,-0.8816288864119318,0.9058064078738013,-1.0063529790119856,0.801867301188093,0.8566269413359396,-1.0143988301696647,low,high,,ISIC_3967213.JPG,9,ISIC_9196783.JPG,33,26,false,0.20000000000000007,ll,keypress(f),0,false,1164729.3999999762,1164729.0999999642,1157603.235,1157609.5,1157619.984,1164736.667,5,600,19,
break,html.Screen,10_18_1,2023-11-20T17:53:03.290Z,,,,,,,,,,,NaN,,,,,,,,low,high,,,,,,,false,,,,,false,1164730.0999999642,1164729.8999999762,,1164729.5999999642,,1164736.667,5,600,,
break_continue,html.Screen,10_18_2,2023-11-20T17:53:03.290Z,,,,,,,,,,,NaN,,,,,,,,low,high,,,,,,,false,,,,,false,1164730.5,1164730.3999999762,,1164730.199999988,,1164736.667,5,600,,
sequence,flow.Sequence,10_18,2023-11-20T17:53:03.290Z,,,,,,,,,,,7110.41599997622,completion,,,,,,,low,high,,,,,,,false,,,,,false,1164730.699999988,1164730.3999999762,1157603.235,1157609.3999999762,1157619.984,1164736.667,5,600,,
trial,html.Screen,10_19_0,2023-11-20T17:53:06.265Z,,,,1,0.0051189696037511,-0.0396625911332438,,0.05,true,hh,2968.432999964338,response,0.8329154010765664,0.9058064078738013,-1.0063529790119856,0.9000661178885296,0.8566269413359396,-1.0143988301696647,high,high,,ISIC_9742891.JPG,9,ISIC_7407847.JPG,33,41,false,0.1,hh,keypress(i),0,false,1167705.3999999762,1167705.0999999642,1164719.943,1164730.800000012,1164736.667,1167720.013,5,600,20,
break,html.Screen,10_19_1,2023-11-20T17:53:06.266Z,,,,,,,,,,,NaN,,,,,,,,high,high,,,,,,,false,,,,,false,1167706.0999999642,1167706,,1167705.5999999642,,1167720.013,5,600,,
break_continue,html.Screen,10_19_2,2023-11-20T17:53:06.266Z,,,,,,,,,,,NaN,,,,,,,,high,high,,,,,,,false,,,,,false,1167706.5,1167706.3999999762,,1167706.199999988,,1167720.013,5,600,,
sequence,flow.Sequence,10_19,2023-11-20T17:53:06.266Z,,,,,,,,,,,2969.7329999762587,completion,,,,,,,high,high,,,,,,,false,,,,,false,1167706.699999988,1167706.3999999762,1164719.943,1164730.800000012,1164736.667,1167720.013,5,600,,
trial,html.Screen,10_20_0,2023-11-20T17:53:15.705Z,,,,1,0.0051189696037511,-0.0396625911332438,,0.05,false,lh,9424.986999999965,response,-0.8103021308201687,0.9058064078738013,-1.0063529790119856,0.7042733963657423,0.8566269413359396,-1.0143988301696647,low,high,,ISIC_9742891.JPG,9,ISIC_1496194.JPG,33,26,false,0.20000000000000007,hl,keypress(j),0,false,1177145.0999999642,1177145,1167703.457,1167706.800000012,1167720.013,1177153.373,5,600,21,
break,html.Screen,10_20_1,2023-11-20T17:53:15.705Z,,,,,,,,,,,NaN,,,,,,,,low,high,,,,,,,false,,,,,false,1177145.5999999642,1177145.5,,1177145.300000012,,1177153.373,5,600,,
break_continue,html.Screen,10_20_2,2023-11-20T17:53:15.706Z,,,,,,,,,,,NaN,,,,,,,,low,high,,,,,,,false,,,,,false,1177146,1177145.8999999762,,1177145.800000012,,1177153.373,5,600,,
sequence,flow.Sequence,10_20,2023-11-20T17:53:15.706Z,,,,,,,,,,,9425.886999976123,completion,,,,,,,low,high,,,,,,,false,,,,,false,1177146.199999988,1177145.8999999762,1167703.457,1167706.800000012,1167720.013,1177153.373,5,600,,
trial,html.Screen,10_21_0,2023-11-20T17:53:24.873Z,,,,1,-0.0329095507339554,0.0382899749693245,,0.05,true,lh,9159.427000012016,response,-0.8087127179888679,0.9058064078738013,-1.0063529790119856,0.6577744279636221,0.8566269413359396,-1.0143988301696647,low,high,,ISIC_8812781.JPG,9,ISIC_3941147.JPG,33,26,false,0.20000000000000007,lh,keypress(e),0,false,1186312.8999999762,1186312.800000012,1177136.832,1177146.3999999762,1177153.373,1186320.035,5,600,22,
break,html.Screen,10_21_1,2023-11-20T17:53:24.873Z,,,,,,,,,,,NaN,,,,,,,,low,high,,,,,,,false,,,,,false,1186313.3999999762,1186313.300000012,,1186313.0999999642,,1186320.035,5,600,,
break_continue,html.Screen,10_21_2,2023-11-20T17:53:24.873Z,,,,,,,,,,,NaN,,,,,,,,low,high,,,,,,,false,,,,,false,1186313.699999988,1186313.5999999642,,1186313.3999999762,,1186320.035,5,600,,
sequence,flow.Sequence,10_21,2023-11-20T17:53:24.873Z,,,,,,,,,,,9160.226999964332,completion,,,,,,,low,high,,,,,,,false,,,,,false,1186313.699999988,1186313.5999999642,1177136.832,1177146.300000012,1177153.373,1186320.035,5,600,,
trial,html.Screen,10_22_0,2023-11-20T17:53:29.953Z,,,,1,0.0134764727102299,0.0033499036460912,,0.05,true,lh,5073.364999976242,response,-0.8484262439038232,0.9058064078738013,-1.0063529790119856,0.6791355686919245,0.8566269413359396,-1.0143988301696647,low,high,,ISIC_0009998.JPG,9,ISIC_9436034.JPG,33,26,false,0.20000000000000007,lh,keypress(e),0,false,1191393.5999999642,1191393.3999999762,1186303.152,1186313.800000012,1186320.035,1191403.328,5,600,23,
break,html.Screen,10_22_1,2023-11-20T17:53:29.954Z,,,,,,,,,,,NaN,,,,,,,,low,high,,,,,,,false,,,,,false,1191394.5,1191394.300000012,,1191393.800000012,,1191403.328,5,600,,
break_continue,html.Screen,10_22_2,2023-11-20T17:53:29.955Z,,,,,,,,,,,NaN,,,,,,,,low,high,,,,,,,false,,,,,false,1191395,1191394.8999999762,,1191394.5999999642,,1191403.328,5,600,,
sequence,flow.Sequence,10_22,2023-11-20T17:53:29.955Z,,,,,,,,,,,5074.864999976242,completion,,,,,,,low,high,,,,,,,false,,,,,false,1191395.199999988,1191394.8999999762,1186303.152,1186313.800000012,1186320.035,1191403.328,5,600,,
trial,html.Screen,10_23_0,2023-11-20T17:53:37.856Z,,,,1,0,0.0264544974620926,,0.05,false,lh,7893.3719999881,response,-0.9388029871780448,0.9058064078738013,-1.0063529790119856,0.6990723246540984,0.8566269413359396,-1.0143988301696647,low,high,,ISIC_0056991.JPG,9,ISIC_0014190.JPG,33,26,false,0.20000000000000007,ll,keypress(f),0,false,1199296.800000012,1199296.699999988,1191386.673,1191395.3999999762,1191403.328,1199303.369,5,600,24,
break,html.Screen,10_23_1,2023-11-20T17:53:37.857Z,,,,,,,,,,,NaN,,,,,,,,low,high,,,,,,,false,,,,,false,1199297.3999999762,1199297.199999988,,1199297,,1199303.369,5,600,,
break_continue,html.Screen,10_23_2,2023-11-20T17:53:37.857Z,,,,,,,,,,,NaN,,,,,,,,low,high,,,,,,,false,,,,,false,1199297.699999988,1199297.5999999642,,1199297.3999999762,,1199303.369,5,600,,
sequence,flow.Sequence,10_23,2023-11-20T17:53:37.857Z,,,,,,,,,,,7894.271999964258,completion,,,,,,,low,high,,,,,,,false,,,,,false,1199297.699999988,1199297.5999999642,1191386.673,1191395.300000012,1191403.328,1199303.369,5,600,,
trial,html.Screen,10_24_0,2023-11-20T17:53:43.672Z,,,,1,0.0112310719058792,-0.0469047359904117,,0.05,false,hl,5808.830999988131,response,0.7836356408583546,0.9058064078738013,-1.0063529790119856,-1.1197925594706428,0.8566269413359396,-1.0143988301696647,high,low,,ISIC_0068184.JPG,10,ISIC_0024961.JPG,33,25,false,0.19000000000000006,ll,keypress(f),0,false,1205112.300000012,1205112.199999988,1199286.705,1199297.800000012,1199303.369,1205120.016,5,600,25,
break,html.Screen,10_24_1,2023-11-20T17:53:43.672Z,,,,,,,,,,,NaN,,,,,,,,high,low,,,,,,,false,,,,,false,1205112.699999988,1205112.5,,1205112.3999999762,,1205120.016,5,600,,
break_continue,html.Screen,10_24_2,2023-11-20T17:53:43.672Z,,,,,,,,,,,NaN,,,,,,,,high,low,,,,,,,false,,,,,false,1205112.800000012,1205112.800000012,,1205112.699999988,,1205120.016,5,600,,
sequence,flow.Sequence,10_24,2023-11-20T17:53:43.673Z,,,,,,,,,,,5809.431000011973,completion,,,,,,,high,low,,,,,,,false,,,,,false,1205113,1205112.800000012,1199286.705,1199297.800000012,1199303.369,1205120.016,5,600,,
trial,html.Screen,10_25_0,2023-11-20T17:53:47.625Z,,,,1,0.0159061451859594,0.0296598845560212,,0.05,true,hh,3945.0839999641757,response,0.8859748279606405,0.9058064078738013,-1.0063529790119856,0.8351560316519383,0.8566269413359396,-1.0143988301696647,high,high,,ISIC_0072564.JPG,9,ISIC_5795486.JPG,33,41,false,0.1,hh,keypress(i),0,false,1209065.3999999762,1209065.0999999642,1205103.481,1205113,1205120.016,1209070.031,5,600,26,
break,html.Screen,10_25_1,2023-11-20T17:53:47.626Z,,,,,,,,,,,NaN,,,,,,,,high,high,,,,,,,false,,,,,false,1209066.0999999642,1209065.8999999762,,1209065.5,,1209070.031,5,600,,
break_continue,html.Screen,10_25_2,2023-11-20T17:53:47.626Z,,,,,,,,,,,NaN,,,,,,,,high,high,,,,,,,false,,,,,false,1209066.5,1209066.3999999762,,1209066.199999988,,1209070.031,5,600,,
sequence,flow.Sequence,10_25,2023-11-20T17:53:47.626Z,,,,,,,,,,,3946.3839999760967,completion,,,,,,,high,high,,,,,,,false,,,,,false,1209066.800000012,1209066.3999999762,1205103.481,1205113,1205120.016,1209070.031,5,600,,
trial,html.Screen,10_26_0,2023-11-20T17:53:53.536Z,,,,1,-0.0329095507339554,0.0382899749693245,,0.05,false,hl,5906.16899998812,response,1.020990671779317,0.9058064078738013,-1.0063529790119856,-1.0116513850520903,0.8566269413359396,-1.0143988301696647,high,low,,ISIC_8812781.JPG,9,ISIC_0011995.JPG,33,25,false,0.19000000000000006,ll,keypress(f),0,false,1214976.300000012,1214976.199999988,1209053.272,1209066.8999999762,1209070.031,1215003.571,5,600,27,
break,html.Screen,10_26_1,2023-11-20T17:53:53.536Z,,,,,,,,,,,NaN,,,,,,,,high,low,,,,,,,false,,,,,false,1214976.5999999642,1214976.5,,1214976.3999999762,,1215003.571,5,600,,
break_continue,html.Screen,10_26_2,2023-11-20T17:53:53.536Z,,,,,,,,,,,NaN,,,,,,,,high,low,,,,,,,false,,,,,false,1214976.699999988,1214976.699999988,,1214976.5999999642,,1215003.571,5,600,,
sequence,flow.Sequence,10_26,2023-11-20T17:53:53.536Z,,,,,,,,,,,5906.66899998812,completion,,,,,,,high,low,,,,,,,false,,,,,false,1214976.800000012,1214976.699999988,1209053.272,1209066.800000012,1209070.031,1215003.571,5,600,,
trial,html.Screen,10_27_0,2023-11-20T17:53:56.552Z,,,,1,-0.0363437082783146,-0.0333332186217051,,0.05,true,hh,2988.7290000119247,response,0.8318514901182542,0.9058064078738013,-1.0063529790119856,0.9538458994523976,0.8566269413359396,-1.0143988301696647,high,high,,ISIC_3314555.JPG,10,ISIC_3161477.JPG,33,41,false,0.1,hh,keypress(i),0,false,1217992.3999999762,1217992.300000012,1214986.717,1214976.8999999762,1215003.571,1218003.604,5,600,28,
break,html.Screen,10_27_1,2023-11-20T17:53:56.553Z,,,,,,,,,,,NaN,,,,,,,,high,high,,,,,,,false,,,,,false,1217992.800000012,1217992.699999988,,1217992.5,,1218003.604,5,600,,
break_continue,html.Screen,10_27_2,2023-11-20T17:53:56.553Z,,,,,,,,,,,NaN,,,,,,,,high,high,,,,,,,false,,,,,false,1217993,1217992.8999999762,,1217992.8999999762,,1218003.604,5,600,,
sequence,flow.Sequence,10_27,2023-11-20T17:53:56.553Z,,,,,,,,,,,2989.328999976162,completion,,,,,,,high,high,,,,,,,false,,,,,false,1217993.0999999642,1217992.8999999762,1214986.717,1214976.8999999762,1215003.571,1218003.604,5,600,,
trial,html.Screen,10_28_0,2023-11-20T17:54:03.137Z,,,,1,-0.0050679133050021,0.0009714874637896,,0.05,true,ll,6573.595999988029,response,-0.9262674596267249,0.9058064078738013,-1.0063529790119856,-1.0275767908572495,0.8566269413359396,-1.0143988301696647,low,low,,ISIC_9848743.JPG,9,ISIC_5415749.JPG,33,40,false,0.1,ll,keypress(f),0,false,1224577.5,1224577.199999988,1217986.66,1217993.0999999642,1218003.604,1224586.765,5,600,29,
break,html.Screen,10_28_1,2023-11-20T17:54:03.138Z,,,,,,,,,,,NaN,,,,,,,,low,low,,,,,,,false,,,,,false,1224578.300000012,1224578.0999999642,,1224577.699999988,,1224586.765,5,600,,
break_continue,html.Screen,10_28_2,2023-11-20T17:54:03.139Z,,,,,,,,,,,NaN,,,,,,,,low,low,,,,,,,false,,,,,false,1224578.8999999762,1224578.699999988,,1224578.5,,1224586.765,5,600,,
sequence,flow.Sequence,10_28,2023-11-20T17:54:03.139Z,,,,,,,,,,,6575.095999988029,completion,,,,,,,low,low,,,,,,,false,,,,,false,1224579.0999999642,1224578.699999988,1217986.66,1217993.0999999642,1218003.604,1224586.765,5,600,,
trial,html.Screen,10_29_0,2023-11-20T17:54:13.264Z,,,,1,-0.0329095507339554,0.0382899749693245,,0.05,false,hl,10117.63499997626,response,0.9696118525781644,0.9058064078738013,-1.0063529790119856,-0.9244148283103414,0.8566269413359396,-1.0143988301696647,high,low,,ISIC_8812781.JPG,9,ISIC_7927525.JPG,33,25,false,0.19000000000000006,hh,keypress(i),0,false,1234704.5,1234704.3999999762,1224569.948,1224579.199999988,1224586.765,1234720.154,5,600,30,
break,html.Screen,10_29_1,2023-11-20T17:54:13.265Z,,,,,,,,,,,NaN,,,,,,,,high,low,,,,,,,false,,,,,false,1234704.800000012,1234704.699999988,,1234704.5999999642,,1234720.154,5,600,,
break_continue,html.Screen,10_29_2,2023-11-20T17:54:13.265Z,,,,,,,,,,,NaN,,,,,,,,high,low,,,,,,,false,,,,,false,1234705,1234705,,1234704.8999999762,,1234720.154,5,600,,
sequence,flow.Sequence,10_29,2023-11-20T17:54:13.265Z,,,,,,,,,,,10118.235000000102,completion,,,,,,,high,low,,,,,,,false,,,,,false,1234705.0999999642,1234705,1224569.948,1224579.199999988,1224586.765,1234720.154,5,600,,
trial,html.Screen,10_30_0,2023-11-20T17:54:17.993Z,,,,1,-0.0329095507339554,0.0382899749693245,,0.05,false,hl,4713.045999987982,response,0.7877939497981142,0.9058064078738013,-1.0063529790119856,-0.8415032780288271,0.8566269413359396,-1.0143988301696647,high,low,,ISIC_8812781.JPG,9,ISIC_0067308.JPG,33,25,false,0.19000000000000006,hh,keypress(i),0,false,1239433.5999999642,1239433.199999988,1234703.5,1234705.0999999642,1234720.154,1239436.776,5,600,31,
break,html.Screen,10_30_1,2023-11-20T17:54:17.994Z,,,,,,,,,,,NaN,,,,,,,,high,low,,,,,,,false,,,,,false,1239434.3999999762,1239434.199999988,,1239433.800000012,,1239436.776,5,600,,
break_continue,html.Screen,10_30_2,2023-11-20T17:54:17.995Z,,,,,,,,,,,NaN,,,,,,,,high,low,,,,,,,false,,,,,false,1239434.8999999762,1239434.699999988,,1239434.5999999642,,1239436.776,5,600,,
sequence,flow.Sequence,10_30,2023-11-20T17:54:17.995Z,,,,,,,,,,,4714.545999987982,completion,,,,,,,high,low,,,,,,,false,,,,,false,1239435.0999999642,1239434.699999988,1234703.5,1234705.0999999642,1234720.154,1239436.776,5,600,,
trial,html.Screen,10_31_0,2023-11-20T17:54:23.009Z,,,,1,0.0113873532168551,0.0054999201556291,,0.05,true,ll,5012.02400001185,response,-0.9090432487160188,0.9058064078738013,-1.0063529790119856,-1.033319341099857,0.8566269413359396,-1.0143988301696647,low,low,,ISIC_8812621.JPG,9,ISIC_4119029.JPG,33,40,false,0.1,ll,keypress(f),0,false,1244448.8999999762,1244448.800000012,1239419.97,1239435.199999988,1239436.776,1244470.117,5,600,32,
break,html.Screen,10_31_1,2023-11-20T17:54:23.009Z,,,,,,,,,,,NaN,,,,,,,,low,low,,,,,,,false,,,,,false,1244449.3999999762,1244449.199999988,,1244449,,1244470.117,5,600,,
break_continue,html.Screen,10_31_2,2023-11-20T17:54:23.010Z,,,,,,,,,,,NaN,,,,,,,,low,low,,,,,,,false,,,,,false,1244449.699999988,1244449.5,,1244449.3999999762,,1244470.117,5,600,,
sequence,flow.Sequence,10_31,2023-11-20T17:54:23.010Z,,,,,,,,,,,5012.723999999929,completion,,,,,,,low,low,,,,,,,false,,,,,false,1244449.800000012,1244449.5,1239419.97,1239435.199999988,1239436.776,1244470.117,5,600,,
trial,html.Screen,10_32_0,2023-11-20T17:54:29.818Z,,,,1,0.0051189696037511,-0.0396625911332438,,0.05,true,lh,6787.382999999914,response,-0.8947611078712571,0.9058064078738013,-1.0063529790119856,0.8960964505004638,0.8566269413359396,-1.0143988301696647,low,high,,ISIC_9742891.JPG,9,ISIC_6441128.JPG,33,26,false,0.20000000000000007,lh,keypress(e),0,false,1251257.699999988,1251257.5,1244436.753,1244449.8999999762,1244470.117,1251270.117,5,600,33,
break,html.Screen,10_32_1,2023-11-20T17:54:29.818Z,,,,,,,,,,,NaN,,,,,,,,low,high,,,,,,,false,,,,,false,1251258.5999999642,1251258.3999999762,,1251258.0999999642,,1251270.117,5,600,,
break_continue,html.Screen,10_32_2,2023-11-20T17:54:29.819Z,,,,,,,,,,,NaN,,,,,,,,low,high,,,,,,,false,,,,,false,1251259.199999988,1251259.0999999642,,1251258.800000012,,1251270.117,5,600,,
sequence,flow.Sequence,10_32,2023-11-20T17:54:29.819Z,,,,,,,,,,,6788.9829999641515,completion,,,,,,,low,high,,,,,,,false,,,,,false,1251259.3999999762,1251259.0999999642,1244436.753,1244449.8999999762,1244470.117,1251270.117,5,600,,
trial,html.Screen,10_33_0,2023-11-20T17:54:33.977Z,,,,1,-0.0324770283903853,-0.0249968632204382,,0.05,true,hh,4146.7829999760725,response,0.953802353776362,0.9058064078738013,-1.0063529790119856,0.927101493584587,0.8566269413359396,-1.0143988301696647,high,high,,ISIC_7266462.JPG,8,ISIC_9751601.JPG,33,41,false,0.1,hh,keypress(i),0,false,1255417.199999988,1255416.8999999762,1251253.39,1251259.5999999642,1251270.117,1255420.141,5,600,34,
break,html.Screen,10_33_1,2023-11-20T17:54:33.978Z,,,,,,,,,,,NaN,,,,,,,,high,high,,,,,,,false,,,,,false,1255417.699999988,1255417.5999999642,,1255417.300000012,,1255420.141,5,600,,
break_continue,html.Screen,10_33_2,2023-11-20T17:54:33.978Z,,,,,,,,,,,NaN,,,,,,,,high,high,,,,,,,false,,,,,false,1255418,1255417.8999999762,,1255417.800000012,,1255420.141,5,600,,
sequence,flow.Sequence,10_33,2023-11-20T17:54:33.978Z,,,,,,,,,,,4147.7829999760725,completion,,,,,,,high,high,,,,,,,false,,,,,false,1255418.199999988,1255417.8999999762,1251253.39,1251259.5,1251270.117,1255420.141,5,600,,
trial,html.Screen,10_34_0,2023-11-20T17:54:43.513Z,,,,1,-0.0070725527271049,-0.0049995141077508,,0.05,true,ll,9533.058999988018,response,-1.007567553886196,0.9058064078738013,-1.0063529790119856,-0.9379731610733476,0.8566269413359396,-1.0143988301696647,low,low,,ISIC_6124481.JPG,9,ISIC_0030824.JPG,33,40,false,0.1,ll,keypress(f),0,false,1264953.3999999762,1264953.199999988,1255403.565,1255418.300000012,1255420.141,1264970.11,5,600,35,
break,html.Screen,10_34_1,2023-11-20T17:54:43.514Z,,,,,,,,,,,NaN,,,,,,,,low,low,,,,,,,false,,,,,false,1264954,1264953.8999999762,,1264953.699999988,,1264970.11,5,600,,
break_continue,html.Screen,10_34_2,2023-11-20T17:54:43.514Z,,,,,,,,,,,NaN,,,,,,,,low,low,,,,,,,false,,,,,false,1264954.5,1264954.300000012,,1264954.199999988,,1264970.11,5,600,,
sequence,flow.Sequence,10_34,2023-11-20T17:54:43.514Z,,,,,,,,,,,9534.15900001186,completion,,,,,,,low,low,,,,,,,false,,,,,false,1264954.5999999642,1264954.300000012,1255403.565,1255418.300000012,1255420.141,1264970.11,5,600,,
trial,html.Screen,10_35_0,2023-11-20T17:54:47.568Z,,,,1,0.0097091270150747,-0.0417921315885292,,0.05,true,ll,4038.1900000118185,response,-0.9263931440503964,0.9058064078738013,-1.0063529790119856,-0.9159664042920548,0.8566269413359396,-1.0143988301696647,low,low,,ISIC_3967213.JPG,9,ISIC_0053617.JPG,33,40,false,0.1,ll,keypress(f),0,false,1269008.300000012,1269008.300000012,1264953.308,1264954.800000012,1264970.11,1269020.094,5,600,36,
break,html.Screen,10_35_1,2023-11-20T17:54:47.569Z,,,,,,,,,,,NaN,,,,,,,,low,low,,,,,,,false,,,,,false,1269008.699999988,1269008.5999999642,,1269008.5,,1269020.094,5,600,,
break_continue,html.Screen,10_35_2,2023-11-20T17:54:47.569Z,,,,,,,,,,,NaN,,,,,,,,low,low,,,,,,,false,,,,,false,1269008.8999999762,1269008.800000012,,1269008.800000012,,1269020.094,5,600,,
sequence,flow.Sequence,10_35,2023-11-20T17:54:47.569Z,,,,,,,,,,,4038.6900000118185,completion,,,,,,,low,low,,,,,,,false,,,,,false,1269009,1269008.800000012,1264953.308,1264954.800000012,1264970.11,1269020.094,5,600,,
trial,html.Screen,10_36_0,2023-11-20T17:54:55.073Z,,,,1,0.0051189696037511,-0.0396625911332438,,0.05,false,hh,7492.70600001188,response,0.8667552171342019,0.9058064078738013,-1.0063529790119856,0.8212818427650904,0.8566269413359396,-1.0143988301696647,high,high,,ISIC_9742891.JPG,9,ISIC_5219334.JPG,33,41,false,0.1,hl,keypress(j),0,false,1276512.8999999762,1276512.800000012,1269003.408,1269009,1269020.094,1276520.124,5,600,37,
break,html.Screen,10_36_1,2023-11-20T17:54:55.073Z,,,,,,,,,,,NaN,,,,,,,,high,high,,,,,,,false,,,,,false,1276513.300000012,1276513.199999988,,1276513,,1276520.124,5,600,,
break_continue,html.Screen,10_36_2,2023-11-20T17:54:55.073Z,,,,,,,,,,,NaN,,,,,,,,high,high,,,,,,,false,,,,,false,1276513.5,1276513.5,,1276513.3999999762,,1276520.124,5,600,,
sequence,flow.Sequence,10_36,2023-11-20T17:54:55.073Z,,,,,,,,,,,7493.405999999959,completion,,,,,,,high,high,,,,,,,false,,,,,false,1276513.699999988,1276513.5,1269003.408,1269009,1269020.094,1276520.124,5,600,,
