sender,sender_type,sender_id,timestamp,meta,,age,blockNo,c1,c2,condition,control_tolerance,correct,correctResponse,duration,ended_on,f1,f1_high,f1_low,f2,f2_high,f2_low,feature_level1,feature_level2,gender,img_left,img_reveal,img_right,n_control_images,n_target_images,practice,range_tolerance,response,response_action,selection_duration,staircase,time_commit,time_end,time_render,time_run,time_show,time_switch,total_blocks,total_trials,trialNo,url
informed_consent,html.Screen,0,2023-11-20T20:22:58.719Z,"{""labjs_version"":""20.2.4"",""labjs_build"":{""flavor"":""development"",""commit"":""f5b4a49f956347addd546a832a3327688c2c0fef""},""location"":""https://labjs.felixhenninger.com/api/labjs_preview/index.html"",""userAgent"":""Mozilla/5.0 (Windows NT 10.0; Win64; x64) AppleWebKit/537.36 (KHTML, like Gecko) Chrome/119.0.0.0 Safari/537.36"",""platform"":""Win32"",""language"":""en-US"",""locale"":""en-US"",""timeZone"":""America/Chicago"",""timezoneOffset"":360,""screen_width"":1680,""screen_height"":1050,""scroll_width"":825,""scroll_height"":888,""window_innerWidth"":825,""window_innerHeight"":936,""devicePixelRatio"":1}",,,,,,,,,,25136.783999904634,response,,,,,,,,,,,,,,,,,consent,click button,,,25852,25843.099999904633,689.603,692.1999999284744,706.316,25855.233,,,,{}
Demography form,html.Form,1,2023-11-20T20:23:04.391Z,,,19,,,,,,,,5668.767,form submission,,,,,,,,,male,,,,,,,,,,,,31524,31524,25838.581,25852.399999976158,25855.233,31516.257,,,,
Welcome,html.Screen,2,2023-11-20T20:23:40.127Z,,,,,,,"[""bor"",""col""]",,,,35742.54299995232,response,,,,,,,,,,,,,,,,,continue,click button,,,67259.29999995232,67258.79999995232,31499.748,31524.199999928474,31516.257,67269.109,,,,
demo_instructions,html.Screen,3,2023-11-20T20:24:12.919Z,,,,,,,,,,,32781.891,response,,,,,,,,,,,,,,,,,continue,click button,,,100051.59999990463,100051,67252.413,67259.39999997616,67269.109,100083.108,,,,
trial,html.Screen,4_0_0,2023-11-20T20:24:21.372Z,,,,0,-1.2194553326562725,-1.2381726989215684,,,true,hh,8421.091999928482,response,1.2219550761700546,1.2,-1.2,1.2809901875733454,1.2,-1.2,high,high,,ISIC_0068975.JPG,,ISIC_6463417.JPG,,25,true,0.14,hh,keypress(i),100,false,108504.5,108504.19999992847,100066.266,100051.69999992847,100083.108,108532.783,1,16,1,
sequence,flow.Sequence,4_0,2023-11-20T20:24:21.387Z,,,,,,,,,,,8421.091999928482,completion,,,,,,,high,high,,,,,,,true,,,,,false,108520.19999992847,108504.19999992847,100066.266,100051.69999992847,100083.108,108532.783,1,16,,
trial,html.Screen,4_1_0,2023-11-20T20:24:28.293Z,,,,0,-1.1392972253022884,-1.208510423375335,,,true,hh,6892.5169999523205,response,1.1989130276493527,1.2,-1.2,1.2666195460149832,1.2,-1.2,high,high,,ISIC_0046526.JPG,,ISIC_0031705.JPG,,25,true,0.14,hh,keypress(i),100,false,115425.5,115425.29999995232,108516.066,108520.39999997616,108532.783,115446.147,1,16,2,
sequence,flow.Sequence,4_1,2023-11-20T20:24:28.293Z,,,,,,,,,,,6892.5169999523205,completion,,,,,,,high,high,,,,,,,true,,,,,false,115425.69999992847,115425.29999995232,108516.066,108520.39999997616,108532.783,115446.147,1,16,,
trial,html.Screen,4_2_0,2023-11-20T20:24:35.021Z,,,,0,-1.2118207001489876,-1.3164676315545727,,,true,hh,6706.353000000003,response,1.3379750533585932,1.2,-1.2,1.1671342614509763,1.2,-1.2,high,high,,ISIC_0066476.JPG,,ISIC_0063556.JPG,,25,true,0.14,hh,keypress(i),100,false,122152.79999995232,122152.5,115429.465,115425.79999995232,115446.147,122176.107,1,16,3,
sequence,flow.Sequence,4_2,2023-11-20T20:24:35.021Z,,,,,,,,,,,6706.353000000003,completion,,,,,,,high,high,,,,,,,true,,,,,false,122153.19999992847,122152.5,115429.465,115425.69999992847,115446.147,122176.107,1,16,,
trial,html.Screen,4_3_0,2023-11-20T20:24:42.438Z,,,,0,-1.2118207001489876,-1.3164676315545727,,,true,hh,7393.392999999996,response,1.2600330864275875,1.2,-1.2,1.0958628838888655,1.2,-1.2,high,high,,ISIC_0066476.JPG,,ISIC_0026996.JPG,,25,true,0.14,hh,keypress(i),100,false,129569.69999992847,129569.5,122159.215,122153.39999997616,122176.107,129590.6,1,16,4,
sequence,flow.Sequence,4_3,2023-11-20T20:24:42.438Z,,,,,,,,,,,7393.392999999996,completion,,,,,,,high,high,,,,,,,true,,,,,false,129570,129569.5,122159.215,122153.29999995232,122176.107,129590.6,1,16,,
trial,html.Screen,4_4_0,2023-11-20T20:24:48.044Z,,,,0,1.2724293858920366,1.149360738769835,,,true,ll,5585.599999928469,response,-1.0769708994456726,1.2,-1.2,-1.2196503533725178,1.2,-1.2,low,low,,ISIC_1264725.JPG,,ISIC_0063824.JPG,,30,true,0.13,ll,keypress(f),100,false,135176.39999997616,135176.19999992847,129573.657,129570.09999990463,129590.6,135201.397,1,16,5,
sequence,flow.Sequence,4_4,2023-11-20T20:24:48.045Z,,,,,,,,,,,5585.599999928469,completion,,,,,,,low,low,,,,,,,true,,,,,false,135176.59999990463,135176.19999992847,129573.657,129570.09999990463,129590.6,135201.397,1,16,,
trial,html.Screen,4_5_0,2023-11-20T20:24:53.363Z,,,,0,1.1989130276493527,1.2666195460149832,,,true,ll,5293.002999976161,response,-1.266079261381142,1.2,-1.2,-1.312161506160336,1.2,-1.2,low,low,,ISIC_0031705.JPG,,ISIC_0065449.JPG,,40,true,0.14,ll,keypress(f),100,false,140494.5,140494.39999997616,135184.681,135176.69999992847,135201.397,140511.855,1,16,6,
sequence,flow.Sequence,4_5,2023-11-20T20:24:53.363Z,,,,,,,,,,,5293.002999976161,completion,,,,,,,low,low,,,,,,,true,,,,,false,140494.79999995232,140494.39999997616,135184.681,135176.69999992847,135201.397,140511.855,1,16,,
trial,html.Screen,4_6_0,2023-11-20T20:24:59.321Z,,,,0,1.2253191093367526,1.241905252673026,,,true,ll,5941.344999928464,response,-1.2033647433750492,1.2,-1.2,-1.0718012192341555,1.2,-1.2,low,low,,ISIC_1195689.JPG,,ISIC_0061606.JPG,,40,true,0.14,ll,keypress(f),100,false,146453.39999997616,146453.19999992847,140494.9,140494.79999995232,140511.855,146473.305,1,16,7,
sequence,flow.Sequence,4_6,2023-11-20T20:24:59.322Z,,,,,,,,,,,5941.344999928464,completion,,,,,,,low,low,,,,,,,true,,,,,false,146453.79999995232,146453.19999992847,140494.9,140494.79999995232,140511.855,146473.305,1,16,,
trial,html.Screen,4_7_0,2023-11-20T20:25:02.933Z,,,,0,1.2100527057059796,1.2159112471537263,,,true,ll,3591.2949999046396,response,-1.1302628852630028,1.2,-1.2,-1.288906469447243,1.2,-1.2,low,low,,ISIC_0008055.JPG,,ISIC_0071050.JPG,,40,true,0.14,ll,keypress(f),100,false,150064.79999995232,150064.59999990463,146456.488,146454,146473.305,150097.004,1,16,8,
sequence,flow.Sequence,4_7,2023-11-20T20:25:02.933Z,,,,,,,,,,,3591.2949999046396,completion,,,,,,,low,low,,,,,,,true,,,,,false,150065,150064.59999990463,146456.488,146453.89999997616,146473.305,150097.004,1,16,,
trial,html.Screen,4_8_0,2023-11-20T20:25:16.050Z,,,,0,1.2362557973341337,-1.2548266183352603,,,true,lh,13084.496000000014,response,-0.8307508446051526,1.2,-1.2,1.1707575338936729,1.2,-1.2,low,high,,ISIC_0033886.JPG,,ISIC_0028606.JPG,,27,true,0.40000000000000024,lh,keypress(e),100,false,163181.89999997616,163181.5,150080.213,150065.09999990463,150097.004,163205.713,1,16,9,
sequence,flow.Sequence,4_8,2023-11-20T20:25:16.050Z,,,,,,,,,,,13084.496000000014,completion,,,,,,,low,high,,,,,,,true,,,,,false,163182.19999992847,163181.5,150080.213,150065.09999990463,150097.004,163205.713,1,16,,
trial,html.Screen,4_9_0,2023-11-20T20:25:24.595Z,,,,0,1.0369885917487718,-0.8486937878412699,,,true,lh,8521.086999952327,response,-1.0116417541846066,1.2,-1.2,1.033442916947398,1.2,-1.2,low,high,,ISIC_6917681.JPG,,ISIC_0031389.JPG,,40,true,0.4500000000000003,lh,keypress(e),100,false,171726.89999997616,171726.79999995232,163189.053,163182.39999997616,163205.713,171755.904,1,16,10,
sequence,flow.Sequence,4_9,2023-11-20T20:25:24.595Z,,,,,,,,,,,8521.086999952327,completion,,,,,,,low,high,,,,,,,true,,,,,false,171727.09999990463,171726.79999995232,163189.053,163182.39999997616,163205.713,171755.904,1,16,,
trial,html.Screen,4_10_0,2023-11-20T20:25:30.182Z,,,,0,0.9653573371180936,-0.854766800381037,,,true,lh,5557.895999952307,response,-0.7856143618373893,1.2,-1.2,1.0273608829432213,1.2,-1.2,low,high,,ISIC_9640145.JPG,,ISIC_9303849.JPG,,40,true,0.4500000000000003,lh,keypress(e),100,false,177314,177313.79999995232,171738.964,171727.09999990463,171755.904,177333.154,1,16,11,
sequence,flow.Sequence,4_10,2023-11-20T20:25:30.182Z,,,,,,,,,,,5557.895999952307,completion,,,,,,,low,high,,,,,,,true,,,,,false,177314.09999990463,177313.79999995232,171738.964,171727.09999990463,171755.904,177333.154,1,16,,
trial,html.Screen,4_11_0,2023-11-20T20:25:39.125Z,,,,0,0.8034318937720549,-1.0024917298189338,,,true,lh,8923.745999976149,response,-0.9138670886161264,1.2,-1.2,0.8414121478342018,1.2,-1.2,low,high,,ISIC_0032766.JPG,,ISIC_6709052.JPG,,40,true,0.4500000000000003,lh,keypress(e),100,false,186257.09999990463,186256.89999997616,177316.45,177314.19999992847,177333.154,186283.935,1,16,12,
sequence,flow.Sequence,4_11,2023-11-20T20:25:39.125Z,,,,,,,,,,,8923.745999976149,completion,,,,,,,low,high,,,,,,,true,,,,,false,186257.39999997616,186256.89999997616,177316.45,177314.19999992847,177333.154,186283.935,1,16,,
trial,html.Screen,4_12_0,2023-11-20T20:25:44.209Z,,,,0,-0.8047295996345292,1.551750455622795,,,true,hl,5057.065000000002,response,1.0369885917487718,1.2,-1.2,-0.8486937878412699,1.2,-1.2,high,low,,ISIC_7717907.JPG,,ISIC_6917681.JPG,,26,true,0.4500000000000003,hl,keypress(j),100,false,191341.09999990463,191341,186267.274,186257.59999990463,186283.935,191360.47,1,16,13,
sequence,flow.Sequence,4_12,2023-11-20T20:25:44.209Z,,,,,,,,,,,5057.065000000002,completion,,,,,,,high,low,,,,,,,true,,,,,false,191341.5,191341,186267.274,186257.5,186283.935,191360.47,1,16,,
trial,html.Screen,4_13_0,2023-11-20T20:25:48.630Z,,,,0,-0.9089402323867112,0.8034544077281132,,,true,hl,4401.029999999999,response,1.2578167348825195,1.2,-1.2,-0.8371819698254004,1.2,-1.2,high,low,,ISIC_3585381.JPG,,ISIC_9613570.JPG,,26,true,0.4500000000000003,hl,keypress(j),100,false,195761.79999995232,195761.5,191343.795,191341.5,191360.47,195785.742,1,16,14,
sequence,flow.Sequence,4_13,2023-11-20T20:25:48.630Z,,,,,,,,,,,4401.029999999999,completion,,,,,,,high,low,,,,,,,true,,,,,false,195762.09999990463,195761.5,191343.795,191341.5,191360.47,195785.742,1,16,,
trial,html.Screen,4_14_0,2023-11-20T20:25:52.832Z,,,,0,-0.9089402323867112,0.8034544077281132,,,true,hl,4177.557999952318,response,1.0887164761389951,1.2,-1.2,-1.5357518752548716,1.2,-1.2,high,low,,ISIC_3585381.JPG,,ISIC_0028127.JPG,,26,true,0.4500000000000003,hl,keypress(j),100,false,199963.5,199963.29999995232,195769.095,195762.29999995232,195785.742,199994.025,1,16,15,
sequence,flow.Sequence,4_14,2023-11-20T20:25:52.832Z,,,,,,,,,,,4177.557999952318,completion,,,,,,,high,low,,,,,,,true,,,,,false,199963.69999992847,199963.29999995232,195769.095,195762.19999992847,195785.742,199994.025,1,16,,
trial,html.Screen,4_15_0,2023-11-20T20:25:56.746Z,,,,0,-0.8047295996345292,1.551750455622795,,,true,hl,3883.374999976164,response,1.2578167348825195,1.2,-1.2,-0.8371819698254004,1.2,-1.2,high,low,,ISIC_7717907.JPG,,ISIC_9613570.JPG,,26,true,0.4500000000000003,hl,keypress(j),100,false,203877.5,203877.39999997616,199977.269,199963.89999997616,199994.025,203901.71,1,16,16,
sequence,flow.Sequence,4_15,2023-11-20T20:25:56.746Z,,,,,,,,,,,3883.374999976164,completion,,,,,,,high,low,,,,,,,true,,,,,false,203877.69999992847,203877.39999997616,199977.269,199963.79999995232,199994.025,203901.71,1,16,,
demonstration_loop,flow.Loop,4,2023-11-20T20:25:56.746Z,,,,,,,,,,,103794.29199997617,completion,,,,,,,,,,,,,,,true,,,,,false,203877.79999995232,203877.39999997616,100066.266,100051.69999992847,100083.108,203901.71,1,16,,
practice_instructions,html.Screen,5,2023-11-20T20:26:52.424Z,,,,,,,,,,,55645.089999952324,response,,,,,,,,,,,,,,,,,continue,click button,,,259555.5,259546.79999995232,203884.853,203877.79999995232,203901.71,259576.467,,,,
trial,html.Screen,6_0_0,2023-11-20T20:26:59.292Z,,,,1,0.8472024037189965,-0.986370061404882,,,false,lh,6839.432999976154,response,-1.0116417541846066,1.2,-1.2,1.033442916947398,1.2,-1.2,low,high,,ISIC_0054355.JPG,,ISIC_0031389.JPG,,27,true,0.40000000000000024,ll,keypress(f),0,false,266423,266415.89999997616,259543.313,259555.69999992847,259576.467,266439.974,1,40,1,
sequence,flow.Sequence,6_0,2023-11-20T20:26:59.292Z,,,,,,,,,,,6839.432999976154,completion,,,,,,,low,high,,,,,,,true,,,,,false,266423.1999999285,266415.89999997616,259543.313,259555.59999990463,259576.467,266439.974,1,40,,
trial,html.Screen,6_1_0,2023-11-20T20:27:13.944Z,,,,1,-1.2118207001489876,-1.3164676315545727,,,true,hh,14635.526000000013,response,1.077278111180185,1.2,-1.2,1.1530533996184025,1.2,-1.2,high,high,,ISIC_0066476.JPG,,ISIC_9525136.JPG,,265,true,0.4500000000000003,hh,keypress(i),0,false,281075.59999990463,281075.5,266423.089,266423.1999999285,266439.974,281101.65,1,40,2,
sequence,flow.Sequence,6_1,2023-11-20T20:27:13.944Z,,,,,,,,,,,14635.526000000013,completion,,,,,,,high,high,,,,,,,true,,,,,false,281075.6999999285,281075.5,266423.089,266423.1999999285,266439.974,281101.65,1,40,,
trial,html.Screen,6_2_0,2023-11-20T20:27:19.792Z,,,,1,-0.8307508446051526,1.1707575338936729,,,true,hl,5821.449999904609,response,1.075512775389519,1.2,-1.2,-1.0454702683049502,1.2,-1.2,high,low,,ISIC_0028606.JPG,,ISIC_0033603.JPG,,26,true,0.4500000000000003,hl,keypress(j),0,false,286923.1999999285,286923.09999990463,281068.32,281075.7999999523,281101.65,286929.658,1,40,3,
sequence,flow.Sequence,6_2,2023-11-20T20:27:19.792Z,,,,,,,,,,,5821.449999904609,completion,,,,,,,high,low,,,,,,,true,,,,,false,286923.39999997616,286923.09999990463,281068.32,281075.6999999285,281101.65,286929.658,1,40,,
trial,html.Screen,6_3_0,2023-11-20T20:27:30.016Z,,,,1,0.9754077946987664,-1.1821868813141057,,,true,lh,10217.64199995232,response,-0.9544693251394116,1.2,-1.2,1.0727539917203766,1.2,-1.2,low,high,,ISIC_0024317.JPG,,ISIC_0055147.JPG,,27,true,0.40000000000000024,lh,keypress(e),0,false,297147.5,297147.2999999523,286913.182,286923.39999997616,286929.658,297149.533,1,40,4,
sequence,flow.Sequence,6_3,2023-11-20T20:27:30.016Z,,,,,,,,,,,10217.64199995232,completion,,,,,,,low,high,,,,,,,true,,,,,false,297147.59999990463,297147.2999999523,286913.182,286923.39999997616,286929.658,297149.533,1,40,,
trial,html.Screen,6_4_0,2023-11-20T20:27:38.008Z,,,,1,-1.1746004947382946,-1.2207657619249948,,,true,hh,7989.666999928479,response,0.8526775318290718,1.2,-1.2,0.9398012765219632,1.2,-1.2,high,high,,ISIC_0012069.JPG,,ISIC_2647198.JPG,,265,true,0.4500000000000003,hh,keypress(i),0,false,305139.39999997616,305139.1999999285,297132.88,297147.59999990463,297149.533,305148.405,1,40,5,
sequence,flow.Sequence,6_4,2023-11-20T20:27:38.008Z,,,,,,,,,,,7989.666999928479,completion,,,,,,,high,high,,,,,,,true,,,,,false,305139.5,305139.1999999285,297132.88,297147.59999990463,297149.533,305148.405,1,40,,
trial,html.Screen,6_5_0,2023-11-20T20:27:46.225Z,,,,1,1.2541318165695772,1.085289936617366,,,true,ll,8207.294999928446,response,-1.082709423673037,1.2,-1.2,-1.1184338818466155,1.2,-1.2,low,low,,ISIC_4277207.JPG,,ISIC_0058666.JPG,,30,true,0.13,ll,keypress(f),0,false,313355.89999997616,313355.6999999285,305131.918,305139.59999990463,305148.405,313381.11,1,40,6,
sequence,flow.Sequence,6_5,2023-11-20T20:27:46.225Z,,,,,,,,,,,8207.294999928446,completion,,,,,,,low,low,,,,,,,true,,,,,false,313356.1999999285,313355.6999999285,305131.918,305139.59999990463,305148.405,313381.11,1,40,,
trial,html.Screen,6_6_0,2023-11-20T20:27:51.976Z,,,,1,-1.2020012168275056,0.923753102263735,,,true,hl,5725.9899999046465,response,0.9754077946987664,1.2,-1.2,-1.1821868813141057,1.2,-1.2,high,low,,ISIC_0000022.JPG,,ISIC_0024317.JPG,,26,true,0.4500000000000003,hl,keypress(j),0,false,319107.1999999285,319107.09999990463,313347.825,313356.2999999523,313381.11,319108.903,1,40,7,
sequence,flow.Sequence,6_6,2023-11-20T20:27:51.977Z,,,,,,,,,,,5725.9899999046465,completion,,,,,,,high,low,,,,,,,true,,,,,false,319107.39999997616,319107.09999990463,313347.825,313356.2999999523,313381.11,319108.903,1,40,,
trial,html.Screen,6_7_0,2023-11-20T20:27:56.889Z,,,,1,1.3246728710248594,1.1527736000922424,,,true,ll,4911.097000000009,response,-1.058683139801412,1.2,-1.2,-1.5215061912609664,1.2,-1.2,low,low,,ISIC_6876281.JPG,,ISIC_0010866.JPG,,288,true,0.40000000000000024,ll,keypress(f),0,false,324020.1999999285,324020,319092.298,319107.39999997616,319108.903,324035.346,1,40,8,
sequence,flow.Sequence,6_7,2023-11-20T20:27:56.889Z,,,,,,,,,,,4911.097000000009,completion,,,,,,,low,low,,,,,,,true,,,,,false,324020.2999999523,324020,319092.298,319107.39999997616,319108.903,324035.346,1,40,,
trial,html.Screen,6_8_0,2023-11-20T20:28:05.481Z,,,,1,-1.2194553326562725,-1.2381726989215684,,,true,hh,8576.453999952297,response,1.2246024683501224,1.2,-1.2,1.2904526351590244,1.2,-1.2,high,high,,ISIC_0068975.JPG,,ISIC_4730066.JPG,,25,true,0.14,hh,keypress(i),0,false,332612.1999999285,332611.7999999523,324018.625,324020.5,324035.346,332635.215,1,40,9,
sequence,flow.Sequence,6_8,2023-11-20T20:28:05.482Z,,,,,,,,,,,8576.453999952297,completion,,,,,,,high,high,,,,,,,true,,,,,false,332612.5,332611.7999999523,324018.625,324020.5,324035.346,332635.215,1,40,,
trial,html.Screen,6_9_0,2023-11-20T20:28:15.329Z,,,,1,-0.8047295996345292,1.551750455622795,,,true,hl,9824.384999904607,response,0.9653573371180936,1.2,-1.2,-0.854766800381037,1.2,-1.2,high,low,,ISIC_7717907.JPG,,ISIC_9640145.JPG,,26,true,0.4500000000000003,hl,keypress(j),0,false,342459.6999999285,342459.59999990463,332602.003,332612.6999999285,332635.215,342471.01,1,40,10,
sequence,flow.Sequence,6_9,2023-11-20T20:28:15.329Z,,,,,,,,,,,9824.384999904607,completion,,,,,,,high,low,,,,,,,true,,,,,false,342459.89999997616,342459.59999990463,332602.003,332612.6999999285,332635.215,342471.01,1,40,,
trial,html.Screen,6_10_0,2023-11-20T20:28:18.929Z,,,,1,1.3379750533585932,1.1671342614509763,,,true,ll,3588.389999976149,response,-0.9837331918354912,1.2,-1.2,-0.9130384672883698,1.2,-1.2,low,low,,ISIC_0063556.JPG,,ISIC_0001108.JPG,,288,true,0.40000000000000024,ll,keypress(f),0,false,346059.39999997616,346059.39999997616,342454.223,342460.09999990463,342471.01,346061.326,1,40,11,
sequence,flow.Sequence,6_10,2023-11-20T20:28:18.929Z,,,,,,,,,,,3588.389999976149,completion,,,,,,,low,low,,,,,,,true,,,,,false,346059.6999999285,346059.39999997616,342454.223,342460,342471.01,346061.326,1,40,,
trial,html.Screen,6_11_0,2023-11-20T20:28:25.650Z,,,,1,1.109799097093339,1.091507924157762,,,true,ll,6719.173999999999,response,-1.236306205926646,1.2,-1.2,-1.116612676102794,1.2,-1.2,low,low,,ISIC_0765584.JPG,,ISIC_0054341.JPG,,40,true,0.14,ll,keypress(f),0,false,352780.89999997616,352780.5,346044.616,346059.6999999285,346061.326,352807.749,1,40,12,
sequence,flow.Sequence,6_11,2023-11-20T20:28:25.650Z,,,,,,,,,,,6719.173999999999,completion,,,,,,,low,low,,,,,,,true,,,,,false,352781.2999999523,352780.5,346044.616,346059.6999999285,346061.326,352807.749,1,40,,
trial,html.Screen,6_12_0,2023-11-20T20:28:30.128Z,,,,1,-1.168911077628813,1.2181838235193114,,,true,hl,4451.450999928464,response,0.8830264383952469,1.2,-1.2,-0.8635562538060516,1.2,-1.2,high,low,,ISIC_7358691.JPG,,ISIC_0032258.JPG,,26,true,0.4500000000000003,hl,keypress(j),0,false,357259.39999997616,357259.1999999285,352774.377,352781.6999999285,352807.749,357266.458,1,40,13,
sequence,flow.Sequence,6_12,2023-11-20T20:28:30.129Z,,,,,,,,,,,4451.450999928464,completion,,,,,,,high,low,,,,,,,true,,,,,false,357259.5,357259.1999999285,352774.377,352781.59999990463,352807.749,357266.458,1,40,,
trial,html.Screen,6_13_0,2023-11-20T20:28:37.672Z,,,,1,-1.0788024398087033,0.9911875460374616,,,true,hl,7536.841999952332,response,0.8926515927689261,1.2,-1.2,-0.7935960767768927,1.2,-1.2,high,low,,ISIC_5951430.JPG,,ISIC_8901371.JPG,,26,true,0.4500000000000003,hl,keypress(j),0,false,364803.2999999523,364803.2999999523,357249.719,357259.59999990463,357266.458,364814.481,1,40,14,
sequence,flow.Sequence,6_13,2023-11-20T20:28:37.673Z,,,,,,,,,,,7536.841999952332,completion,,,,,,,high,low,,,,,,,true,,,,,false,364803.5,364803.2999999523,357249.719,357259.59999990463,357266.458,364814.481,1,40,,
trial,html.Screen,6_14_0,2023-11-20T20:28:43.976Z,,,,1,-1.1302628852630028,-1.288906469447243,,,true,hh,6292.418999976129,response,1.3130464853633568,1.2,-1.2,1.3410234912698384,1.2,-1.2,high,high,,ISIC_0071050.JPG,,ISIC_0004486.JPG,,203,true,0.40000000000000024,hh,keypress(i),0,false,371107.09999990463,371106.89999997616,364797.764,364803.59999990463,364814.481,371126.724,1,40,15,
sequence,flow.Sequence,6_14,2023-11-20T20:28:43.976Z,,,,,,,,,,,6292.418999976129,completion,,,,,,,high,high,,,,,,,true,,,,,false,371107.1999999285,371106.89999997616,364797.764,364803.59999990463,364814.481,371126.724,1,40,,
trial,html.Screen,6_15_0,2023-11-20T20:28:50.608Z,,,,1,1.0329549150636406,-1.01584100839286,,,true,lh,6612.475999928487,response,-0.8544507134472948,1.2,-1.2,0.9244388608707323,1.2,-1.2,low,high,,ISIC_0054670.JPG,,ISIC_3565564.JPG,,27,true,0.40000000000000024,lh,keypress(e),0,false,377739.2999999523,377739.1999999285,371093.425,371107.2999999523,371126.724,377756.298,1,40,16,
sequence,flow.Sequence,6_15,2023-11-20T20:28:50.609Z,,,,,,,,,,,6612.475999928487,completion,,,,,,,low,high,,,,,,,true,,,,,false,377739.39999997616,377739.1999999285,371093.425,371107.1999999285,371126.724,377756.298,1,40,,
trial,html.Screen,6_16_0,2023-11-20T20:28:55.249Z,,,,1,0.8719231363109603,-0.7704280220140033,,,true,lh,4622.801999904623,response,-1.045301444872812,1.2,-1.2,1.0872560254441277,1.2,-1.2,low,high,,ISIC_0029453.JPG,,ISIC_4507700.JPG,,40,true,0.4500000000000003,lh,keypress(e),0,false,382379.09999990463,382379.09999990463,377739.531,377739.5,377756.298,382381.955,1,40,17,
sequence,flow.Sequence,6_16,2023-11-20T20:28:55.249Z,,,,,,,,,,,4622.801999904623,completion,,,,,,,low,high,,,,,,,true,,,,,false,382379.2999999523,382379.09999990463,377739.531,377739.5,377756.298,382381.955,1,40,,
trial,html.Screen,6_17_0,2023-11-20T20:29:02.690Z,,,,1,-1.2594580992890123,0.8833175387485132,,,true,hl,7438.244999928458,response,0.8472024037189965,1.2,-1.2,-0.986370061404882,1.2,-1.2,high,low,,ISIC_0011933.JPG,,ISIC_0054355.JPG,,26,true,0.4500000000000003,hl,keypress(j),0,false,389820.5,389820.1999999285,382365.224,382379.39999997616,382381.955,389846.486,1,40,18,
sequence,flow.Sequence,6_17,2023-11-20T20:29:02.691Z,,,,,,,,,,,7438.244999928458,completion,,,,,,,high,low,,,,,,,true,,,,,false,389821.1999999285,389820.1999999285,382365.224,382379.39999997616,382381.955,389846.486,1,40,,
trial,html.Screen,6_18_0,2023-11-20T20:29:15.202Z,,,,1,0.8926515927689261,-0.7935960767768927,,,true,lh,12486.113999904657,response,-0.8067116931297591,1.2,-1.2,1.215898074058027,1.2,-1.2,low,high,,ISIC_8901371.JPG,,ISIC_1457687.JPG,,27,true,0.40000000000000024,lh,keypress(e),0,false,402332.7999999523,402332.59999990463,389813.121,389821.39999997616,389846.486,402354.149,1,40,19,
sequence,flow.Sequence,6_18,2023-11-20T20:29:15.203Z,,,,,,,,,,,12486.113999904657,completion,,,,,,,low,high,,,,,,,true,,,,,false,402333.1999999285,402332.59999990463,389813.121,389821.2999999523,389846.486,402354.149,1,40,,
trial,html.Screen,6_19_0,2023-11-20T20:29:29.825Z,,,,1,0.9653573371180936,-0.854766800381037,,,true,lh,14601.15099995234,response,-0.7688509750532941,1.2,-1.2,0.7699842387811451,1.2,-1.2,low,high,,ISIC_9640145.JPG,,ISIC_0014527.JPG,,40,true,0.4500000000000003,lh,keypress(e),0,false,416955.2999999523,416955.2999999523,402320.699,402333.5,402354.149,416965.893,1,40,20,
sequence,flow.Sequence,6_19,2023-11-20T20:29:29.825Z,,,,,,,,,,,14601.15099995234,completion,,,,,,,low,high,,,,,,,true,,,,,false,416955.5,416955.2999999523,402320.699,402333.39999997616,402354.149,416965.893,1,40,,
trial,html.Screen,6_20_0,2023-11-20T20:29:42.170Z,,,,1,-0.8867328775712738,1.0063426986460375,,,true,hl,12334.607000000018,response,1.3046390428588206,1.2,-1.2,-0.7942099232219556,1.2,-1.2,high,low,,ISIC_0055759.JPG,,ISIC_0013096.JPG,,26,true,0.4500000000000003,hl,keypress(j),0,false,429300.6999999285,429300.5,416949.351,416955.59999990463,416965.893,429306.623,1,40,21,
sequence,flow.Sequence,6_20,2023-11-20T20:29:42.170Z,,,,,,,,,,,12334.607000000018,completion,,,,,,,high,low,,,,,,,true,,,,,false,429301,429300.5,416949.351,416955.5,416965.893,429306.623,1,40,,
trial,html.Screen,6_21_0,2023-11-20T20:29:54.169Z,,,,1,-1.1195710731537871,-1.1961732733209125,,,true,hh,11992.976999904611,response,1.1378276910681402,1.2,-1.2,1.5086846949325716,1.2,-1.2,high,high,,ISIC_0067170.JPG,,ISIC_7563744.JPG,,203,true,0.40000000000000024,hh,keypress(i),0,false,441299.59999990463,441299.59999990463,429289.935,429301.2999999523,429306.623,441313.243,1,40,22,
sequence,flow.Sequence,6_21,2023-11-20T20:29:54.170Z,,,,,,,,,,,11992.976999904611,completion,,,,,,,high,high,,,,,,,true,,,,,false,441299.89999997616,441299.59999990463,429289.935,429301.1999999285,429306.623,441313.243,1,40,,
trial,html.Screen,6_22_0,2023-11-20T20:30:02.673Z,,,,1,1.2578167348825195,-0.8371819698254004,,,true,lh,8489.856999904616,response,-1.0685314915436992,1.2,-1.2,0.8203833713472237,1.2,-1.2,low,high,,ISIC_9613570.JPG,,ISIC_0029374.JPG,,27,true,0.40000000000000024,lh,keypress(e),0,false,449803.1999999285,449803.09999990463,441296.489,441299.89999997616,441313.243,449813.085,1,40,23,
sequence,flow.Sequence,6_22,2023-11-20T20:30:02.673Z,,,,,,,,,,,8489.856999904616,completion,,,,,,,low,high,,,,,,,true,,,,,false,449803.5,449803.09999990463,441296.489,441299.89999997616,441313.243,449813.085,1,40,,
trial,html.Screen,6_23_0,2023-11-20T20:30:08.762Z,,,,1,1.1843968275545205,1.2828739728067764,,,true,ll,6079.1149999284535,response,-0.8749910087452009,1.2,-1.2,-1.37549109461227,1.2,-1.2,low,low,,ISIC_0002901.JPG,,ISIC_0054332.JPG,,359,true,0.4500000000000003,ll,keypress(f),0,false,455892.39999997616,455892.1999999285,449796.357,449803.5,449813.085,455908.483,1,40,24,
sequence,flow.Sequence,6_23,2023-11-20T20:30:08.763Z,,,,,,,,,,,6079.1149999284535,completion,,,,,,,low,low,,,,,,,true,,,,,false,455892.7999999523,455892.1999999285,449796.357,449803.5,449813.085,455908.483,1,40,,
trial,html.Screen,6_24_0,2023-11-20T20:30:14.226Z,,,,1,-1.2749714218614645,-1.1578619398362149,,,true,hh,5447.616999904625,response,1.151139267005652,1.2,-1.2,1.0838749490501327,1.2,-1.2,high,high,,ISIC_0024999.JPG,,ISIC_0002566.JPG,,25,true,0.14,hh,keypress(i),0,false,461356.39999997616,461356.09999990463,455891.694,455893,455908.483,461368.982,1,40,25,
sequence,flow.Sequence,6_24,2023-11-20T20:30:14.227Z,,,,,,,,,,,5447.616999904625,completion,,,,,,,high,high,,,,,,,true,,,,,false,461356.7999999523,461356.09999990463,455891.694,455893,455908.483,461368.982,1,40,,
trial,html.Screen,6_25_0,2023-11-20T20:30:22.545Z,,,,1,1.274417010249866,1.0725495669014795,,,true,ll,8306.117999904614,response,-1.14454137020797,1.2,-1.2,-1.1082302786512033,1.2,-1.2,low,low,,ISIC_8849004.JPG,,ISIC_0065128.JPG,,30,true,0.13,ll,keypress(f),0,false,469675.1999999285,469675.09999990463,461352.191,461357,461368.982,469685.158,1,40,26,
sequence,flow.Sequence,6_25,2023-11-20T20:30:22.545Z,,,,,,,,,,,8306.117999904614,completion,,,,,,,low,low,,,,,,,true,,,,,false,469675.39999997616,469675.09999990463,461352.191,461356.89999997616,461368.982,469685.158,1,40,,
trial,html.Screen,6_26_0,2023-11-20T20:30:28.617Z,,,,1,-1.2749714218614645,-1.1578619398362149,,,true,hh,6062.241999976162,response,1.2100527057059796,1.2,-1.2,1.2159112471537263,1.2,-1.2,high,high,,ISIC_0024999.JPG,,ISIC_0008055.JPG,,25,true,0.14,hh,keypress(i),0,false,475747.59999990463,475747.39999997616,469668.357,469675.39999997616,469685.158,475763.582,1,40,27,
sequence,flow.Sequence,6_26,2023-11-20T20:30:28.618Z,,,,,,,,,,,6062.241999976162,completion,,,,,,,high,high,,,,,,,true,,,,,false,475747.7999999523,475747.39999997616,469668.357,469675.39999997616,469685.158,475763.582,1,40,,
trial,html.Screen,6_27_0,2023-11-20T20:30:37.161Z,,,,1,-1.2020012168275056,0.923753102263735,,,true,hl,8527.717999952321,response,0.8034318937720549,1.2,-1.2,-1.0024917298189338,1.2,-1.2,high,low,,ISIC_0000022.JPG,,ISIC_0032766.JPG,,26,true,0.4500000000000003,hl,keypress(j),0,false,484291.39999997616,484291.2999999523,475746.99,475747.89999997616,475763.582,484296.845,1,40,28,
sequence,flow.Sequence,6_27,2023-11-20T20:30:37.161Z,,,,,,,,,,,8527.717999952321,completion,,,,,,,high,low,,,,,,,true,,,,,false,484291.5,484291.2999999523,475746.99,475747.7999999523,475763.582,484296.845,1,40,,
trial,html.Screen,6_28_0,2023-11-20T20:30:42.402Z,,,,1,0.8719231363109603,-0.7704280220140033,,,true,lh,5235.155000000028,response,-0.8544507134472948,1.2,-1.2,0.9244388608707323,1.2,-1.2,low,high,,ISIC_0029453.JPG,,ISIC_3565564.JPG,,27,true,0.40000000000000024,lh,keypress(e),0,false,489532.2999999523,489532,484280.217,484291.59999990463,484296.845,489557.078,1,40,29,
sequence,flow.Sequence,6_28,2023-11-20T20:30:42.402Z,,,,,,,,,,,5235.155000000028,completion,,,,,,,low,high,,,,,,,true,,,,,false,489532.6999999285,489532,484280.217,484291.59999990463,484296.845,489557.078,1,40,,
trial,html.Screen,6_29_0,2023-11-20T20:30:58.409Z,,,,1,-1.0153439398566937,0.93001438372942,,,,,16014.611000000034,timeout,0.7518277461369444,1.2,-1.2,-1.3860759020802074,1.2,-1.2,high,low,,ISIC_8211214.JPG,,ISIC_7967397.JPG,,26,true,0.4500000000000003,,,0,false,505538.89999997616,505538.6999999285,489523.69,489532.7999999523,489557.078,505571.689,1,40,30,
sequence,flow.Sequence,6_29,2023-11-20T20:30:58.409Z,,,,,,,,,,,15981.621999928495,completion,,,,,,,high,low,,,,,,,true,,,,,false,505539,505538.6999999285,489523.69,489532.7999999523,489557.078,505571.689,1,40,,
trial,html.Screen,6_30_0,2023-11-20T20:31:04.682Z,,,,1,0.7518277461369444,-1.3860759020802074,,,true,lh,6239.610999952303,response,-1.0153439398566937,1.2,-1.2,0.93001438372942,1.2,-1.2,low,high,,ISIC_7967397.JPG,,ISIC_8211214.JPG,,27,true,0.40000000000000024,lh,keypress(e),0,false,511811.5,511811.2999999523,505554.857,505539.09999990463,505571.689,511817.048,1,40,31,
sequence,flow.Sequence,6_30,2023-11-20T20:31:04.682Z,,,,,,,,,,,6239.610999952303,completion,,,,,,,low,high,,,,,,,true,,,,,false,511811.7999999523,511811.2999999523,505554.857,505539.09999990463,505571.689,511817.048,1,40,,
trial,html.Screen,6_31_0,2023-11-20T20:31:12.337Z,,,,1,-1.0769708994456726,-1.2196503533725178,,,true,hh,7650.051999904623,response,0.7607573190812582,1.2,-1.2,0.7880740841769366,1.2,-1.2,high,high,,ISIC_0063824.JPG,,ISIC_2178689.JPG,,265,true,0.4500000000000003,hh,keypress(i),0,false,519467.2999999523,519467.09999990463,511800.43,511811.7999999523,511817.048,519481.998,1,40,32,
sequence,flow.Sequence,6_31,2023-11-20T20:31:12.338Z,,,,,,,,,,,7650.051999904623,completion,,,,,,,high,high,,,,,,,true,,,,,false,519467.59999990463,519467.09999990463,511800.43,511811.7999999523,511817.048,519481.998,1,40,,
trial,html.Screen,6_32_0,2023-11-20T20:31:17.170Z,,,,1,1.077278111180185,1.1530533996184025,,,true,ll,4817.301999952295,response,-1.268445326285509,1.2,-1.2,-1.173734476257662,1.2,-1.2,low,low,,ISIC_9525136.JPG,,ISIC_5216586.JPG,,30,true,0.13,ll,keypress(f),0,false,524299.3999999762,524299.2999999523,519465.41,519467.59999990463,519481.998,524324.702,1,40,33,
sequence,flow.Sequence,6_32,2023-11-20T20:31:17.170Z,,,,,,,,,,,4817.301999952295,completion,,,,,,,low,low,,,,,,,true,,,,,false,524299.5999999046,524299.2999999523,519465.41,519467.59999990463,519481.998,524324.702,1,40,,
trial,html.Screen,6_33_0,2023-11-20T20:31:24.242Z,,,,1,-1.0685314915436992,0.8203833713472237,,,true,hl,7046.897999904584,response,1.0887164761389951,1.2,-1.2,-1.5357518752548716,1.2,-1.2,high,low,,ISIC_0029374.JPG,,ISIC_0028127.JPG,,26,true,0.4500000000000003,hl,keypress(j),0,false,531371.6999999285,531371.5999999046,524291.474,524299.7999999523,524324.702,531388.679,1,40,34,
sequence,flow.Sequence,6_33,2023-11-20T20:31:24.242Z,,,,,,,,,,,7046.897999904584,completion,,,,,,,high,low,,,,,,,true,,,,,false,531372,531371.5999999046,524291.474,524299.7999999523,524324.702,531388.679,1,40,,
trial,html.Screen,6_34_0,2023-11-20T20:31:28.874Z,,,,1,-1.082709423673037,-1.1184338818466155,,,true,hh,4615.420999904629,response,1.0622023082418524,1.2,-1.2,0.8319500041964579,1.2,-1.2,high,high,,ISIC_0058666.JPG,,ISIC_0056707.JPG,,203,true,0.40000000000000024,hh,keypress(i),0,false,536004.3999999762,536004.0999999046,531371.807,531372.0999999046,531388.679,536014.07,1,40,35,
sequence,flow.Sequence,6_34,2023-11-20T20:31:28.875Z,,,,,,,,,,,4615.420999904629,completion,,,,,,,high,high,,,,,,,true,,,,,false,536004.7999999523,536004.0999999046,531371.807,531372.0999999046,531388.679,536014.07,1,40,,
trial,html.Screen,6_35_0,2023-11-20T20:31:33.306Z,,,,1,1.0659165756604234,1.0867497316848906,,,true,ll,4421.629999928526,response,-1.2749714218614645,1.2,-1.2,-1.1578619398362149,1.2,-1.2,low,low,,ISIC_5807608.JPG,,ISIC_0024999.JPG,,30,true,0.13,ll,keypress(f),0,false,540435.7999999523,540435.6999999285,535997.533,536005,536014.07,540439.403,1,40,36,
sequence,flow.Sequence,6_35,2023-11-20T20:31:33.306Z,,,,,,,,,,,4421.629999928526,completion,,,,,,,low,low,,,,,,,true,,,,,false,540436.0999999046,540435.6999999285,535997.533,536005,536014.07,540439.403,1,40,,
trial,html.Screen,6_36_0,2023-11-20T20:31:37.081Z,,,,1,-1.1392972253022884,-1.208510423375335,,,true,hh,3771.496999976109,response,1.109799097093339,1.2,-1.2,1.091507924157762,1.2,-1.2,high,high,,ISIC_0046526.JPG,,ISIC_0765584.JPG,,25,true,0.14,hh,keypress(i),0,false,544211,544210.8999999762,540422.691,540436.1999999285,540439.403,544230.054,1,40,37,
sequence,flow.Sequence,6_36,2023-11-20T20:31:37.081Z,,,,,,,,,,,3771.496999976109,completion,,,,,,,high,high,,,,,,,true,,,,,false,544211.0999999046,544210.8999999762,540422.691,540436.1999999285,540439.403,544230.054,1,40,,
trial,html.Screen,6_37_0,2023-11-20T20:31:43.041Z,,,,1,0.8034318937720549,-1.0024917298189338,,,true,lh,5941.145999928471,response,-1.2594580992890123,1.2,-1.2,0.8833175387485132,1.2,-1.2,low,high,,ISIC_0032766.JPG,,ISIC_0011933.JPG,,27,true,0.40000000000000024,lh,keypress(e),0,false,550171.2999999523,550171.1999999285,544196.742,544211.2999999523,544230.054,550174.934,1,40,38,
sequence,flow.Sequence,6_37,2023-11-20T20:31:43.042Z,,,,,,,,,,,5941.145999928471,completion,,,,,,,low,high,,,,,,,true,,,,,false,550171.3999999762,550171.1999999285,544196.742,544211.1999999285,544230.054,550174.934,1,40,,
trial,html.Screen,6_38_0,2023-11-20T20:31:45.554Z,,,,1,1.2946277435220357,1.255157480204324,,,true,ll,2508.9659999761498,response,-1.1325589611397748,1.2,-1.2,-1.3836342313293748,1.2,-1.2,low,low,,ISIC_1870309.JPG,,ISIC_0026188.JPG,,359,true,0.4500000000000003,ll,keypress(f),0,false,552684.1999999285,552683.8999999762,550158.287,550171.5999999046,550174.934,552696.732,1,40,39,
sequence,flow.Sequence,6_38,2023-11-20T20:31:45.555Z,,,,,,,,,,,2508.9659999761498,completion,,,,,,,low,low,,,,,,,true,,,,,false,552684.5999999046,552683.8999999762,550158.287,550171.5,550174.934,552696.732,1,40,,
trial,html.Screen,6_39_0,2023-11-20T20:31:48.018Z,,,,1,1.2946277435220357,1.255157480204324,,,true,ll,2451.0679999523563,response,-1.2033647433750492,1.2,-1.2,-1.0718012192341555,1.2,-1.2,low,low,,ISIC_1870309.JPG,,ISIC_0061606.JPG,,40,true,0.14,ll,keypress(f),0,false,555148,555147.7999999523,552680.063,552684.7999999523,552696.732,555151.367,1,40,40,
sequence,flow.Sequence,6_39,2023-11-20T20:31:48.018Z,,,,,,,,,,,2451.0679999523563,completion,,,,,,,low,low,,,,,,,true,,,,,false,555148.3999999762,555147.7999999523,552680.063,552684.6999999285,552696.732,555151.367,1,40,,
practice_loop,flow.Loop,6,2023-11-20T20:31:48.019Z,,,,,,,,,,,295571.3329999523,completion,,,,,,,,,,,,,,,true,,,,,false,555148.6999999285,555147.7999999523,259543.313,259555.59999990463,259576.467,555151.367,1,40,,
stair_instructions,html.Screen,7,2023-11-20T20:32:12.378Z,,,,,,,,,,,24355.13300000003,response,,,,,,,,,,,,,,,,,continue,click button,,,579507.0999999046,579506.5,555134.814,555148.8999999762,555151.367,579515.363,,,,
trial,html.Screen,8_0_0,2023-11-20T20:32:23.031Z,,,,2,0.0257631352671967,0.0202837002774028,,0.04,false,hh,10644.73699990462,response,1.0943527860463682,1.2,-1.2,1.124481746658104,1.2,-1.2,high,high,,ISIC_0032797.JPG,,ISIC_0438136.JPG,28,25,false,0.14,hl,keypress(j),0,true,590160.1999999285,590160.0999999046,579498.764,579507.2999999523,579515.363,590186.113,1,40,1,
sequence,flow.Sequence,8_0,2023-11-20T20:32:23.031Z,,,,,,,,,,,10644.73699990462,completion,,,,,,,high,high,,,,,,,false,,,,,true,590160.3999999762,590160.0999999046,579498.764,579507.2999999523,579515.363,590186.113,1,40,,
trial,html.Screen,8_1_0,2023-11-20T20:32:28.906Z,,,,2,0.0076984477620101,0.0069458408496562,,0.04,false,lh,5849.286999976146,response,-0.7856143618373893,1.15,-1.15,1.0273608829432213,1.2,-1.15,low,high,,ISIC_0000434.JPG,,ISIC_9303849.JPG,28,25,false,0.3700000000000002,hh,keypress(i),0,true,596035.5999999046,596035.3999999762,590169.403,590160.5,590186.113,596047.518,1,40,2,
sequence,flow.Sequence,8_1,2023-11-20T20:32:28.906Z,,,,,,,,,,,5849.286999976146,completion,,,,,,,low,high,,,,,,,false,,,,,true,596035.8999999762,596035.3999999762,590169.403,590160.5,590186.113,596047.518,1,40,,
trial,html.Screen,8_2_0,2023-11-20T20:32:32.906Z,,,,2,0,-0.0102871556606504,,0.04,false,hl,3987.98199999996,response,0.8110121381849364,1.15,-1.15,-0.7563142141851558,1.15,-1.15,high,low,,ISIC_1805163.JPG,,ISIC_0033605.JPG,28,26,false,0.40000000000000024,ll,keypress(f),0,true,600035.6999999285,600035.5,596030.844,596035.8999999762,596047.518,600038.629,1,40,3,
sequence,flow.Sequence,8_2,2023-11-20T20:32:32.906Z,,,,,,,,,,,3987.98199999996,completion,,,,,,,high,low,,,,,,,false,,,,,true,600035.8999999762,600035.5,596030.844,596035.8999999762,596047.518,600038.629,1,40,,
trial,html.Screen,8_3_0,2023-11-20T20:32:40.674Z,,,,2,0.0258224118104549,-0.0029364553353019,,0.04,false,hh,7765.070999928517,response,1.1018283884093611,1.15,-1.15,1.053767307212406,1.15,-1.15,high,high,,ISIC_8325226.JPG,,ISIC_6785249.JPG,28,27,false,0.14,hl,keypress(j),0,true,607803.8999999762,607803.6999999285,600021.907,600036.0999999046,600038.629,607820.486,1,40,4,
sequence,flow.Sequence,8_3,2023-11-20T20:32:40.675Z,,,,,,,,,,,7765.070999928517,completion,,,,,,,high,high,,,,,,,false,,,,,true,607804.1999999285,607803.6999999285,600021.907,600036.0999999046,600038.629,607820.486,1,40,,
trial,html.Screen,8_4_0,2023-11-20T20:32:47.698Z,,,,2,0.0308384937406319,-0.0038396364323947,,0.04,false,hh,7006.613999904599,response,1.1441960791049337,1.15,-1.15,1.0156321899655198,1.15,-1.15,high,high,,ISIC_0029825.JPG,,ISIC_4023381.JPG,28,27,false,0.14,hl,keypress(j),0,true,614827.2999999523,614827.0999999046,607803.763,607804.3999999762,607820.486,614834.064,1,40,5,
sequence,flow.Sequence,8_4,2023-11-20T20:32:47.698Z,,,,,,,,,,,7006.613999904599,completion,,,,,,,high,high,,,,,,,false,,,,,true,614827.5,614827.0999999046,607803.763,607804.2999999523,607820.486,614834.064,1,40,,
trial,html.Screen,8_5_0,2023-11-20T20:32:55.713Z,,,,2,0.0118382036798625,0.0300588245877227,,0.04,false,hl,8008.735999952303,response,1.199471562817528,1.0730122337571475,-1.15,-0.8631260534979347,1.15,-1.15,high,low,,ISIC_4748605.JPG,,ISIC_0030754.JPG,28,26,false,0.3700000000000002,ll,keypress(f),0,true,622842.8999999762,622842.7999999523,614817.43,614827.6999999285,614834.064,622849.633,1,40,6,
sequence,flow.Sequence,8_5,2023-11-20T20:32:55.714Z,,,,,,,,,,,8008.735999952303,completion,,,,,,,high,low,,,,,,,false,,,,,true,622843.0999999046,622842.7999999523,614817.43,614827.5999999046,614834.064,622849.633,1,40,,
trial,html.Screen,8_6_0,2023-11-20T20:33:02.018Z,,,,2,0.0200295718112167,0.0155559071275806,,0.04,false,hl,6297.666999952286,response,1.2578167348825195,1.1230122337571475,-1.15,-0.8371819698254004,1.15,-1.0999999999999999,high,low,,ISIC_0061343.JPG,,ISIC_9613570.JPG,28,25,false,0.3600000000000002,lh,keypress(e),0,true,629147.5,629147.2999999523,622832.929,622843.0999999046,622849.633,629161.9,1,40,7,
sequence,flow.Sequence,8_6,2023-11-20T20:33:02.018Z,,,,,,,,,,,6297.666999952286,completion,,,,,,,high,low,,,,,,,false,,,,,true,629147.7999999523,629147.2999999523,622832.929,622843.0999999046,622849.633,629161.9,1,40,,
trial,html.Screen,8_7_0,2023-11-20T20:33:07.434Z,,,,2,0.0044063257337227,0.0172548282859886,,0.04,true,lh,5401.599999999977,response,-0.9617893983965208,1.1730122337571476,-1.15,0.9453006131304652,1.15,-1.15,low,high,,ISIC_7413786.JPG,,ISIC_4229473.JPG,28,26,false,0.3500000000000002,lh,keypress(e),0,true,634563.5,634563.5,629145.266,629147.7999999523,629161.9,634572.429,1,40,8,
sequence,flow.Sequence,8_7,2023-11-20T20:33:07.434Z,,,,,,,,,,,5401.599999999977,completion,,,,,,,low,high,,,,,,,false,,,,,true,634563.7999999523,634563.5,629145.266,629147.7999999523,629161.9,634572.429,1,40,,
trial,html.Screen,8_8_0,2023-11-20T20:33:13.282Z,,,,2,-0.0241900387072296,0.0339955304424736,,0.04,false,hl,5838.470999976154,response,0.8034318937720549,1.1730122337571476,-1.15,-1.0024917298189338,1.15,-1.15,high,low,,ISIC_0010789.JPG,,ISIC_0032766.JPG,28,25,false,0.40000000000000024,ll,keypress(f),0,true,640411.0999999046,640410.8999999762,634555.87,634563.8999999762,634572.429,640417.121,1,40,9,
sequence,flow.Sequence,8_8,2023-11-20T20:33:13.282Z,,,,,,,,,,,5838.470999976154,completion,,,,,,,high,low,,,,,,,false,,,,,true,640411.1999999285,640410.8999999762,634555.87,634563.8999999762,634572.429,640417.121,1,40,,
trial,html.Screen,8_9_0,2023-11-20T20:33:21.011Z,,,,2,0.0308384937406319,-0.0038396364323947,,0.04,false,hh,7722.878999999957,response,1.2541318165695772,1.1730122337571476,-1.15,1.085289936617366,1.15,-1.15,high,high,,ISIC_0029825.JPG,,ISIC_4277207.JPG,28,31,false,0.15000000000000002,lh,keypress(e),0,true,648140.2999999523,648140,640400.582,640411.2999999523,640417.121,648148.851,1,40,10,
sequence,flow.Sequence,8_9,2023-11-20T20:33:21.012Z,,,,,,,,,,,7722.878999999957,completion,,,,,,,high,high,,,,,,,false,,,,,true,648140.6999999285,648140,640400.582,640411.1999999285,640417.121,648148.851,1,40,,
trial,html.Screen,8_10_0,2023-11-20T20:33:24.066Z,,,,2,-0.0241900387072296,0.0339955304424736,,0.04,true,ll,3046.34899992845,response,-1.0679712388489528,1.1730122337571476,-1.15,-1.0509600192807842,1.0999999999999999,-1.15,low,low,,ISIC_0010789.JPG,,ISIC_0015180.JPG,28,27,false,0.1,ll,keypress(f),0,true,651195.3999999762,651195.1999999285,648132.168,648140.7999999523,648148.851,651204.9,1,40,11,
sequence,flow.Sequence,8_10,2023-11-20T20:33:24.066Z,,,,,,,,,,,3046.34899992845,completion,,,,,,,low,low,,,,,,,false,,,,,true,651195.5,651195.1999999285,648132.168,648140.7999999523,648148.851,651204.9,1,40,,
trial,html.Screen,8_11_0,2023-11-20T20:33:31.314Z,,,,2,-0.0388181790775959,0.0049623405709465,,0.04,false,ll,7238.399999952293,response,-1.0665699221890637,1.1730122337571476,-0.976725874549859,-1.0106762707163983,1.0999999999999999,-0.976725874549859,low,low,,ISIC_0061880.JPG,,ISIC_1630301.JPG,28,36,false,0.1,hh,keypress(i),0,true,658443.5,658443.2999999523,651188.088,651195.6999999285,651204.9,658452.233,1,40,12,
sequence,flow.Sequence,8_11,2023-11-20T20:33:31.315Z,,,,,,,,,,,7238.399999952293,completion,,,,,,,low,low,,,,,,,false,,,,,true,658443.6999999285,658443.2999999523,651188.088,651195.6999999285,651204.9,658452.233,1,40,,
trial,html.Screen,8_12_0,2023-11-20T20:33:33.250Z,,,,2,-0.0388181790775959,0.0049623405709465,,0.04,true,ll,1926.7669999999925,response,-0.9575090175925351,1.1730122337571476,-1.026725874549859,-1.0307816252475666,1.0999999999999999,-1.026725874549859,low,low,,ISIC_0061880.JPG,,ISIC_1369273.JPG,28,42,false,0.1,ll,keypress(f),0,true,660379.0999999046,660379,658435.482,658443.7999999523,658452.233,660389.316,1,40,13,
sequence,flow.Sequence,8_12,2023-11-20T20:33:33.250Z,,,,,,,,,,,1926.7669999999925,completion,,,,,,,low,low,,,,,,,false,,,,,true,660379.1999999285,660379,658435.482,658443.7999999523,658452.233,660389.316,1,40,,
trial,html.Screen,8_13_0,2023-11-20T20:33:41.891Z,,,,2,0.0308384937406319,-0.0038396364323947,,0.04,true,hl,8630.983999952325,response,0.8828738626295417,1.1730122337571476,-1.026725874549859,-0.8288177599439582,1.0999999999999999,-1.026725874549859,high,low,,ISIC_0029825.JPG,,ISIC_0056041.JPG,28,25,false,0.3300000000000002,hl,keypress(j),0,true,669020.5999999046,669020.2999999523,660372.667,660379.2999999523,660389.316,669022.826,1,40,14,
sequence,flow.Sequence,8_13,2023-11-20T20:33:41.892Z,,,,,,,,,,,8630.983999952325,completion,,,,,,,high,low,,,,,,,false,,,,,true,669021,669020.2999999523,660372.667,660379.2999999523,660389.316,669022.826,1,40,,
trial,html.Screen,8_14_0,2023-11-20T20:33:47.706Z,,,,2,0.0044063257337227,0.0172548282859886,,0.04,false,hh,5812.273999904632,response,1.252716660627398,1.1730122337571476,-1.026725874549859,1.183977080937476,1.0999999999999999,-0.976725874549859,high,high,,ISIC_7413786.JPG,,ISIC_0034194.JPG,28,25,false,0.13,lh,keypress(e),0,true,674835.2999999523,674835.0999999046,669006.117,669021.0999999046,669022.826,674850.757,1,40,15,
sequence,flow.Sequence,8_14,2023-11-20T20:33:47.706Z,,,,,,,,,,,5812.273999904632,completion,,,,,,,high,high,,,,,,,false,,,,,true,674835.5,674835.0999999046,669006.117,669021.0999999046,669022.826,674850.757,1,40,,
trial,html.Screen,8_15_0,2023-11-20T20:33:55.107Z,,,,2,0.0220026381002083,-0.0170756452911772,,0.04,true,lh,7384.743000000017,response,-0.9662688541319592,1.1730122337571476,-1.026725874549859,0.929746784178986,1.0999999999999999,-0.976725874549859,low,high,,ISIC_5347806.JPG,,ISIC_0011077.JPG,28,25,false,0.2600000000000001,lh,keypress(e),0,true,682235.6999999285,682235.5,674834.144,674835.5,674850.757,682248.693,1,40,16,
sequence,flow.Sequence,8_15,2023-11-20T20:33:55.107Z,,,,,,,,,,,7384.743000000017,completion,,,,,,,low,high,,,,,,,false,,,,,true,682236,682235.5,674834.144,674835.5,674850.757,682248.693,1,40,,
trial,html.Screen,8_16_0,2023-11-20T20:34:11.101Z,,,,2,-0.0164027439304477,0.0082910758715273,,0.04,,,16014.280000000028,timeout,-1.0665699221890637,1.1730122337571476,-0.976725874549859,-1.0106762707163983,1.0068619325582309,-0.976725874549859,low,low,,ISIC_7381224.JPG,,ISIC_1630301.JPG,28,36,false,0.1,,,0,true,698229.7999999523,698229.6999999285,682231.742,682236,682248.693,698262.973,1,40,17,
sequence,flow.Sequence,8_16,2023-11-20T20:34:11.101Z,,,,,,,,,,,15981.006999928504,completion,,,,,,,low,low,,,,,,,false,,,,,true,698230,698229.6999999285,682231.742,682236,682248.693,698262.973,1,40,,
trial,html.Screen,8_17_0,2023-11-20T20:34:17.218Z,,,,2,-0.0109416414475118,-0.005246498750811,,0.04,false,lh,6084.027000000002,response,-0.8067116931297591,1.1730122337571476,-0.976725874549859,1.215898074058027,1.0068619325582309,-0.976725874549859,low,high,,ISIC_0064279.JPG,,ISIC_1457687.JPG,28,25,false,0.22000000000000008,hh,keypress(i),0,true,704347.2999999523,704347,698246.252,698230.0999999046,698262.973,704358.162,1,40,18,
sequence,flow.Sequence,8_17,2023-11-20T20:34:17.219Z,,,,,,,,,,,6084.027000000002,completion,,,,,,,low,high,,,,,,,false,,,,,true,704347.5999999046,704347,698246.252,698230.0999999046,698262.973,704358.162,1,40,,
trial,html.Screen,8_18_0,2023-11-20T20:34:21.602Z,,,,2,-0.0198696495649504,0.0387952353063878,,0.04,false,hl,4372.737999976147,response,1.0369885917487718,1.1730122337571476,-1.026725874549859,-0.8486937878412699,1.0068619325582309,-0.976725874549859,high,low,,ISIC_6735970.JPG,,ISIC_6917681.JPG,28,26,false,0.31000000000000016,hh,keypress(i),0,true,708731,708730.8999999762,704341.492,704347.5999999046,704358.162,708733.342,1,40,19,
sequence,flow.Sequence,8_18,2023-11-20T20:34:21.602Z,,,,,,,,,,,4372.737999976147,completion,,,,,,,high,low,,,,,,,false,,,,,true,708731.0999999046,708730.8999999762,704341.492,704347.5999999046,704358.162,708733.342,1,40,,
trial,html.Screen,8_19_0,2023-11-20T20:34:24.115Z,,,,2,-0.0388334549081915,0.0303399972963369,,0.04,true,ll,2510.057999976212,response,-0.944391889009556,1.1730122337571476,-1.026725874549859,-1.0361692964751965,1.0068619325582309,-1.026725874549859,low,low,,ISIC_4961708.JPG,,ISIC_0058676.JPG,28,42,false,0.1,ll,keypress(f),0,true,711243.5,711243.3999999762,708716.82,708731.2999999523,708733.342,711254.935,1,40,20,
sequence,flow.Sequence,8_19,2023-11-20T20:34:24.115Z,,,,,,,,,,,2510.057999976212,completion,,,,,,,low,low,,,,,,,false,,,,,true,711243.7999999523,711243.3999999762,708716.82,708731.1999999285,708733.342,711254.935,1,40,,
trial,html.Screen,8_20_0,2023-11-20T20:34:28.523Z,,,,2,0.0258224118104549,-0.0029364553353019,,0.04,true,ll,4396.36499995226,response,-1.082709423673037,1.1730122337571476,-1.026725874549859,-1.1184338818466155,1.0068619325582309,-1.026725874549859,low,low,,ISIC_8325226.JPG,,ISIC_0058666.JPG,28,42,false,0.1,ll,keypress(f),0,true,715651.5,715651.2999999523,711238.421,711244,711254.935,715663.482,1,40,21,
sequence,flow.Sequence,8_20,2023-11-20T20:34:28.523Z,,,,,,,,,,,4396.36499995226,completion,,,,,,,low,low,,,,,,,false,,,,,true,715651.6999999285,715651.2999999523,711238.421,711243.8999999762,711254.935,715663.482,1,40,,
trial,html.Screen,8_21_0,2023-11-20T20:34:35.363Z,,,,2,0.0119001144851157,-0.0063430114540141,,0.04,false,hl,6828.2179999285145,response,0.8719231363109603,1.1730122337571476,-1.027301589160906,-0.7704280220140033,1.0068619325582309,-1.027301589160906,high,low,,ISIC_0003822.JPG,,ISIC_0029453.JPG,28,25,false,0.3300000000000002,ll,keypress(f),0,true,722492,722491.6999999285,715646.753,715651.7999999523,715663.482,722510.577,1,40,22,
sequence,flow.Sequence,8_21,2023-11-20T20:34:35.363Z,,,,,,,,,,,6828.2179999285145,completion,,,,,,,high,low,,,,,,,false,,,,,true,722492.2999999523,722491.6999999285,715646.753,715651.7999999523,715663.482,722510.577,1,40,,
trial,html.Screen,8_22_0,2023-11-20T20:34:42.203Z,,,,2,-0.0088741920055285,-0.0058246074740588,,0.04,false,hl,6821.022999904584,response,0.8828738626295417,1.1730122337571476,-1.027301589160906,-0.8288177599439582,1.0068619325582309,-1.027301589160906,high,low,,ISIC_4136663.JPG,,ISIC_0056041.JPG,28,25,false,0.3300000000000002,lh,keypress(e),0,true,729331.7999999523,729331.5999999046,722476.794,722492.3999999762,722510.577,729340.086,1,40,23,
sequence,flow.Sequence,8_22,2023-11-20T20:34:42.203Z,,,,,,,,,,,6821.022999904584,completion,,,,,,,high,low,,,,,,,false,,,,,true,729332,729331.5999999046,722476.794,722492.3999999762,722510.577,729340.086,1,40,,
trial,html.Screen,8_23_0,2023-11-20T20:34:53.619Z,,,,2,-0.0065172941585523,0.0118857043117315,,0.04,false,lh,11407.213999952306,response,-0.8307508446051526,1.1730122337571476,-1.027301589160906,1.1707575338936729,1.0068619325582309,-1.0773015891609061,low,high,,ISIC_6119202.JPG,,ISIC_0028606.JPG,28,28,false,0.2400000000000001,hh,keypress(i),0,true,740747.3999999762,740747.2999999523,729323.552,729332.0999999046,729340.086,740762.32,1,40,24,
sequence,flow.Sequence,8_23,2023-11-20T20:34:53.619Z,,,,,,,,,,,11407.213999952306,completion,,,,,,,low,high,,,,,,,false,,,,,true,740747.6999999285,740747.2999999523,729323.552,729332.0999999046,729340.086,740762.32,1,40,,
trial,html.Screen,8_24_0,2023-11-20T20:35:00.058Z,,,,2,0.0308384937406319,-0.0038396364323947,,0.04,false,hh,6424.279999904684,response,1.2814186888670185,1.1730122337571476,-1.0773015891609061,0.8765393465827035,0.9568619325582308,-1.0773015891609061,high,high,,ISIC_0029825.JPG,,ISIC_9260499.JPG,28,30,false,0.13,lh,keypress(e),0,true,747186.6999999285,747186.5999999046,740745.492,740747.6999999285,740762.32,747191.468,1,40,25,
sequence,flow.Sequence,8_24,2023-11-20T20:35:00.058Z,,,,,,,,,,,6424.279999904684,completion,,,,,,,high,high,,,,,,,false,,,,,true,747186.7999999523,747186.5999999046,740745.492,740747.6999999285,740762.32,747191.468,1,40,,
trial,html.Screen,8_25_0,2023-11-20T20:35:05.827Z,,,,2,-0.0388334549081915,0.0303399972963369,,0.04,false,ll,5764.5320000000065,response,-1.0437879361189135,1.1730122337571476,-1.0773015891609061,-1.0467954238943018,0.9568619325582308,-1.0773015891609061,low,low,,ISIC_4961708.JPG,,ISIC_0011626.JPG,28,35,false,0.1,hl,keypress(j),0,true,752956.1999999285,752956,747174.864,747186.8999999762,747191.468,752969.428,1,40,26,
sequence,flow.Sequence,8_25,2023-11-20T20:35:05.828Z,,,,,,,,,,,5764.5320000000065,completion,,,,,,,low,low,,,,,,,false,,,,,true,752956.5999999046,752956,747174.864,747186.7999999523,747191.468,752969.428,1,40,,
trial,html.Screen,8_26_0,2023-11-20T20:35:14.508Z,,,,2,0.0044063257337227,0.0172548282859886,,0.04,false,lh,8666.471999976202,response,-1.0099417584598938,1.1730122337571476,-1.1273015891609062,0.6898515052486707,0.9568619325582308,-1.0773015891609061,low,high,,ISIC_7413786.JPG,,ISIC_8929288.JPG,28,25,false,0.27000000000000013,hh,keypress(i),0,true,761636.0999999046,761635.8999999762,752952.89,752956.7999999523,752969.428,761652.938,1,40,27,
sequence,flow.Sequence,8_26,2023-11-20T20:35:14.508Z,,,,,,,,,,,8666.471999976202,completion,,,,,,,low,high,,,,,,,false,,,,,true,761636.5,761635.8999999762,752952.89,752956.6999999285,752969.428,761652.938,1,40,,
trial,html.Screen,8_27_0,2023-11-20T20:35:20.451Z,,,,2,-0.0198696495649504,0.0387952353063878,,0.04,true,ll,5926.161999904667,response,-1.1103777034815996,1.1730122337571476,-1.1773015891609062,-1.018282939602391,0.9068619325582308,-1.0773015891609061,low,low,,ISIC_6735970.JPG,,ISIC_3094758.JPG,28,25,false,0.11,ll,keypress(f),0,true,767579.2999999523,767579.0999999046,761636.367,761636.5999999046,761652.938,767581.111,1,40,28,
sequence,flow.Sequence,8_27,2023-11-20T20:35:20.451Z,,,,,,,,,,,5926.161999904667,completion,,,,,,,low,low,,,,,,,false,,,,,true,767579.3999999762,767579.0999999046,761636.367,761636.5999999046,761652.938,767581.111,1,40,,
trial,html.Screen,8_28_0,2023-11-20T20:35:28.395Z,,,,2,0.0283578106329894,-0.0088840758711548,,0.04,true,hh,7941.688999952283,response,1.135180301076722,1.1730122337571476,-1.1773015891609062,0.8279199409322678,0.9068619325582308,-1.0143303215419952,high,high,,ISIC_0060707.JPG,,ISIC_8637134.JPG,28,27,false,0.11,hh,keypress(i),0,true,775523,775522.7999999523,767564.56,767579.5,767581.111,775529.909,1,40,29,
sequence,flow.Sequence,8_28,2023-11-20T20:35:28.395Z,,,,,,,,,,,7941.688999952283,completion,,,,,,,high,high,,,,,,,false,,,,,true,775523.0999999046,775522.7999999523,767564.56,767579.3999999762,767581.111,775529.909,1,40,,
trial,html.Screen,8_29_0,2023-11-20T20:35:37.866Z,,,,2,-0.0088741920055285,-0.0058246074740588,,0.04,false,hh,9464.79099992849,response,1.2608096600867198,1.1730122337571476,-1.1773015891609062,0.806779532079123,0.9068619325582308,-1.0143303215419952,high,high,,ISIC_4136663.JPG,,ISIC_4114269.JPG,28,27,false,0.11,lh,keypress(e),0,true,784994.7999999523,784994.6999999285,775513.275,775523.1999999285,775529.909,784998.323,1,40,30,
sequence,flow.Sequence,8_29,2023-11-20T20:35:37.866Z,,,,,,,,,,,9464.79099992849,completion,,,,,,,high,high,,,,,,,false,,,,,true,784994.7999999523,784994.6999999285,775513.275,775523.1999999285,775529.909,784998.323,1,40,,
trial,html.Screen,8_30_0,2023-11-20T20:35:46.267Z,,,,2,-0.0199950873045219,-0.0172506388509166,,0.04,false,hl,8396.8769999285,response,0.8828738626295417,1.1730122337571476,-1.1773015891609062,-0.8288177599439582,0.7673497365056954,-1.0143303215419952,high,low,,ISIC_0029906.JPG,,ISIC_0056041.JPG,28,26,false,0.3300000000000002,ll,keypress(f),0,true,793395.2999999523,793395.1999999285,784981.777,784994.8999999762,784998.323,793398.015,1,40,31,
sequence,flow.Sequence,8_30,2023-11-20T20:35:46.267Z,,,,,,,,,,,8396.8769999285,completion,,,,,,,high,low,,,,,,,false,,,,,true,793395.5999999046,793395.1999999285,784981.777,784994.8999999762,784998.323,793398.015,1,40,,
trial,html.Screen,8_31_0,2023-11-20T20:35:56.035Z,,,,2,-0.0065172941585523,0.0118857043117315,,0.04,false,hh,9764.984999999986,response,1.090663233695186,1.1730122337571476,-1.1773015891609062,0.832189069975425,0.7673497365056954,-1.0143303215419952,high,high,,ISIC_6119202.JPG,,ISIC_0057344.JPG,28,25,false,0.1,hl,keypress(j),0,true,803163.0999999046,803163,793381.352,793395.6999999285,793398.015,803166.986,1,40,32,
sequence,flow.Sequence,8_31,2023-11-20T20:35:56.035Z,,,,,,,,,,,9764.984999999986,completion,,,,,,,high,high,,,,,,,false,,,,,true,803163.1999999285,803163,793381.352,793395.6999999285,793398.015,803166.986,1,40,,
trial,html.Screen,8_32_0,2023-11-20T20:36:06.267Z,,,,2,-0.0109416414475118,-0.005246498750811,,0.04,false,ll,10228.313999952283,response,-1.2021403809644975,1.1730122337571476,-1.1773015891609062,-0.9240154278810436,0.8173497365056954,-1.0143303215419952,low,low,,ISIC_0064279.JPG,,ISIC_0011757.JPG,28,28,false,0.11,lh,keypress(e),0,true,813395.3999999762,813395.2999999523,803150.332,803163.1999999285,803166.986,813403.593,1,40,33,
sequence,flow.Sequence,8_32,2023-11-20T20:36:06.267Z,,,,,,,,,,,10228.313999952283,completion,,,,,,,low,low,,,,,,,false,,,,,true,813395.5999999046,813395.2999999523,803150.332,803163.1999999285,803166.986,813403.593,1,40,,
trial,html.Screen,8_33_0,2023-11-20T20:36:13.859Z,,,,2,0.0257631352671967,0.0202837002774028,,0.04,false,ll,7583.106999928481,response,-1.0887084502656488,1.1730122337571476,-1.1273015891609062,-1.0539327766106836,0.8173497365056954,-1.0643303215419953,low,low,,ISIC_0032797.JPG,,ISIC_0030417.JPG,28,33,false,0.1,lh,keypress(e),0,true,820986.8999999762,820986.6999999285,813386.799,813395.6999999285,813403.593,821001.686,1,40,34,
sequence,flow.Sequence,8_33,2023-11-20T20:36:13.859Z,,,,,,,,,,,7583.106999928481,completion,,,,,,,low,low,,,,,,,false,,,,,true,820987,820986.6999999285,813386.799,813395.6999999285,813403.593,821001.686,1,40,,
trial,html.Screen,8_34_0,2023-11-20T20:36:19.868Z,,,,2,-0.0199950873045219,-0.0172506388509166,,0.04,false,lh,5994.0139999284875,response,-1.0685314915436992,1.1730122337571476,-1.1273015891609062,0.8203833713472237,0.8173497365056954,-1.1143303215419953,low,high,,ISIC_0029906.JPG,,ISIC_0029374.JPG,28,28,false,0.22000000000000008,hh,keypress(i),0,true,826995.8999999762,826995.6999999285,820985.074,820987,821001.686,827013.387,1,40,35,
sequence,flow.Sequence,8_34,2023-11-20T20:36:19.868Z,,,,,,,,,,,5994.0139999284875,completion,,,,,,,low,high,,,,,,,false,,,,,true,826996.2999999523,826995.6999999285,820985.074,820987,821001.686,827013.387,1,40,,
trial,html.Screen,8_35_0,2023-11-20T20:36:26.226Z,,,,2,0,-0.0102871556606504,,0.04,true,lh,6341.113000000012,response,-1.2646773654288392,1.1730122337571476,-1.1773015891609062,0.952963803634235,0.8173497365056954,-1.1143303215419953,low,high,,ISIC_1805163.JPG,,ISIC_1996356.JPG,28,26,false,0.2500000000000001,lh,keypress(e),0,true,833354.5999999046,833354.5,826996.584,826996.5,827013.387,833359.046,1,40,36,
sequence,flow.Sequence,8_35,2023-11-20T20:36:26.227Z,,,,,,,,,,,6341.113000000012,completion,,,,,,,low,high,,,,,,,false,,,,,true,833354.6999999285,833354.5,826996.584,826996.3999999762,827013.387,833359.046,1,40,,
trial,html.Screen,8_36_0,2023-11-20T20:36:31.242Z,,,,2,0.0257631352671967,0.0202837002774028,,0.04,true,lh,5011.454000000027,response,-1.2646773654288392,1.1730122337571476,-1.1773015891609062,0.952963803634235,0.7673497365056954,-1.1143303215419953,low,high,,ISIC_0032797.JPG,,ISIC_1996356.JPG,28,27,false,0.2400000000000001,lh,keypress(e),0,true,838370.5,838370.5,833342.366,833354.7999999523,833359.046,838385.473,1,40,37,
sequence,flow.Sequence,8_36,2023-11-20T20:36:31.243Z,,,,,,,,,,,5011.454000000027,completion,,,,,,,low,high,,,,,,,false,,,,,true,838370.6999999285,838370.5,833342.366,833354.6999999285,833359.046,838385.473,1,40,,
trial,html.Screen,8_37_0,2023-11-20T20:36:35.723Z,,,,2,-0.0065172941585523,0.0118857043117315,,0.04,false,hl,4465.226999928476,response,1.199471562817528,1.1730122337571476,-1.1273015891609062,-0.8631260534979347,0.7673497365056954,-1.1143303215419953,high,low,,ISIC_6119202.JPG,,ISIC_0030754.JPG,28,28,false,0.39000000000000024,ll,keypress(f),0,true,842850.7999999523,842850.6999999285,838368.738,838370.6999999285,838385.473,842860.832,1,40,38,
sequence,flow.Sequence,8_37,2023-11-20T20:36:35.723Z,,,,,,,,,,,4465.226999928476,completion,,,,,,,high,low,,,,,,,false,,,,,true,842850.8999999762,842850.6999999285,838368.738,838370.6999999285,838385.473,842860.832,1,40,,
trial,html.Screen,8_38_0,2023-11-20T20:36:42.554Z,,,,2,0.0367706518941078,-0.0161069838272154,,0.04,false,hh,6821.667999999947,response,1.0828565020249128,1.1730122337571476,-1.1273015891609062,0.7576926748805504,0.7673497365056954,-1.1143303215419953,high,high,,ISIC_0033419.JPG,,ISIC_3105924.JPG,28,25,false,0.1,hl,keypress(j),0,true,849682.5999999046,849682.5,842844.135,842851,842860.832,849690.787,1,40,39,
sequence,flow.Sequence,8_38,2023-11-20T20:36:42.555Z,,,,,,,,,,,6821.667999999947,completion,,,,,,,high,high,,,,,,,false,,,,,true,849682.7999999523,849682.5,842844.135,842851,842860.832,849690.787,1,40,,
trial,html.Screen,8_39_0,2023-11-20T20:36:50.010Z,,,,2,0.0258224118104549,-0.0029364553353019,,0.04,false,lh,7447.712999999989,response,-1.0153439398566937,1.1730122337571476,-1.1273015891609062,0.93001438372942,0.8173497365056954,-1.1143303215419953,low,high,,ISIC_8325226.JPG,,ISIC_8211214.JPG,28,28,false,0.22000000000000008,hh,keypress(i),0,true,857138.5,857138.5,849674.041,849682.7999999523,849690.787,857155.346,1,40,40,
sequence,flow.Sequence,8_39,2023-11-20T20:36:50.011Z,,,,,,,,,,,7447.712999999989,completion,,,,,,,low,high,,,,,,,false,,,,,true,857138.5999999046,857138.5,849674.041,849682.7999999523,849690.787,857155.346,1,40,,
stair_loop,flow.Loop,8,2023-11-20T20:36:50.011Z,,,,,,,,,,,277623.137,completion,,,,,,,,,,,,,,,false,,,,,true,857138.6999999285,857138.5,579498.764,579507.1999999285,579515.363,857155.346,1,40,,
exp_instructions,html.Screen,9,2023-11-20T20:37:07.202Z,,,,,,,,,,,17174.753999904613,response,,,,,,,,,,,,,,,,,continue,keypress(Space),,,874330.3999999762,874330.0999999046,857138.55,857138.6999999285,857155.346,874338.722,,,,
trial,html.Screen,10_0_0,2023-11-20T20:37:14.614Z,,,,1,0.0119001144851157,-0.0063430114540141,,0.04,true,lh,7402.778000000049,response,-0.9145057080927842,1.1730122337571478,-1.1222728034303542,0.657848806080734,0.8771058345319629,-1.0644900428590074,low,high,,ISIC_0003822.JPG,9,ISIC_0014308.JPG,28,28,false,0.2300000000000001,lh,keypress(e),0,false,881741.5999999046,881741.5,874321.9,874330.3999999762,874338.722,881753.147,5,600,1,
break,html.Screen,10_0_1,2023-11-20T20:37:14.614Z,,,,,,,,,,,NaN,,,,,,,,low,high,,,,,,,false,,,,,false,881742.0999999046,881742.0999999046,,881741.7999999523,,881753.147,5,600,,
break_continue,html.Screen,10_0_2,2023-11-20T20:37:14.615Z,,,,,,,,,,,NaN,,,,,,,,low,high,,,,,,,false,,,,,false,881742.3999999762,881742.2999999523,,881742.1999999285,,881753.147,5,600,,
sequence,flow.Sequence,10_0,2023-11-20T20:37:14.615Z,,,,,,,,,,,7403.577999952366,completion,,,,,,,low,high,,,,,,,false,,,,,false,881742.5,881742.2999999523,874321.9,874330.3999999762,874338.722,881753.147,5,600,,
trial,html.Screen,10_1_0,2023-11-20T20:37:20.747Z,,,,1,-0.0198696495649504,0.0387952353063878,,0.04,false,hl,6121.353000000003,response,1.1711869602302662,1.1730122337571478,-1.1222728034303542,-0.7434626355969514,0.8771058345319629,-1.0644900428590074,high,low,,ISIC_6735970.JPG,9,ISIC_0059052.JPG,28,25,false,0.3600000000000002,ll,keypress(f),0,false,887874.5999999046,887874.5,881736.388,881742.6999999285,881753.147,887881.732,5,600,2,
break,html.Screen,10_1_1,2023-11-20T20:37:20.747Z,,,,,,,,,,,NaN,,,,,,,,high,low,,,,,,,false,,,,,false,887875,887874.8999999762,,887874.6999999285,,887881.732,5,600,,
break_continue,html.Screen,10_1_2,2023-11-20T20:37:20.747Z,,,,,,,,,,,NaN,,,,,,,,high,low,,,,,,,false,,,,,false,887875.2999999523,887875.0999999046,,887875.0999999046,,887881.732,5,600,,
sequence,flow.Sequence,10_1,2023-11-20T20:37:20.748Z,,,,,,,,,,,6121.952999904635,completion,,,,,,,high,low,,,,,,,false,,,,,false,887875.2999999523,887875.0999999046,881736.388,881742.5999999046,881753.147,887881.732,5,600,,
trial,html.Screen,10_2_0,2023-11-20T20:37:27.627Z,,,,1,0.0257631352671967,0.0202837002774028,,0.04,false,hh,6872.667999976198,response,1.086808687078377,1.1730122337571478,-1.1222728034303542,0.8881204850517516,0.8771058345319629,-1.0644900428590074,high,high,,ISIC_0032797.JPG,9,ISIC_4014307.JPG,28,27,false,0.12,hl,keypress(j),0,false,894754.5,894754.3999999762,887865.008,887875.3999999762,887881.732,894761.809,5,600,3,
break,html.Screen,10_2_1,2023-11-20T20:37:27.627Z,,,,,,,,,,,NaN,,,,,,,,high,high,,,,,,,false,,,,,false,894754.7999999523,894754.7999999523,,894754.5999999046,,894761.809,5,600,,
break_continue,html.Screen,10_2_2,2023-11-20T20:37:27.627Z,,,,,,,,,,,NaN,,,,,,,,high,high,,,,,,,false,,,,,false,894755,894754.8999999762,,894754.8999999762,,894761.809,5,600,,
sequence,flow.Sequence,10_2,2023-11-20T20:37:27.627Z,,,,,,,,,,,6873.167999976198,completion,,,,,,,high,high,,,,,,,false,,,,,false,894755.1999999285,894754.8999999762,887865.008,887875.3999999762,887881.732,894761.809,5,600,,
trial,html.Screen,10_3_0,2023-11-20T20:37:33.427Z,,,,1,-0.0388181790775959,0.0049623405709465,,0.04,true,hh,5792.59099997615,response,1.2814186888670185,1.1730122337571478,-1.1222728034303542,0.8765393465827035,0.8771058345319629,-1.0644900428590074,high,high,,ISIC_0061880.JPG,9,ISIC_9260499.JPG,28,27,false,0.12,hh,keypress(i),0,false,900554.5,900554.3999999762,894745.053,894755.1999999285,894761.809,900556.375,5,600,4,
break,html.Screen,10_3_1,2023-11-20T20:37:33.427Z,,,,,,,,,,,NaN,,,,,,,,high,high,,,,,,,false,,,,,false,900554.8999999762,900554.7999999523,,900554.5999999046,,900556.375,5,600,,
break_continue,html.Screen,10_3_2,2023-11-20T20:37:33.427Z,,,,,,,,,,,NaN,,,,,,,,high,high,,,,,,,false,,,,,false,900555,900554.8999999762,,900554.8999999762,,900556.375,5,600,,
sequence,flow.Sequence,10_3,2023-11-20T20:37:33.427Z,,,,,,,,,,,5793.09099997615,completion,,,,,,,high,high,,,,,,,false,,,,,false,900555.1999999285,900554.8999999762,894745.053,894755.1999999285,894761.809,900556.375,5,600,,
trial,html.Screen,10_4_0,2023-11-20T20:37:41.371Z,,,,1,-0.0198696495649504,0.0387952353063878,,0.04,false,hl,7942.024999976158,response,1.2499674737468107,1.1730122337571478,-1.1222728034303542,-0.7169661572441197,0.8771058345319629,-1.0644900428590074,high,low,,ISIC_6735970.JPG,9,ISIC_0013617.JPG,28,25,false,0.3600000000000002,ll,keypress(f),0,false,908498.5,908498.3999999762,900539.679,900555.1999999285,900556.375,908505.182,5,600,5,
break,html.Screen,10_4_1,2023-11-20T20:37:41.371Z,,,,,,,,,,,NaN,,,,,,,,high,low,,,,,,,false,,,,,false,908498.7999999523,908498.6999999285,,908498.5999999046,,908505.182,5,600,,
break_continue,html.Screen,10_4_2,2023-11-20T20:37:41.371Z,,,,,,,,,,,NaN,,,,,,,,high,low,,,,,,,false,,,,,false,908499,908498.8999999762,,908498.7999999523,,908505.182,5,600,,
sequence,flow.Sequence,10_4,2023-11-20T20:37:41.371Z,,,,,,,,,,,7942.524999976158,completion,,,,,,,high,low,,,,,,,false,,,,,false,908499.0999999046,908498.8999999762,900539.679,900555.1999999285,900556.375,908505.182,5,600,,
trial,html.Screen,10_5_0,2023-11-20T20:37:49.187Z,,,,1,-0.0088741920055285,-0.0058246074740588,,0.04,true,hl,7809.31799999997,response,0.9237241143561707,1.1730122337571478,-1.1222728034303542,-0.7102087839245512,0.8771058345319629,-1.0644900428590074,high,low,,ISIC_4136663.JPG,9,ISIC_0058661.JPG,28,25,false,0.3600000000000002,hl,keypress(j),0,false,916314.5999999046,916314.5,908488.44,908499.0999999046,908505.182,916320.369,5,600,6,
break,html.Screen,10_5_1,2023-11-20T20:37:49.187Z,,,,,,,,,,,NaN,,,,,,,,high,low,,,,,,,false,,,,,false,916314.7999999523,916314.7999999523,,916314.6999999285,,916320.369,5,600,,
break_continue,html.Screen,10_5_2,2023-11-20T20:37:49.187Z,,,,,,,,,,,NaN,,,,,,,,high,low,,,,,,,false,,,,,false,916315,916315,,916314.8999999762,,916320.369,5,600,,
sequence,flow.Sequence,10_5,2023-11-20T20:37:49.187Z,,,,,,,,,,,7809.81799999997,completion,,,,,,,high,low,,,,,,,false,,,,,false,916315.0999999046,916315,908488.44,908499.0999999046,908505.182,916320.369,5,600,,
trial,html.Screen,10_6_0,2023-11-20T20:37:52.595Z,,,,1,-0.0199950873045219,-0.0172506388509166,,0.04,true,ll,3401.9309999523684,response,-1.1103777034815996,1.1730122337571478,-1.1222728034303542,-1.018282939602391,0.8771058345319629,-1.0644900428590074,low,low,,ISIC_0029906.JPG,9,ISIC_3094758.JPG,28,33,false,0.1,ll,keypress(f),0,false,919722.5,919722.2999999523,916303.621,916315.0999999046,916320.369,919726.996,5,600,7,
break,html.Screen,10_6_1,2023-11-20T20:37:52.595Z,,,,,,,,,,,NaN,,,,,,,,low,low,,,,,,,false,,,,,false,919722.6999999285,919722.6999999285,,919722.5999999046,,919726.996,5,600,,
break_continue,html.Screen,10_6_2,2023-11-20T20:37:52.595Z,,,,,,,,,,,NaN,,,,,,,,low,low,,,,,,,false,,,,,false,919722.8999999762,919722.8999999762,,919722.7999999523,,919726.996,5,600,,
sequence,flow.Sequence,10_6,2023-11-20T20:37:52.595Z,,,,,,,,,,,3402.5309999762103,completion,,,,,,,low,low,,,,,,,false,,,,,false,919723,919722.8999999762,916303.621,916315.0999999046,916320.369,919726.996,5,600,,
trial,html.Screen,10_7_0,2023-11-20T20:37:58.123Z,,,,1,0.0200295718112167,0.0155559071275806,,0.04,true,lh,5523.303999952273,response,-0.8987343013179191,1.1730122337571478,-1.1222728034303542,0.8149073454566363,0.8771058345319629,-1.0644900428590074,low,high,,ISIC_0061343.JPG,10,ISIC_0472513.JPG,28,28,false,0.2300000000000001,lh,keypress(e),0,false,925250.3999999762,925250.2999999523,919710.309,919723.0999999046,919726.996,925254.438,5,600,8,
break,html.Screen,10_7_1,2023-11-20T20:37:58.123Z,,,,,,,,,,,NaN,,,,,,,,low,high,,,,,,,false,,,,,false,925250.7999999523,925250.6999999285,,925250.5,,925254.438,5,600,,
break_continue,html.Screen,10_7_2,2023-11-20T20:37:58.123Z,,,,,,,,,,,NaN,,,,,,,,low,high,,,,,,,false,,,,,false,925251,925250.8999999762,,925250.7999999523,,925254.438,5,600,,
sequence,flow.Sequence,10_7,2023-11-20T20:37:58.123Z,,,,,,,,,,,5523.903999976115,completion,,,,,,,low,high,,,,,,,false,,,,,false,925251,925250.8999999762,919710.309,919723.0999999046,919726.996,925254.438,5,600,,
trial,html.Screen,10_8_0,2023-11-20T20:38:08.379Z,,,,1,0.0257631352671967,0.0202837002774028,,0.04,false,lh,10252.062000000034,response,-0.9321091908076364,1.1730122337571478,-1.1222728034303542,0.6555598709090513,0.8771058345319629,-1.0644900428590074,low,high,,ISIC_0032797.JPG,9,ISIC_0160831.JPG,28,28,false,0.2300000000000001,hh,keypress(i),0,false,935506.5999999046,935506.5,925237.693,925251.0999999046,925254.438,935524.81,5,600,9,
break,html.Screen,10_8_1,2023-11-20T20:38:08.379Z,,,,,,,,,,,NaN,,,,,,,,low,high,,,,,,,false,,,,,false,935506.8999999762,935506.6999999285,,935506.5999999046,,935524.81,5,600,,
break_continue,html.Screen,10_8_2,2023-11-20T20:38:08.379Z,,,,,,,,,,,NaN,,,,,,,,low,high,,,,,,,false,,,,,false,935507.0999999046,935507,,935506.8999999762,,935524.81,5,600,,
sequence,flow.Sequence,10_8,2023-11-20T20:38:08.379Z,,,,,,,,,,,10252.562000000034,completion,,,,,,,low,high,,,,,,,false,,,,,false,935507.1999999285,935507,925237.693,925251.0999999046,925254.438,935524.81,5,600,,
trial,html.Screen,10_9_0,2023-11-20T20:38:16.492Z,,,,1,0.0200295718112167,0.0155559071275806,,0.04,false,lh,8094.089999976102,response,-0.9145057080927842,1.1730122337571478,-1.1222728034303542,0.657848806080734,0.8771058345319629,-1.0644900428590074,low,high,,ISIC_0061343.JPG,10,ISIC_0014308.JPG,28,28,false,0.2300000000000001,hh,keypress(i),0,false,943619.0999999046,943618.8999999762,935490.994,935507.1999999285,935524.81,943623.512,5,600,10,
break,html.Screen,10_9_1,2023-11-20T20:38:16.492Z,,,,,,,,,,,NaN,,,,,,,,low,high,,,,,,,false,,,,,false,943619.5999999046,943619.5,,943619.1999999285,,943623.512,5,600,,
break_continue,html.Screen,10_9_2,2023-11-20T20:38:16.493Z,,,,,,,,,,,NaN,,,,,,,,low,high,,,,,,,false,,,,,false,943620.0999999046,943619.8999999762,,943619.7999999523,,943623.512,5,600,,
sequence,flow.Sequence,10_9,2023-11-20T20:38:16.493Z,,,,,,,,,,,8095.089999976102,completion,,,,,,,low,high,,,,,,,false,,,,,false,943620.2999999523,943619.8999999762,935490.994,935507.1999999285,935524.81,943623.512,5,600,,
trial,html.Screen,10_10_0,2023-11-20T20:38:22.515Z,,,,1,0.0200295718112167,0.0155559071275806,,0.04,true,lh,6019.287999952328,response,-0.9145057080927842,1.1730122337571478,-1.1222728034303542,0.657848806080734,0.8771058345319629,-1.0644900428590074,low,high,,ISIC_0061343.JPG,9,ISIC_0014308.JPG,28,28,false,0.2300000000000001,lh,keypress(e),0,false,949643,949642.7999999523,943606.709,943620.3999999762,943623.512,949651.904,5,600,11,
break,html.Screen,10_10_1,2023-11-20T20:38:22.516Z,,,,,,,,,,,NaN,,,,,,,,low,high,,,,,,,false,,,,,false,949643.3999999762,949643.2999999523,,949643.0999999046,,949651.904,5,600,,
break_continue,html.Screen,10_10_2,2023-11-20T20:38:22.516Z,,,,,,,,,,,NaN,,,,,,,,low,high,,,,,,,false,,,,,false,949643.7999999523,949643.6999999285,,949643.5999999046,,949651.904,5,600,,
sequence,flow.Sequence,10_10,2023-11-20T20:38:22.516Z,,,,,,,,,,,6020.1879999284865,completion,,,,,,,low,high,,,,,,,false,,,,,false,949644,949643.6999999285,943606.709,943620.2999999523,943623.512,949651.904,5,600,,
trial,html.Screen,10_11_0,2023-11-20T20:38:29.204Z,,,,1,0.0308384937406319,-0.0038396364323947,,0.04,false,hl,6678.995999976178,response,1.199471562817528,1.1730122337571478,-1.1222728034303542,-0.8631260534979347,0.8771058345319629,-1.0644900428590074,high,low,,ISIC_0029825.JPG,8,ISIC_0030754.JPG,28,25,false,0.3600000000000002,ll,keypress(f),0,false,956331,956330.8999999762,949635.318,949644,949651.904,956365.008,5,600,12,
break,html.Screen,10_11_1,2023-11-20T20:38:29.204Z,,,,,,,,,,,NaN,,,,,,,,high,low,,,,,,,false,,,,,false,956331.5,956331.3999999762,,956331.1999999285,,956365.008,5,600,,
break_continue,html.Screen,10_11_2,2023-11-20T20:38:29.204Z,,,,,,,,,,,NaN,,,,,,,,high,low,,,,,,,false,,,,,false,956331.6999999285,956331.5999999046,,956331.5,,956365.008,5,600,,
sequence,flow.Sequence,10_11,2023-11-20T20:38:29.204Z,,,,,,,,,,,6679.695999904652,completion,,,,,,,high,low,,,,,,,false,,,,,false,956331.7999999523,956331.5999999046,949635.318,949644,949651.904,956365.008,5,600,,
trial,html.Screen,10_12_0,2023-11-20T20:38:37.356Z,,,,1,-0.0065172941585523,0.0118857043117315,,0.04,false,ll,8118.691999928444,response,-1.048482877784125,1.1730122337571478,-1.1222728034303542,-1.0716857765902368,0.8771058345319629,-1.0644900428590074,low,low,,ISIC_6119202.JPG,10,ISIC_0063961.JPG,28,33,false,0.1,hl,keypress(j),0,false,964483.7999999523,964483.6999999285,956348.324,956331.7999999523,956365.008,964497.474,5,600,13,
break,html.Screen,10_12_1,2023-11-20T20:38:37.357Z,,,,,,,,,,,NaN,,,,,,,,low,low,,,,,,,false,,,,,false,964484.5999999046,964484.3999999762,,964484.1999999285,,964497.474,5,600,,
break_continue,html.Screen,10_12_2,2023-11-20T20:38:37.358Z,,,,,,,,,,,NaN,,,,,,,,low,low,,,,,,,false,,,,,false,964485.1999999285,964484.8999999762,,964484.7999999523,,964497.474,5,600,,
sequence,flow.Sequence,10_12,2023-11-20T20:38:37.358Z,,,,,,,,,,,8119.891999976127,completion,,,,,,,low,low,,,,,,,false,,,,,false,964485.3999999762,964484.8999999762,956348.324,956331.7999999523,956365.008,964497.474,5,600,,
trial,html.Screen,10_13_0,2023-11-20T20:38:42.563Z,,,,1,-0.0074667911845194,0.018500200317654,,0.04,false,hh,5193.325999952271,response,1.1756375305897409,1.1730122337571478,-1.1222728034303542,0.910735965353392,0.8771058345319629,-1.0644900428590074,high,high,,ISIC_0058723.JPG,8,ISIC_0005769.JPG,28,27,false,0.12,lh,keypress(e),0,false,969691,969690.7999999523,964480.906,964485.5999999046,964497.474,969707.528,5,600,14,
break,html.Screen,10_13_1,2023-11-20T20:38:42.564Z,,,,,,,,,,,NaN,,,,,,,,high,high,,,,,,,false,,,,,false,969691.1999999285,969691.0999999046,,969691,,969707.528,5,600,,
break_continue,html.Screen,10_13_2,2023-11-20T20:38:42.564Z,,,,,,,,,,,NaN,,,,,,,,high,high,,,,,,,false,,,,,false,969691.5,969691.2999999523,,969691.1999999285,,969707.528,5,600,,
sequence,flow.Sequence,10_13,2023-11-20T20:38:42.564Z,,,,,,,,,,,5193.825999952271,completion,,,,,,,high,high,,,,,,,false,,,,,false,969691.5,969691.2999999523,964480.906,964485.5,964497.474,969707.528,5,600,,
trial,html.Screen,10_14_0,2023-11-20T20:38:49.508Z,,,,1,-0.0374659946425444,-0.0086043094957617,,0.04,false,hl,6927.771999952267,response,0.8926515927689261,1.1730122337571478,-1.1222728034303542,-0.7935960767768927,0.8771058345319629,-1.0644900428590074,high,low,,ISIC_0033051.JPG,9,ISIC_8901371.JPG,28,25,false,0.3600000000000002,lh,keypress(e),0,false,976635.5999999046,976635.2999999523,969691.1,969691.5999999046,969707.528,976637.743,5,600,15,
break,html.Screen,10_14_1,2023-11-20T20:38:49.509Z,,,,,,,,,,,NaN,,,,,,,,high,low,,,,,,,false,,,,,false,976636.2999999523,976636.0999999046,,976635.7999999523,,976637.743,5,600,,
break_continue,html.Screen,10_14_2,2023-11-20T20:38:49.509Z,,,,,,,,,,,NaN,,,,,,,,high,low,,,,,,,false,,,,,false,976636.7999999523,976636.5999999046,,976636.3999999762,,976637.743,5,600,,
sequence,flow.Sequence,10_14,2023-11-20T20:38:49.509Z,,,,,,,,,,,6929.071999904583,completion,,,,,,,high,low,,,,,,,false,,,,,false,976636.8999999762,976636.5999999046,969691.1,969691.5999999046,969707.528,976637.743,5,600,,
trial,html.Screen,10_15_0,2023-11-20T20:38:56.595Z,,,,1,-0.0164027439304477,0.0082910758715273,,0.04,false,lh,7084.656999976141,response,-1.1850651468269413,1.1730122337571478,-1.1222728034303542,0.656667092342377,0.8771058345319629,-1.0644900428590074,low,high,,ISIC_7381224.JPG,9,ISIC_5751956.JPG,28,28,false,0.2300000000000001,ll,keypress(f),0,false,983722.5,983722.3999999762,976621.032,976637.0999999046,976637.743,983734.821,5,600,16,
break,html.Screen,10_15_1,2023-11-20T20:38:56.595Z,,,,,,,,,,,NaN,,,,,,,,low,high,,,,,,,false,,,,,false,983722.8999999762,983722.7999999523,,983722.5999999046,,983734.821,5,600,,
break_continue,html.Screen,10_15_2,2023-11-20T20:38:56.596Z,,,,,,,,,,,NaN,,,,,,,,low,high,,,,,,,false,,,,,false,983723,983722.8999999762,,983722.8999999762,,983734.821,5,600,,
sequence,flow.Sequence,10_15,2023-11-20T20:38:56.596Z,,,,,,,,,,,7085.156999976141,completion,,,,,,,low,high,,,,,,,false,,,,,false,983723.0999999046,983722.8999999762,976621.032,976637,976637.743,983734.821,5,600,,
trial,html.Screen,10_16_0,2023-11-20T20:39:02.525Z,,,,1,-0.039520186367207,-0.0377961575607372,,0.04,true,hl,5917.078999976162,response,0.9754077946987664,1.1730122337571478,-1.1222728034303542,-1.1821868813141057,0.8771058345319629,-1.0644900428590074,high,low,,ISIC_6356149.JPG,9,ISIC_0024317.JPG,28,25,false,0.3600000000000002,hl,keypress(j),0,false,989652.1999999285,989651.8999999762,983718.268,983723.0999999046,983734.821,989662.987,5,600,17,
break,html.Screen,10_16_1,2023-11-20T20:39:02.526Z,,,,,,,,,,,NaN,,,,,,,,high,low,,,,,,,false,,,,,false,989653.0999999046,989652.7999999523,,989652.5,,989662.987,5,600,,
break_continue,html.Screen,10_16_2,2023-11-20T20:39:02.526Z,,,,,,,,,,,NaN,,,,,,,,high,low,,,,,,,false,,,,,false,989653.6999999285,989653.3999999762,,989653.2999999523,,989662.987,5,600,,
sequence,flow.Sequence,10_16,2023-11-20T20:39:02.526Z,,,,,,,,,,,5918.578999976162,completion,,,,,,,high,low,,,,,,,false,,,,,false,989654,989653.3999999762,983718.268,983723.0999999046,983734.821,989662.987,5,600,,
trial,html.Screen,10_17_0,2023-11-20T20:39:13.268Z,,,,1,0.0044063257337227,0.0172548282859886,,0.04,false,hh,10731.812999952352,response,1.1850103722230376,1.1730122337571478,-1.1222728034303542,0.8836550297565611,0.8771058345319629,-1.0644900428590074,high,high,,ISIC_7413786.JPG,9,ISIC_9879347.JPG,28,27,false,0.12,lh,keypress(e),0,false,1000394.8999999762,1000394.7999999523,989646.312,989654.1999999285,989662.987,1000400.573,5,600,18,
break,html.Screen,10_17_1,2023-11-20T20:39:13.268Z,,,,,,,,,,,NaN,,,,,,,,high,high,,,,,,,false,,,,,false,1000395.1999999285,1000395.0999999046,,1000394.8999999762,,1000400.573,5,600,,
break_continue,html.Screen,10_17_2,2023-11-20T20:39:13.268Z,,,,,,,,,,,NaN,,,,,,,,high,high,,,,,,,false,,,,,false,1000395.2999999523,1000395.2999999523,,1000395.1999999285,,1000400.573,5,600,,
sequence,flow.Sequence,10_17,2023-11-20T20:39:13.268Z,,,,,,,,,,,10732.312999952352,completion,,,,,,,high,high,,,,,,,false,,,,,false,1000395.3999999762,1000395.2999999523,989646.312,989654.0999999046,989662.987,1000400.573,5,600,,
trial,html.Screen,10_18_0,2023-11-20T20:39:23.996Z,,,,1,0.0283578106329894,-0.0088840758711548,,0.04,true,lh,10722.326999976183,response,-0.9089402323867112,1.1730122337571478,-1.1222728034303542,0.8034544077281132,0.8771058345319629,-1.0644900428590074,low,high,,ISIC_0060707.JPG,8,ISIC_3585381.JPG,28,28,false,0.2300000000000001,lh,keypress(e),0,false,1011123,1011122.8999999762,1000383.876,1000395.5,1000400.573,1011138.135,5,600,19,
break,html.Screen,10_18_1,2023-11-20T20:39:23.996Z,,,,,,,,,,,NaN,,,,,,,,low,high,,,,,,,false,,,,,false,1011123.5,1011123.3999999762,,1011123.1999999285,,1011138.135,5,600,,
break_continue,html.Screen,10_18_2,2023-11-20T20:39:23.997Z,,,,,,,,,,,NaN,,,,,,,,low,high,,,,,,,false,,,,,false,1011123.7999999523,1011123.5999999046,,1011123.5999999046,,1011138.135,5,600,,
sequence,flow.Sequence,10_18,2023-11-20T20:39:23.997Z,,,,,,,,,,,10723.026999904658,completion,,,,,,,low,high,,,,,,,false,,,,,false,1011123.8999999762,1011123.5999999046,1000383.876,1000395.5,1000400.573,1011138.135,5,600,,
trial,html.Screen,10_19_0,2023-11-20T20:39:31.916Z,,,,1,0.0257631352671967,0.0202837002774028,,0.04,false,lh,7905.264999976149,response,-1.0116417541846066,1.1730122337571478,-1.1222728034303542,1.033442916947398,0.8771058345319629,-1.0644900428590074,low,high,,ISIC_0032797.JPG,10,ISIC_0031389.JPG,28,28,false,0.2300000000000001,ll,keypress(f),0,false,1019043.5999999046,1019043.3999999762,1011121.575,1011123.8999999762,1011138.135,1019053.534,5,600,20,
break,html.Screen,10_19_1,2023-11-20T20:39:31.917Z,,,,,,,,,,,NaN,,,,,,,,low,high,,,,,,,false,,,,,false,1019044.5999999046,1019044.2999999523,,1019043.8999999762,,1019053.534,5,600,,
break_continue,html.Screen,10_19_2,2023-11-20T20:39:31.918Z,,,,,,,,,,,NaN,,,,,,,,low,high,,,,,,,false,,,,,false,1019045.1999999285,1019045,,1019044.6999999285,,1019053.534,5,600,,
sequence,flow.Sequence,10_19,2023-11-20T20:39:31.918Z,,,,,,,,,,,7906.864999999991,completion,,,,,,,low,high,,,,,,,false,,,,,false,1019045.5,1019045,1011121.575,1011123.8999999762,1011138.135,1019053.534,5,600,,
trial,html.Screen,10_20_0,2023-11-20T20:39:35.389Z,,,,1,0.0308384937406319,-0.0038396364323947,,0.04,false,hl,3462.6659999284893,response,1.199471562817528,1.1730122337571478,-1.1222728034303542,-0.8631260534979347,0.8771058345319629,-1.0644900428590074,high,low,,ISIC_0029825.JPG,8,ISIC_0030754.JPG,28,25,false,0.3600000000000002,ll,keypress(f),0,false,1022516.3999999762,1022516.1999999285,1019036.938,1019045.6999999285,1019053.534,1022526.95,5,600,21,
break,html.Screen,10_20_1,2023-11-20T20:39:35.390Z,,,,,,,,,,,NaN,,,,,,,,high,low,,,,,,,false,,,,,false,1022517.2999999523,1022517.0999999046,,1022516.7999999523,,1022526.95,5,600,,
break_continue,html.Screen,10_20_2,2023-11-20T20:39:35.391Z,,,,,,,,,,,NaN,,,,,,,,high,low,,,,,,,false,,,,,false,1022518.0999999046,1022517.6999999285,,1022517.5999999046,,1022526.95,5,600,,
sequence,flow.Sequence,10_20,2023-11-20T20:39:35.391Z,,,,,,,,,,,3464.1659999284893,completion,,,,,,,high,low,,,,,,,false,,,,,false,1022518.1999999285,1022517.6999999285,1019036.938,1019045.5999999046,1019053.534,1022526.95,5,600,,
trial,html.Screen,10_21_0,2023-11-20T20:39:45.844Z,,,,1,0.0220026381002083,-0.0170756452911772,,0.04,false,hl,10444.050000000047,response,0.989300717252516,1.1730122337571478,-1.1222728034303542,-0.7908280206937478,0.8771058345319629,-1.0644900428590074,high,low,,ISIC_5347806.JPG,9,ISIC_6416533.JPG,28,25,false,0.3600000000000002,ll,keypress(f),0,false,1032971.1999999285,1032971,1022510.383,1022518.3999999762,1022526.95,1032980.608,5,600,22,
break,html.Screen,10_21_1,2023-11-20T20:39:45.845Z,,,,,,,,,,,NaN,,,,,,,,high,low,,,,,,,false,,,,,false,1032971.6999999285,1032971.5999999046,,1032971.3999999762,,1032980.608,5,600,,
break_continue,html.Screen,10_21_2,2023-11-20T20:39:45.845Z,,,,,,,,,,,NaN,,,,,,,,high,low,,,,,,,false,,,,,false,1032972.1999999285,1032971.8999999762,,1032971.7999999523,,1032980.608,5,600,,
sequence,flow.Sequence,10_21,2023-11-20T20:39:45.845Z,,,,,,,,,,,10444.949999976205,completion,,,,,,,high,low,,,,,,,false,,,,,false,1032972.2999999523,1032971.8999999762,1022510.383,1022518.3999999762,1022526.95,1032980.608,5,600,,
trial,html.Screen,10_22_0,2023-11-20T20:39:52.259Z,,,,1,0.0308384937406319,-0.0038396364323947,,0.04,false,hl,6405.791999976151,response,0.8828738626295417,1.1730122337571478,-1.1222728034303542,-0.8288177599439582,0.8771058345319629,-1.0644900428590074,high,low,,ISIC_0029825.JPG,9,ISIC_0056041.JPG,28,25,false,0.3600000000000002,hh,keypress(i),0,false,1039386.5,1039386.3999999762,1032964.019,1032972.2999999523,1032980.608,1039393.057,5,600,23,
break,html.Screen,10_22_1,2023-11-20T20:39:52.260Z,,,,,,,,,,,NaN,,,,,,,,high,low,,,,,,,false,,,,,false,1039386.8999999762,1039386.7999999523,,1039386.6999999285,,1039393.057,5,600,,
break_continue,html.Screen,10_22_2,2023-11-20T20:39:52.260Z,,,,,,,,,,,NaN,,,,,,,,high,low,,,,,,,false,,,,,false,1039387,1039387,,1039386.8999999762,,1039393.057,5,600,,
sequence,flow.Sequence,10_22,2023-11-20T20:39:52.260Z,,,,,,,,,,,6406.391999999993,completion,,,,,,,high,low,,,,,,,false,,,,,false,1039387.1999999285,1039387,1032964.019,1032972.2999999523,1032980.608,1039393.057,5,600,,
trial,html.Screen,10_23_0,2023-11-20T20:39:56.676Z,,,,1,0.0076984477620101,0.0069458408496562,,0.04,true,hh,4410.342999976128,response,1.275774577028331,1.1730122337571478,-1.1222728034303542,0.7824087886010256,0.8771058345319629,-1.0644900428590074,high,high,,ISIC_0000434.JPG,8,ISIC_2426937.JPG,28,27,false,0.12,hh,keypress(i),0,false,1043803.6999999285,1043803.3999999762,1039376.28,1039387.1999999285,1039393.057,1043818.36,5,600,24,
break,html.Screen,10_23_1,2023-11-20T20:39:56.677Z,,,,,,,,,,,NaN,,,,,,,,high,high,,,,,,,false,,,,,false,1043804.2999999523,1043804.1999999285,,1043803.8999999762,,1043818.36,5,600,,
break_continue,html.Screen,10_23_2,2023-11-20T20:39:56.678Z,,,,,,,,,,,NaN,,,,,,,,high,high,,,,,,,false,,,,,false,1043804.8999999762,1043804.6999999285,,1043804.5,,1043818.36,5,600,,
sequence,flow.Sequence,10_23,2023-11-20T20:39:56.678Z,,,,,,,,,,,4411.642999928445,completion,,,,,,,high,high,,,,,,,false,,,,,false,1043805.0999999046,1043804.6999999285,1039376.28,1039387.1999999285,1039393.057,1043818.36,5,600,,
trial,html.Screen,10_24_0,2023-11-20T20:40:07.123Z,,,,1,0.0286056110007553,0.036125199756515,,0.04,true,lh,10432.140000000014,response,-0.9377879738246,1.1730122337571478,-1.1222728034303542,0.6684167919118053,0.8771058345319629,-1.0644900428590074,low,high,,ISIC_6535558.JPG,9,ISIC_0028986.JPG,28,28,false,0.2300000000000001,lh,keypress(e),0,false,1054250.5999999046,1054250.5,1043801.898,1043805.1999999285,1043818.36,1054255.297,5,600,25,
break,html.Screen,10_24_1,2023-11-20T20:40:07.124Z,,,,,,,,,,,NaN,,,,,,,,low,high,,,,,,,false,,,,,false,1054250.8999999762,1054250.7999999523,,1054250.6999999285,,1054255.297,5,600,,
break_continue,html.Screen,10_24_2,2023-11-20T20:40:07.124Z,,,,,,,,,,,NaN,,,,,,,,low,high,,,,,,,false,,,,,false,1054251.1999999285,1054251,,1054251,,1054255.297,5,600,,
sequence,flow.Sequence,10_24,2023-11-20T20:40:07.124Z,,,,,,,,,,,10432.640000000014,completion,,,,,,,low,high,,,,,,,false,,,,,false,1054251.1999999285,1054251,1043801.898,1043805.1999999285,1043818.36,1054255.297,5,600,,
trial,html.Screen,10_25_0,2023-11-20T20:40:10.620Z,,,,1,0.0258224118104549,-0.0029364553353019,,0.04,false,hl,3491.6029999761377,response,1.0369885917487718,1.1730122337571478,-1.1222728034303542,-0.8486937878412699,0.8771058345319629,-1.0644900428590074,high,low,,ISIC_8325226.JPG,9,ISIC_6917681.JPG,28,25,false,0.3600000000000002,hh,keypress(i),0,false,1057747,1057746.8999999762,1054238.608,1054251.1999999285,1054255.297,1057762.228,5,600,26,
break,html.Screen,10_25_1,2023-11-20T20:40:10.621Z,,,,,,,,,,,NaN,,,,,,,,high,low,,,,,,,false,,,,,false,1057747.3999999762,1057747.1999999285,,1057747.0999999046,,1057762.228,5,600,,
break_continue,html.Screen,10_25_2,2023-11-20T20:40:10.621Z,,,,,,,,,,,NaN,,,,,,,,high,low,,,,,,,false,,,,,false,1057747.5999999046,1057747.5,,1057747.3999999762,,1057762.228,5,600,,
sequence,flow.Sequence,10_25,2023-11-20T20:40:10.621Z,,,,,,,,,,,3492.2029999999795,completion,,,,,,,high,low,,,,,,,false,,,,,false,1057747.5999999046,1057747.5,1054238.608,1054251.1999999285,1054255.297,1057762.228,5,600,,
trial,html.Screen,10_26_0,2023-11-20T20:40:15.301Z,,,,1,-0.0074667911845194,0.018500200317654,,0.04,true,hh,4665.272000000114,response,1.0733807306669467,1.1730122337571478,-1.1222728034303542,0.9781766331161578,0.8771058345319629,-1.0644900428590074,high,high,,ISIC_0058723.JPG,9,ISIC_0032383.JPG,28,27,false,0.12,hh,keypress(i),0,false,1062427.7999999523,1062427.5,1057745.612,1057747.6999999285,1057762.228,1062437.893,5,600,27,
break,html.Screen,10_26_1,2023-11-20T20:40:15.302Z,,,,,,,,,,,NaN,,,,,,,,high,high,,,,,,,false,,,,,false,1062428.5999999046,1062428.3999999762,,1062428,,1062437.893,5,600,,
break_continue,html.Screen,10_26_2,2023-11-20T20:40:15.302Z,,,,,,,,,,,NaN,,,,,,,,high,high,,,,,,,false,,,,,false,1062429.0999999046,1062428.8999999762,,1062428.6999999285,,1062437.893,5,600,,
sequence,flow.Sequence,10_26,2023-11-20T20:40:15.303Z,,,,,,,,,,,4666.671999976272,completion,,,,,,,high,high,,,,,,,false,,,,,false,1062429.2999999523,1062428.8999999762,1057745.612,1057747.6999999285,1057762.228,1062437.893,5,600,,
trial,html.Screen,10_27_0,2023-11-20T20:40:27.901Z,,,,1,0,-0.0102871556606504,,0.04,true,hl,12589.30699992855,response,0.930804711032185,1.1730122337571478,-1.1222728034303542,-0.7294067991476295,0.8771058345319629,-1.0644900428590074,high,low,,ISIC_1805163.JPG,10,ISIC_5067317.JPG,28,25,false,0.3600000000000002,hl,keypress(j),0,false,1075027.3999999762,1075027.1999999285,1062421.379,1062429.5,1062437.893,1075046.302,5,600,28,
break,html.Screen,10_27_1,2023-11-20T20:40:27.901Z,,,,,,,,,,,NaN,,,,,,,,high,low,,,,,,,false,,,,,false,1075028,1075027.8999999762,,1075027.5999999046,,1075046.302,5,600,,
break_continue,html.Screen,10_27_2,2023-11-20T20:40:27.902Z,,,,,,,,,,,NaN,,,,,,,,high,low,,,,,,,false,,,,,false,1075028.3999999762,1075028.2999999523,,1075028.0999999046,,1075046.302,5,600,,
sequence,flow.Sequence,10_27,2023-11-20T20:40:27.902Z,,,,,,,,,,,12590.406999952393,completion,,,,,,,high,low,,,,,,,false,,,,,false,1075028.5999999046,1075028.2999999523,1062421.379,1062429.5,1062437.893,1075046.302,5,600,,
trial,html.Screen,10_28_0,2023-11-20T20:40:32.260Z,,,,1,-0.0164027439304477,0.0082910758715273,,0.04,true,hh,4340.497999952408,response,1.275774577028331,1.1730122337571478,-1.1222728034303542,0.7824087886010256,0.8771058345319629,-1.0644900428590074,high,high,,ISIC_7381224.JPG,9,ISIC_2426937.JPG,28,27,false,0.12,hh,keypress(i),0,false,1079386.8999999762,1079386.7999999523,1075012.531,1075028.6999999285,1075046.302,1079404.734,5,600,29,
break,html.Screen,10_28_1,2023-11-20T20:40:32.260Z,,,,,,,,,,,NaN,,,,,,,,high,high,,,,,,,false,,,,,false,1079387.1999999285,1079387.0999999046,,1079387.0999999046,,1079404.734,5,600,,
break_continue,html.Screen,10_28_2,2023-11-20T20:40:32.261Z,,,,,,,,,,,NaN,,,,,,,,high,high,,,,,,,false,,,,,false,1079387.3999999762,1079387.3999999762,,1079387.1999999285,,1079404.734,5,600,,
sequence,flow.Sequence,10_28,2023-11-20T20:40:32.261Z,,,,,,,,,,,4341.097999976249,completion,,,,,,,high,high,,,,,,,false,,,,,false,1079387.3999999762,1079387.3999999762,1075012.531,1075028.5999999046,1075046.302,1079404.734,5,600,,
trial,html.Screen,10_29_0,2023-11-20T20:40:37.181Z,,,,1,-0.0074667911845194,0.018500200317654,,0.04,true,ll,4902.565999952378,response,-1.0653732408486678,1.1730122337571478,-1.1222728034303542,-1.089675540151582,0.8771058345319629,-1.0644900428590074,low,low,,ISIC_0058723.JPG,8,ISIC_0058315.JPG,28,33,false,0.1,ll,keypress(f),0,false,1084307.5,1084307.2999999523,1079371.017,1079387.5999999046,1079404.734,1084313.786,5,600,30,
break,html.Screen,10_29_1,2023-11-20T20:40:37.181Z,,,,,,,,,,,NaN,,,,,,,,low,low,,,,,,,false,,,,,false,1084308.1999999285,1084308,,1084307.6999999285,,1084313.786,5,600,,
break_continue,html.Screen,10_29_2,2023-11-20T20:40:37.182Z,,,,,,,,,,,NaN,,,,,,,,low,low,,,,,,,false,,,,,false,1084308.6999999285,1084308.5,,1084308.2999999523,,1084313.786,5,600,,
sequence,flow.Sequence,10_29,2023-11-20T20:40:37.182Z,,,,,,,,,,,4903.7660000000615,completion,,,,,,,low,low,,,,,,,false,,,,,false,1084308.8999999762,1084308.5,1079371.017,1079387.5,1079404.734,1084313.786,5,600,,
trial,html.Screen,10_30_0,2023-11-20T20:40:42.620Z,,,,1,0.0367744112927588,0.0324865661712824,,0.04,false,ll,5432.71399999992,response,-1.0593040390975434,1.1730122337571478,-1.1222728034303542,-1.0413442695273454,0.8771058345319629,-1.0644900428590074,low,low,,ISIC_4523565.JPG,9,ISIC_0061293.JPG,28,33,false,0.1,hl,keypress(j),0,false,1089746.5999999046,1089746.5,1084297.158,1084309,1084313.786,1089757.714,5,600,31,
break,html.Screen,10_30_1,2023-11-20T20:40:42.620Z,,,,,,,,,,,NaN,,,,,,,,low,low,,,,,,,false,,,,,false,1089747,1089746.8999999762,,1089746.6999999285,,1089757.714,5,600,,
break_continue,html.Screen,10_30_2,2023-11-20T20:40:42.620Z,,,,,,,,,,,NaN,,,,,,,,low,low,,,,,,,false,,,,,false,1089747.1999999285,1089747.1999999285,,1089747,,1089757.714,5,600,,
sequence,flow.Sequence,10_30,2023-11-20T20:40:42.620Z,,,,,,,,,,,5433.413999928394,completion,,,,,,,low,low,,,,,,,false,,,,,false,1089747.2999999523,1089747.1999999285,1084297.158,1084309,1084313.786,1089757.714,5,600,,
trial,html.Screen,10_31_0,2023-11-20T20:40:50.732Z,,,,1,-0.0164027439304477,0.0082910758715273,,0.04,false,hh,8100.78600000008,response,1.29013738782944,1.1730122337571478,-1.1222728034303542,0.9319185001122136,0.8771058345319629,-1.0644900428590074,high,high,,ISIC_7381224.JPG,9,ISIC_8607090.JPG,28,27,false,0.12,lh,keypress(e),0,false,1097858.5,1097858.5,1089741.106,1089747.3999999762,1089757.714,1097873.481,5,600,32,
break,html.Screen,10_31_1,2023-11-20T20:40:50.732Z,,,,,,,,,,,NaN,,,,,,,,high,high,,,,,,,false,,,,,false,1097858.8999999762,1097858.7999999523,,1097858.5999999046,,1097873.481,5,600,,
break_continue,html.Screen,10_31_2,2023-11-20T20:40:50.732Z,,,,,,,,,,,NaN,,,,,,,,high,high,,,,,,,false,,,,,false,1097859,1097859,,1097858.8999999762,,1097873.481,5,600,,
sequence,flow.Sequence,10_31,2023-11-20T20:40:50.732Z,,,,,,,,,,,8101.28600000008,completion,,,,,,,high,high,,,,,,,false,,,,,false,1097859.0999999046,1097859,1089741.106,1089747.3999999762,1089757.714,1097873.481,5,600,,
trial,html.Screen,10_32_0,2023-11-20T20:40:56.765Z,,,,1,0.0220026381002083,-0.0170756452911772,,0.04,true,lh,6017.918999976246,response,-0.9138670886161264,1.1730122337571478,-1.1222728034303542,0.8414121478342018,0.8771058345319629,-1.0644900428590074,low,high,,ISIC_5347806.JPG,9,ISIC_6709052.JPG,28,28,false,0.2300000000000001,lh,keypress(e),0,false,1103891.5999999046,1103891.3999999762,1097856.898,1097859.1999999285,1097873.481,1103901.843,5,600,33,
break,html.Screen,10_32_1,2023-11-20T20:40:56.766Z,,,,,,,,,,,NaN,,,,,,,,low,high,,,,,,,false,,,,,false,1103892.3999999762,1103892.1999999285,,1103891.8999999762,,1103901.843,5,600,,
break_continue,html.Screen,10_32_2,2023-11-20T20:40:56.766Z,,,,,,,,,,,NaN,,,,,,,,low,high,,,,,,,false,,,,,false,1103892.8999999762,1103892.6999999285,,1103892.5,,1103901.843,5,600,,
sequence,flow.Sequence,10_32,2023-11-20T20:40:56.766Z,,,,,,,,,,,6019.218999928562,completion,,,,,,,low,high,,,,,,,false,,,,,false,1103893.0999999046,1103892.6999999285,1097856.898,1097859.1999999285,1097873.481,1103901.843,5,600,,
trial,html.Screen,10_33_0,2023-11-20T20:41:02.388Z,,,,1,0.0286056110007553,0.036125199756515,,0.04,true,lh,5613.056999976048,response,-0.9089402323867112,1.1730122337571478,-1.1222728034303542,0.8034544077281132,0.8771058345319629,-1.0644900428590074,low,high,,ISIC_6535558.JPG,9,ISIC_3585381.JPG,28,28,false,0.2300000000000001,lh,keypress(e),0,false,1109515,1109514.8999999762,1103885.366,1103893.1999999285,1103901.843,1109529.729,5,600,34,
break,html.Screen,10_33_1,2023-11-20T20:41:02.389Z,,,,,,,,,,,NaN,,,,,,,,low,high,,,,,,,false,,,,,false,1109515.5999999046,1109515.5,,1109515.1999999285,,1109529.729,5,600,,
break_continue,html.Screen,10_33_2,2023-11-20T20:41:02.389Z,,,,,,,,,,,NaN,,,,,,,,low,high,,,,,,,false,,,,,false,1109516.0999999046,1109515.8999999762,,1109515.6999999285,,1109529.729,5,600,,
sequence,flow.Sequence,10_33,2023-11-20T20:41:02.389Z,,,,,,,,,,,5614.056999976048,completion,,,,,,,low,high,,,,,,,false,,,,,false,1109516.1999999285,1109515.8999999762,1103885.366,1103893.1999999285,1103901.843,1109529.729,5,600,,
trial,html.Screen,10_34_0,2023-11-20T20:41:14.253Z,,,,1,-0.0388181790775959,0.0049623405709465,,0.04,false,ll,11849.870999904582,response,-1.0679712388489528,1.1730122337571478,-1.1222728034303542,-1.0509600192807842,0.8771058345319629,-1.0644900428590074,low,low,,ISIC_0061880.JPG,9,ISIC_0015180.JPG,28,33,false,0.1,lh,keypress(e),0,false,1121379.6999999285,1121379.5999999046,1109512.834,1109516.2999999523,1109529.729,1121385.876,5,600,35,
break,html.Screen,10_34_1,2023-11-20T20:41:14.254Z,,,,,,,,,,,NaN,,,,,,,,low,low,,,,,,,false,,,,,false,1121380.5999999046,1121380.3999999762,,1121380,,1121385.876,5,600,,
break_continue,html.Screen,10_34_2,2023-11-20T20:41:14.255Z,,,,,,,,,,,NaN,,,,,,,,low,low,,,,,,,false,,,,,false,1121381.2999999523,1121381,,1121380.7999999523,,1121385.876,5,600,,
sequence,flow.Sequence,10_34,2023-11-20T20:41:14.255Z,,,,,,,,,,,11851.27099999995,completion,,,,,,,low,low,,,,,,,false,,,,,false,1121381.5,1121381,1109512.834,1109516.2999999523,1109529.729,1121385.876,5,600,,
trial,html.Screen,10_35_0,2023-11-20T20:41:20.028Z,,,,1,-0.0065172941585523,0.0118857043117315,,0.04,true,hh,5768.823999928543,response,1.2093800080874595,1.1730122337571478,-1.1222728034303542,0.8810330940141073,0.8771058345319629,-1.0644900428590074,high,high,,ISIC_6119202.JPG,8,ISIC_7830756.JPG,28,27,false,0.12,hh,keypress(i),0,false,1127154.7999999523,1127154.6999999285,1121369.422,1121381.6999999285,1121385.876,1127163.783,5,600,36,
break,html.Screen,10_35_1,2023-11-20T20:41:20.029Z,,,,,,,,,,,NaN,,,,,,,,high,high,,,,,,,false,,,,,false,1127155.1999999285,1127155.1999999285,,1127155,,1127163.783,5,600,,
break_continue,html.Screen,10_35_2,2023-11-20T20:41:20.029Z,,,,,,,,,,,NaN,,,,,,,,high,high,,,,,,,false,,,,,false,1127155.5,1127155.2999999523,,1127155.1999999285,,1127163.783,5,600,,
sequence,flow.Sequence,10_35,2023-11-20T20:41:20.029Z,,,,,,,,,,,5769.423999952385,completion,,,,,,,high,high,,,,,,,false,,,,,false,1127155.5999999046,1127155.2999999523,1121369.422,1121381.5999999046,1121385.876,1127163.783,5,600,,
trial,html.Screen,10_36_0,2023-11-20T20:41:28.564Z,,,,1,0.0220026381002083,-0.0170756452911772,,0.04,false,hl,8527.016999952262,response,1.2054195059663604,1.1730122337571478,-1.1222728034303542,-0.7760611240296147,0.8771058345319629,-1.0644900428590074,high,low,,ISIC_5347806.JPG,9,ISIC_8712559.JPG,28,25,false,0.3600000000000002,ll,keypress(f),0,false,1135690.8999999762,1135690.7999999523,1127147.168,1127155.5999999046,1127163.783,1135697.049,5,600,37,
break,html.Screen,10_36_1,2023-11-20T20:41:28.565Z,,,,,,,,,,,NaN,,,,,,,,high,low,,,,,,,false,,,,,false,1135691.3999999762,1135691.2999999523,,1135691.0999999046,,1135697.049,5,600,,
break_continue,html.Screen,10_36_2,2023-11-20T20:41:28.565Z,,,,,,,,,,,NaN,,,,,,,,high,low,,,,,,,false,,,,,false,1135691.6999999285,1135691.5,,1135691.3999999762,,1135697.049,5,600,,
sequence,flow.Sequence,10_36,2023-11-20T20:41:28.565Z,,,,,,,,,,,8527.716999999946,completion,,,,,,,high,low,,,,,,,false,,,,,false,1135691.6999999285,1135691.5,1127147.168,1127155.5999999046,1127163.783,1135697.049,5,600,,
trial,html.Screen,10_37_0,2023-11-20T20:41:41.237Z,,,,1,-0.0199950873045219,-0.0172506388509166,,0.04,true,hl,12666.650999928359,response,0.989300717252516,1.1730122337571478,-1.1222728034303542,-0.7908280206937478,0.8771058345319629,-1.0644900428590074,high,low,,ISIC_0029906.JPG,9,ISIC_6416533.JPG,28,25,false,0.3600000000000002,hl,keypress(j),0,false,1148363.8999999762,1148363.6999999285,1135680.358,1135691.7999999523,1135697.049,1148388.406,5,600,38,
break,html.Screen,10_37_1,2023-11-20T20:41:41.238Z,,,,,,,,,,,NaN,,,,,,,,high,low,,,,,,,false,,,,,false,1148364.6999999285,1148364.5,,1148364.0999999046,,1148388.406,5,600,,
break_continue,html.Screen,10_37_2,2023-11-20T20:41:41.239Z,,,,,,,,,,,NaN,,,,,,,,high,low,,,,,,,false,,,,,false,1148365.2999999523,1148365,,1148364.7999999523,,1148388.406,5,600,,
