sender,sender_type,sender_id,timestamp,meta,,age,blockNo,c1,c2,condition,control_tolerance,correct,correctResponse,duration,ended_on,f1,f1_high,f1_low,f2,f2_high,f2_low,feature_level1,feature_level2,gender,img_left,img_reveal,img_right,n_control_images,n_target_images,practice,range_tolerance,response,response_action,selection_duration,staircase,time_commit,time_end,time_render,time_run,time_show,time_switch,total_blocks,total_trials,trialNo,url
informed_consent,html.Screen,0,2023-11-30T17:05:23.103Z,"{""labjs_version"":""20.2.4"",""labjs_build"":{""flavor"":""development"",""commit"":""f5b4a49f956347addd546a832a3327688c2c0fef""},""location"":""https://labjs.felixhenninger.com/api/labjs_preview/index.html"",""userAgent"":""Mozilla/5.0 (Windows NT 10.0; Win64; x64) AppleWebKit/537.36 (KHTML, like Gecko) Chrome/119.0.0.0 Safari/537.36"",""platform"":""Win32"",""language"":""en-US"",""locale"":""en-US"",""timeZone"":""America/Chicago"",""timezoneOffset"":360,""screen_width"":1920,""screen_height"":1080,""scroll_width"":945,""scroll_height"":918,""window_innerWidth"":945,""window_innerHeight"":966,""devicePixelRatio"":1}",,,,,,,,,,14868.238999952317,response,,,,,,,,,,,,,,,,,consent,click button,,,15588.400000095367,15578.799999952316,693.832,692.7000000476837,710.561,15610.486,,,,{}
Demography form,html.Form,1,2023-11-30T17:05:31.198Z,,,19,,,,,,,,8073.11400014305,form submission,,,,,,,,,male,,,,,,,,,,,,23683.700000047684,23683.60000014305,15593.793,15588.600000143051,15610.486,23677.121,,,,
Welcome,html.Screen,2,2023-11-30T17:05:57.184Z,,,,,,,"[""asym"",""bor""]",,,,25991.178999952317,response,,,,,,,,,,,,,,,,,continue,keypress(Space),,,49669.299999952316,49668.299999952316,23660.731,23683.799999952316,23677.121,49677.051,,,,
demo_instructions,html.Screen,3,2023-11-30T17:05:58.952Z,,,,,,,,,,,1759.2489999523168,response,,,,,,,,,,,,,,,,,continue,keypress(Space),,,51437,51436.299999952316,49660.311,49669.60000014305,49677.051,51443.708,,,,
trial,html.Screen,4_0_0,2023-11-30T17:06:05.820Z,,,,0,-1.1164729501046406,-1.2978935747992253,,,false,hh,6861.892000143052,response,1.0789197754694622,1.2,-1.2,1.1654690806750023,1.2,-1.2,high,high,,ISIC_0034166.JPG,,ISIC_1576437.JPG,,26,true,0.15000000000000002,lh,keypress(e),100,false,58305.799999952316,58305.60000014305,51427.19,51437.299999952316,51443.708,58327.234,1,16,1,
sequence,flow.Sequence,4_0,2023-11-30T17:06:05.830Z,,,,,,,,,,,6861.892000143052,completion,,,,,,,high,high,,,,,,,true,,,,,false,58315.60000014305,58305.60000014305,51427.19,51437.299999952316,51443.708,58327.234,1,16,,
trial,html.Screen,4_1_0,2023-11-30T17:06:16.862Z,,,,0,-1.1033977063872138,-1.2513071571733083,,,true,hh,11018.766000000003,response,1.09666761087476,1.2,-1.2,1.1072126870290426,1.2,-1.2,high,high,,ISIC_0025472.JPG,,ISIC_0071754.JPG,,26,true,0.15000000000000002,hh,keypress(i),100,false,69346.40000009537,69346,58310.389,58315.60000014305,58327.234,69377.237,1,16,2,
sequence,flow.Sequence,4_1,2023-11-30T17:06:16.863Z,,,,,,,,,,,11018.766000000003,completion,,,,,,,high,high,,,,,,,true,,,,,false,69347.10000014305,69346,58310.389,58315.60000014305,58327.234,69377.237,1,16,,
trial,html.Screen,4_2_0,2023-11-30T17:06:28.303Z,,,,0,-1.1474466950560966,-1.268445326285509,,,true,hh,11409.363000143057,response,1.057008495826831,1.2,-1.2,1.1278122585028287,1.2,-1.2,high,high,,ISIC_5216586.JPG,,ISIC_2819798.JPG,,26,true,0.15000000000000002,hh,keypress(i),100,false,80787.10000014305,80786.60000014305,69360.404,69347.5,69377.237,80810.345,1,16,3,
sequence,flow.Sequence,4_2,2023-11-30T17:06:28.303Z,,,,,,,,,,,11409.363000143057,completion,,,,,,,high,high,,,,,,,true,,,,,false,80787.79999995232,80786.60000014305,69360.404,69347.40000009537,69377.237,80810.345,1,16,,
trial,html.Screen,4_3_0,2023-11-30T17:06:32.289Z,,,,0,-1.101214461533281,-1.1849883512428183,,,true,hh,3962.954999952315,response,1.086647361897092,1.2,-1.2,1.1528935990320313,1.2,-1.2,high,high,,ISIC_0064943.JPG,,ISIC_3505339.JPG,,26,true,0.15000000000000002,hh,keypress(i),100,false,84773.79999995232,84773.29999995232,80793.705,80788.20000004768,80810.345,84793.664,1,16,4,
sequence,flow.Sequence,4_3,2023-11-30T17:06:32.290Z,,,,,,,,,,,3962.954999952315,completion,,,,,,,high,high,,,,,,,true,,,,,false,84774.60000014305,84773.29999995232,80793.705,80788.10000014305,80810.345,84793.664,1,16,,
trial,html.Screen,4_4_0,2023-11-30T17:06:37.971Z,,,,0,1.2724584600905462,1.1411016103695344,,,true,ll,5661.635999952312,response,-1.1033977063872138,1.2,-1.2,-1.2513071571733083,1.2,-1.2,low,low,,ISIC_0059625.JPG,,ISIC_0025472.JPG,,30,true,0.1,ll,keypress(f),100,false,90455.90000009537,90455.29999995232,84777.063,84774.90000009537,84793.664,90477.005,1,16,5,
sequence,flow.Sequence,4_4,2023-11-30T17:06:37.972Z,,,,,,,,,,,5661.635999952312,completion,,,,,,,low,low,,,,,,,true,,,,,false,90456.5,90455.29999995232,84777.063,84774.90000009537,84793.664,90477.005,1,16,,
trial,html.Screen,4_5_0,2023-11-30T17:06:42.902Z,,,,0,1.1653123206802332,1.2976858999596654,,,true,ll,4908.895000095363,response,-1.135372722680314,1.2,-1.2,-1.0926414044454305,1.2,-1.2,low,low,,ISIC_0071508.JPG,,ISIC_2355513.JPG,,53,true,0.15000000000000002,ll,keypress(f),100,false,95386.29999995232,95385.90000009537,90460.324,90456.70000004768,90477.005,95410.393,1,16,6,
sequence,flow.Sequence,4_5,2023-11-30T17:06:42.902Z,,,,,,,,,,,4908.895000095363,completion,,,,,,,low,low,,,,,,,true,,,,,false,95386.90000009537,95385.90000009537,90460.324,90456.70000004768,90477.005,95410.393,1,16,,
trial,html.Screen,4_6_0,2023-11-30T17:06:48.057Z,,,,0,1.2024083555600384,1.149077673153018,,,true,ll,5130.40699995232,response,-1.3188821610161792,1.2,-1.2,-1.1433456871226346,1.2,-1.2,low,low,,ISIC_3566243.JPG,,ISIC_0030798.JPG,,53,true,0.15000000000000002,ll,keypress(f),100,false,100541.10000014305,100540.79999995232,95393.649,95387.10000014305,95410.393,100560.249,1,16,7,
sequence,flow.Sequence,4_6,2023-11-30T17:06:48.057Z,,,,,,,,,,,5130.40699995232,completion,,,,,,,low,low,,,,,,,true,,,,,false,100541.60000014305,100540.79999995232,95393.649,95387,95410.393,100560.249,1,16,,
trial,html.Screen,4_7_0,2023-11-30T17:06:53.082Z,,,,0,1.2724584600905462,1.1411016103695344,,,true,ll,5005.55099995232,response,-1.3188821610161792,1.2,-1.2,-1.1433456871226346,1.2,-1.2,low,low,,ISIC_0059625.JPG,,ISIC_0030798.JPG,,53,true,0.15000000000000002,ll,keypress(f),100,false,105566.10000014305,105565.79999995232,100543.631,100541.79999995232,100560.249,105593.57,1,16,8,
sequence,flow.Sequence,4_7,2023-11-30T17:06:53.082Z,,,,,,,,,,,5005.55099995232,completion,,,,,,,low,low,,,,,,,true,,,,,false,105566.70000004768,105565.79999995232,100543.631,100541.79999995232,100560.249,105593.57,1,16,,
trial,html.Screen,4_8_0,2023-11-30T17:07:02.784Z,,,,0,1.2075172235545184,-0.9116724966267612,,,true,lh,9675.030000143044,response,-0.8947611078712571,1.2,-1.2,0.8960964505004638,1.2,-1.2,low,high,,ISIC_0024235.JPG,,ISIC_6441128.JPG,,27,true,0.42000000000000026,lh,keypress(e),100,false,115268.90000009537,115268.60000014305,105576.972,105567,105593.57,115293.545,1,16,9,
sequence,flow.Sequence,4_8,2023-11-30T17:07:02.785Z,,,,,,,,,,,9675.030000143044,completion,,,,,,,low,high,,,,,,,true,,,,,false,115269.60000014305,115268.60000014305,105576.972,105566.90000009537,105593.57,115293.545,1,16,,
trial,html.Screen,4_9_0,2023-11-30T17:07:06.772Z,,,,0,1.0865333402803938,-1.0542635307358266,,,true,lh,3960.855000095369,response,-0.7833710010171356,1.2,-1.2,0.9315588090336896,1.2,-1.2,low,high,,ISIC_0034006.JPG,,ISIC_3826102.JPG,,27,true,0.42000000000000026,lh,keypress(e),100,false,119254.70000004768,119254.40000009537,115276.979,115269.70000004768,115293.545,119276.883,1,16,10,
sequence,flow.Sequence,4_9,2023-11-30T17:07:06.772Z,,,,,,,,,,,3960.855000095369,completion,,,,,,,low,high,,,,,,,true,,,,,false,119255.20000004768,119254.40000009537,115276.979,115269.70000004768,115293.545,119276.883,1,16,,
trial,html.Screen,4_10_0,2023-11-30T17:07:08.981Z,,,,0,1.2331439637486756,-0.9691143900156988,,,true,lh,2186.6169999999984,response,-0.7871162143493278,1.2,-1.2,0.8429329800778957,1.2,-1.2,low,high,,ISIC_7877488.JPG,,ISIC_3439215.JPG,,27,true,0.42000000000000026,lh,keypress(e),100,false,121464,121463.5,119260.261,119255.40000009537,119276.883,121493.671,1,16,11,
sequence,flow.Sequence,4_10,2023-11-30T17:07:08.982Z,,,,,,,,,,,2186.6169999999984,completion,,,,,,,low,high,,,,,,,true,,,,,false,121464.70000004768,121463.5,119260.261,119255.29999995232,119276.883,121493.671,1,16,,
trial,html.Screen,4_11_0,2023-11-30T17:07:10.885Z,,,,0,0.858338058340649,-0.9540612223480284,,,true,lh,1874.429000143049,response,-0.8623414234919863,1.2,-1.2,0.782830143980698,1.2,-1.2,low,high,,ISIC_8922893.JPG,,ISIC_2727016.JPG,,27,true,0.42000000000000026,lh,keypress(e),100,false,123368.40000009537,123368.10000014305,121476.883,121465,121493.671,123393.526,1,16,12,
sequence,flow.Sequence,4_11,2023-11-30T17:07:10.886Z,,,,,,,,,,,1874.429000143049,completion,,,,,,,low,high,,,,,,,true,,,,,false,123368.79999995232,123368.10000014305,121476.883,121465,121493.671,123393.526,1,16,,
trial,html.Screen,4_12_0,2023-11-30T17:07:13.941Z,,,,0,-1.0115965332688306,0.8282633603842442,,,true,hl,3030.474000000002,response,1.1181734135756094,1.2,-1.2,-0.944560381774994,1.2,-1.2,high,low,,ISIC_1069587.JPG,,ISIC_9688534.JPG,,26,true,0.3600000000000002,hl,keypress(j),100,false,126424.40000009537,126424,123376.953,123369,123393.526,126443.522,1,16,13,
sequence,flow.Sequence,4_12,2023-11-30T17:07:13.942Z,,,,,,,,,,,3030.474000000002,completion,,,,,,,high,low,,,,,,,true,,,,,false,126424.90000009537,126424,123376.953,123368.90000009537,123393.526,126443.522,1,16,,
trial,html.Screen,4_13_0,2023-11-30T17:07:15.928Z,,,,0,-0.7870237732709365,0.9172955251119376,,,true,hl,1967.277999952319,response,1.011737552725394,1.2,-1.2,-0.8500530224490773,1.2,-1.2,high,low,,ISIC_0057716.JPG,,ISIC_2998367.JPG,,33,true,0.42000000000000026,hl,keypress(j),100,false,128411.10000014305,128410.79999995232,126426.897,126425.10000014305,126443.522,128426.891,1,16,14,
sequence,flow.Sequence,4_13,2023-11-30T17:07:15.928Z,,,,,,,,,,,1967.277999952319,completion,,,,,,,high,low,,,,,,,true,,,,,false,128411.5,128410.79999995232,126426.897,126425.10000014305,126443.522,128426.891,1,16,,
trial,html.Screen,4_14_0,2023-11-30T17:07:18.104Z,,,,0,-1.276222161935671,0.9657780821973284,,,true,hl,2159.8090000476805,response,0.8860551570327019,1.2,-1.2,-0.8067116931297591,1.2,-1.2,high,low,,ISIC_6710411.JPG,,ISIC_1457687.JPG,,33,true,0.42000000000000026,hl,keypress(j),100,false,130586.79999995232,130586.70000004768,128410.359,128411.60000014305,128426.891,130610.185,1,16,15,
sequence,flow.Sequence,4_14,2023-11-30T17:07:18.104Z,,,,,,,,,,,2159.8090000476805,completion,,,,,,,high,low,,,,,,,true,,,,,false,130587.10000014305,130586.70000004768,128410.359,128411.60000014305,128426.891,130610.185,1,16,,
trial,html.Screen,4_15_0,2023-11-30T17:07:19.958Z,,,,0,-0.8035152873995188,0.82868450251632,,,true,hl,1830.9150001430535,response,1.2331439637486756,1.2,-1.2,-0.9691143900156988,1.2,-1.2,high,low,,ISIC_0010671.JPG,,ISIC_7877488.JPG,,33,true,0.42000000000000026,hl,keypress(j),100,false,132441.40000009537,132441.10000014305,130593.508,130587.10000014305,130610.185,132460.19,1,16,16,
sequence,flow.Sequence,4_15,2023-11-30T17:07:19.959Z,,,,,,,,,,,1830.9150001430535,completion,,,,,,,high,low,,,,,,,true,,,,,false,132441.90000009537,132441.10000014305,130593.508,130587.10000014305,130610.185,132460.19,1,16,,
demonstration_loop,flow.Loop,4,2023-11-30T17:07:19.959Z,,,,,,,,,,,80997.39200014305,completion,,,,,,,,,,,,,,,true,,,,,false,132442.20000004768,132441.10000014305,51427.19,51437.299999952316,51443.708,132460.19,1,16,,
practice_instructions,html.Screen,5,2023-11-30T17:07:38.327Z,,,,,,,,,,,18342.210000095365,response,,,,,,,,,,,,,,,,,continue,click button,,,150810.5,150802.40000009537,132443.548,132442.40000009537,132460.19,150843.501,,,,
trial,html.Screen,6_0_0,2023-11-30T17:07:44.918Z,,,,1,1.1181734135756094,-0.944560381774994,,,true,lh,6551.298999952327,response,-1.4092385398614515,1.2,-1.2,1.3046237992197836,1.2,-1.2,low,high,,ISIC_9688534.JPG,,ISIC_7254359.JPG,,27,true,0.42000000000000026,lh,keypress(e),0,false,157401.60000014305,157394.79999995232,150793.522,150810.60000014305,150843.501,157410.225,1,40,1,
sequence,flow.Sequence,6_0,2023-11-30T17:07:44.919Z,,,,,,,,,,,6551.298999952327,completion,,,,,,,low,high,,,,,,,true,,,,,false,157401.70000004768,157394.79999995232,150793.522,150810.60000014305,150843.501,157410.225,1,40,,
trial,html.Screen,6_1_0,2023-11-30T17:07:49.682Z,,,,1,-1.2169050727663315,-1.1067845563421794,,,true,hh,4754.675000095362,response,0.953802353776362,1.2,-1.2,0.927101493584587,1.2,-1.2,high,high,,ISIC_7016261.JPG,,ISIC_9751601.JPG,,179,true,0.3600000000000002,hh,keypress(i),0,false,162165.20000004768,162164.90000009537,157393.48,157401.70000004768,157410.225,162176.718,1,40,2,
sequence,flow.Sequence,6_1,2023-11-30T17:07:49.683Z,,,,,,,,,,,4754.675000095362,completion,,,,,,,high,high,,,,,,,true,,,,,false,162165.60000014305,162164.90000009537,157393.48,157401.70000004768,157410.225,162176.718,1,40,,
trial,html.Screen,6_2_0,2023-11-30T17:07:53.753Z,,,,1,-1.1253220985777015,-1.108725659461368,,,true,hh,4058.9820000476902,response,1.1642596483638106,1.2,-1.2,1.109799097093339,1.2,-1.2,high,high,,ISIC_0054954.JPG,,ISIC_0765584.JPG,,26,true,0.15000000000000002,hh,keypress(i),0,false,166235.79999995232,166235.70000004768,162160.149,162165.79999995232,162176.718,166243.381,1,40,3,
sequence,flow.Sequence,6_2,2023-11-30T17:07:53.753Z,,,,,,,,,,,4058.9820000476902,completion,,,,,,,high,high,,,,,,,true,,,,,false,166236,166235.70000004768,162160.149,162165.79999995232,162176.718,166243.381,1,40,,
trial,html.Screen,6_3_0,2023-11-30T17:08:00.898Z,,,,1,1.2024083555600384,1.149077673153018,,,true,ll,7137.81900004769,response,-1.2915523362516486,1.2,-1.2,-1.1264977790562936,1.2,-1.2,low,low,,ISIC_3566243.JPG,,ISIC_0502582.JPG,,30,true,0.1,ll,keypress(f),0,false,173381.60000014305,173381.20000004768,166226.883,166236,166243.381,173426.703,1,40,4,
sequence,flow.Sequence,6_3,2023-11-30T17:08:00.899Z,,,,,,,,,,,7137.81900004769,completion,,,,,,,low,low,,,,,,,true,,,,,false,173381.90000009537,173381.20000004768,166226.883,166236,166243.381,173426.703,1,40,,
trial,html.Screen,6_4_0,2023-11-30T17:08:06.171Z,,,,1,-0.7809949855371787,0.8493861117004308,,,true,hl,5225.197000095359,response,1.0865333402803938,1.2,-1.2,-1.0542635307358266,1.2,-1.2,high,low,,ISIC_7450481.JPG,,ISIC_0034006.JPG,,26,true,0.3600000000000002,hl,keypress(j),0,false,178652,178651.90000009537,173376.642,173382.20000004768,173426.703,178660.013,1,40,5,
sequence,flow.Sequence,6_4,2023-11-30T17:08:06.171Z,,,,,,,,,,,5225.197000095359,completion,,,,,,,high,low,,,,,,,true,,,,,false,178652,178651.90000009537,173376.642,173382.10000014305,173426.703,178660.013,1,40,,
trial,html.Screen,6_5_0,2023-11-30T17:08:11.731Z,,,,1,-1.0264463986917702,1.2804054832904397,,,true,hl,5552.187000047677,response,0.7877939497981142,1.2,-1.2,-0.8415032780288271,1.2,-1.2,high,low,,ISIC_7889838.JPG,,ISIC_0067308.JPG,,33,true,0.42000000000000026,hl,keypress(j),0,false,184212.40000009537,184212.20000004768,178643.473,178652.10000014305,178660.013,184226.762,1,40,6,
sequence,flow.Sequence,6_5,2023-11-30T17:08:11.731Z,,,,,,,,,,,5552.187000047677,completion,,,,,,,high,low,,,,,,,true,,,,,false,184212.60000014305,184212.20000004768,178643.473,178652.10000014305,178660.013,184226.762,1,40,,
trial,html.Screen,6_6_0,2023-11-30T17:08:19.852Z,,,,1,1.0789197754694622,1.1654690806750023,,,true,ll,8105.6380000953795,response,-0.9053396132028096,1.2,-1.2,-0.7935069588038893,1.2,-1.2,low,low,,ISIC_1576437.JPG,,ISIC_0010729.JPG,,339,true,0.42000000000000026,ll,keypress(f),0,false,192332.70000004768,192332.40000009537,184210.07,184212.70000004768,184226.762,192343.312,1,40,7,
sequence,flow.Sequence,6_6,2023-11-30T17:08:19.852Z,,,,,,,,,,,8105.6380000953795,completion,,,,,,,low,low,,,,,,,true,,,,,false,192333.20000004768,192332.40000009537,184210.07,184212.70000004768,184226.762,192343.312,1,40,,
trial,html.Screen,6_7_0,2023-11-30T17:08:22.948Z,,,,1,1.2318069697449794,1.1703576816778267,,,true,ll,3085.788000143046,response,-1.101346104814838,1.2,-1.2,-1.1225813067473052,1.2,-1.2,low,low,,ISIC_2732573.JPG,,ISIC_8175453.JPG,,53,true,0.15000000000000002,ll,keypress(f),0,false,195429.29999995232,195429.10000014305,192326.515,192333.40000009537,192343.312,195443.316,1,40,8,
sequence,flow.Sequence,6_7,2023-11-30T17:08:22.949Z,,,,,,,,,,,3085.788000143046,completion,,,,,,,low,low,,,,,,,true,,,,,false,195429.70000004768,195429.10000014305,192326.515,192333.20000004768,192343.312,195443.316,1,40,,
trial,html.Screen,6_8_0,2023-11-30T17:08:26.461Z,,,,1,0.9433720631499012,-1.0582071940347648,,,true,lh,3498.1840000000084,response,-1.0213365328004047,1.2,-1.2,1.088524359911891,1.2,-1.2,low,high,,ISIC_4890201.JPG,,ISIC_5434229.JPG,,27,true,0.42000000000000026,lh,keypress(e),0,false,198941.90000009537,198941.5,195426.743,195429.90000009537,195443.316,198960.578,1,40,9,
sequence,flow.Sequence,6_8,2023-11-30T17:08:26.461Z,,,,,,,,,,,3498.1840000000084,completion,,,,,,,low,high,,,,,,,true,,,,,false,198942.40000009537,198941.5,195426.743,195429.90000009537,195443.316,198960.578,1,40,,
trial,html.Screen,6_9_0,2023-11-30T17:08:31.324Z,,,,1,1.2706447584800626,1.0903308007916603,,,true,ll,4844.221999952308,response,-0.9152802917888962,1.2,-1.2,-0.8414601987949015,1.2,-1.2,low,low,,ISIC_9425937.JPG,,ISIC_0060341.JPG,,245,true,0.3600000000000002,ll,keypress(f),0,false,203805,203804.79999995232,198926.557,198942.5,198960.578,203809.962,1,40,10,
sequence,flow.Sequence,6_9,2023-11-30T17:08:31.324Z,,,,,,,,,,,4844.221999952308,completion,,,,,,,low,low,,,,,,,true,,,,,false,203805.40000009537,203804.79999995232,198926.557,198942.40000009537,198960.578,203809.962,1,40,,
trial,html.Screen,6_10_0,2023-11-30T17:08:35.300Z,,,,1,-1.1877026569952844,-1.1604367569896263,,,true,hh,3971.1380001430516,response,1.241406480986552,1.2,-1.2,1.081912821786771,1.2,-1.2,high,high,,ISIC_0064589.JPG,,ISIC_4223155.JPG,,26,true,0.15000000000000002,hh,keypress(i),0,false,207781.40000009537,207781.10000014305,203793.395,203805.60000014305,203809.962,207809.936,1,40,11,
sequence,flow.Sequence,6_10,2023-11-30T17:08:35.301Z,,,,,,,,,,,3971.1380001430516,completion,,,,,,,high,high,,,,,,,true,,,,,false,207781.79999995232,207781.10000014305,203793.395,203805.5,203809.962,207809.936,1,40,,
trial,html.Screen,6_11_0,2023-11-30T17:08:39.804Z,,,,1,-1.0022829373011404,0.8311726972863814,,,true,hl,4474.664000143064,response,1.2695509547992938,1.2,-1.2,-0.9641099676945492,1.2,-1.2,high,low,,ISIC_0033287.JPG,,ISIC_0025841.JPG,,26,true,0.3600000000000002,hl,keypress(j),0,false,212284.79999995232,212284.60000014305,207776.561,207782,207809.936,212293.261,1,40,12,
sequence,flow.Sequence,6_11,2023-11-30T17:08:39.804Z,,,,,,,,,,,4474.664000143064,completion,,,,,,,high,low,,,,,,,true,,,,,false,212285.10000014305,212284.60000014305,207776.561,207781.90000009537,207809.936,212293.261,1,40,,
trial,html.Screen,6_12_0,2023-11-30T17:08:42.700Z,,,,1,1.1388430156686884,1.2700552354887775,,,true,ll,2887.439000047685,response,-1.0474638406367112,1.2,-1.2,-0.821358930964015,1.2,-1.2,low,low,,ISIC_9939653.JPG,,ISIC_0025277.JPG,,339,true,0.42000000000000026,ll,keypress(f),0,false,215181,215180.70000004768,212276.704,212285.40000009537,212293.261,215193.244,1,40,13,
sequence,flow.Sequence,6_12,2023-11-30T17:08:42.700Z,,,,,,,,,,,2887.439000047685,completion,,,,,,,low,low,,,,,,,true,,,,,false,215181.40000009537,215180.70000004768,212276.704,212285.40000009537,212293.261,215193.244,1,40,,
trial,html.Screen,6_13_0,2023-11-30T17:08:45.452Z,,,,1,-1.0022829373011404,0.8311726972863814,,,true,hl,2739.5559999523102,response,1.0751036484083878,1.2,-1.2,-1.143906455483852,1.2,-1.2,high,low,,ISIC_0033287.JPG,,ISIC_0064406.JPG,,26,true,0.3600000000000002,hl,keypress(j),0,false,217933.10000014305,217932.79999995232,215176.726,215181.5,215193.244,217943.409,1,40,14,
sequence,flow.Sequence,6_13,2023-11-30T17:08:45.452Z,,,,,,,,,,,2739.5559999523102,completion,,,,,,,high,low,,,,,,,true,,,,,false,217933.5,217932.79999995232,215176.726,215181.5,215193.244,217943.409,1,40,,
trial,html.Screen,6_14_0,2023-11-30T17:08:48.492Z,,,,1,-1.2249552940807693,-1.1723015116910682,,,true,hh,3029.2910000476695,response,1.5371189604118314,1.2,-1.2,0.9582474649169744,1.2,-1.2,high,high,,ISIC_0055251.JPG,,ISIC_0821520.JPG,,253,true,0.42000000000000026,hh,keypress(i),0,false,220973,220972.70000004768,217926.803,217933.60000014305,217943.409,220976.607,1,40,15,
sequence,flow.Sequence,6_14,2023-11-30T17:08:48.492Z,,,,,,,,,,,3029.2910000476695,completion,,,,,,,high,high,,,,,,,true,,,,,false,220973.5,220972.70000004768,217926.803,217933.60000014305,217943.409,220976.607,1,40,,
trial,html.Screen,6_15_0,2023-11-30T17:08:51.643Z,,,,1,1.09666761087476,1.1072126870290426,,,true,ll,3146.993000143062,response,-1.2923059965680113,1.2,-1.2,-1.222688159093534,1.2,-1.2,low,low,,ISIC_0071754.JPG,,ISIC_0072175.JPG,,30,true,0.1,ll,keypress(f),0,false,224123.79999995232,224123.60000014305,220960.02,220973.60000014305,220976.607,224143.23,1,40,16,
sequence,flow.Sequence,6_15,2023-11-30T17:08:51.643Z,,,,,,,,,,,3146.993000143062,completion,,,,,,,low,low,,,,,,,true,,,,,false,224123.79999995232,224123.60000014305,220960.02,220973.5,220976.607,224143.23,1,40,,
trial,html.Screen,6_16_0,2023-11-30T17:08:54.482Z,,,,1,-0.9235571765207048,1.0008081653938232,,,true,hl,2820.170000095357,response,0.869932994914832,1.2,-1.2,-0.8880533324432531,1.2,-1.2,high,low,,ISIC_8796632.JPG,,ISIC_8617084.JPG,,26,true,0.3600000000000002,hl,keypress(j),0,false,226963.5,226963.40000009537,224109.782,224123.90000009537,224143.23,226976.544,1,40,17,
sequence,flow.Sequence,6_16,2023-11-30T17:08:54.482Z,,,,,,,,,,,2820.170000095357,completion,,,,,,,high,low,,,,,,,true,,,,,false,226963.60000014305,226963.40000009537,224109.782,224123.90000009537,224143.23,226976.544,1,40,,
trial,html.Screen,6_17_0,2023-11-30T17:08:57.483Z,,,,1,-0.9873794329144926,0.7991077882008257,,,true,hl,2987.4560000000056,response,1.0865333402803938,1.2,-1.2,-1.0542635307358266,1.2,-1.2,high,low,,ISIC_0013498.JPG,,ISIC_0034006.JPG,,33,true,0.42000000000000026,hl,keypress(j),0,false,229964,229964,226959.812,226963.60000014305,226976.544,229976.565,1,40,18,
sequence,flow.Sequence,6_17,2023-11-30T17:08:57.483Z,,,,,,,,,,,2987.4560000000056,completion,,,,,,,high,low,,,,,,,true,,,,,false,229964.10000014305,229964,226959.812,226963.60000014305,226976.544,229976.565,1,40,,
trial,html.Screen,6_18_0,2023-11-30T17:09:02.684Z,,,,1,0.9433720631499012,-1.0582071940347648,,,true,lh,5188.734999952314,response,-0.796241477082623,1.2,-1.2,0.9017449335975743,1.2,-1.2,low,high,,ISIC_4890201.JPG,,ISIC_8588033.JPG,,27,true,0.42000000000000026,lh,keypress(e),0,false,235165.5,235165.29999995232,229960.024,229964.10000014305,229976.565,235176.501,1,40,19,
sequence,flow.Sequence,6_18,2023-11-30T17:09:02.685Z,,,,,,,,,,,5188.734999952314,completion,,,,,,,low,high,,,,,,,true,,,,,false,235165.90000009537,235165.29999995232,229960.024,229964.10000014305,229976.565,235176.501,1,40,,
trial,html.Screen,6_19_0,2023-11-30T17:09:05.772Z,,,,1,1.1388430156686884,1.2700552354887775,,,true,ll,3076.298999952327,response,-0.9777849718157332,1.2,-1.2,-1.117811430082889,1.2,-1.2,low,low,,ISIC_9939653.JPG,,ISIC_3256887.JPG,,245,true,0.3600000000000002,ll,keypress(f),0,false,238253.10000014305,238252.79999995232,235159.993,235166.10000014305,235176.501,238276.518,1,40,20,
sequence,flow.Sequence,6_19,2023-11-30T17:09:05.772Z,,,,,,,,,,,3076.298999952327,completion,,,,,,,low,low,,,,,,,true,,,,,false,238253.5,238252.79999995232,235159.993,235166,235176.501,238276.518,1,40,,
trial,html.Screen,6_20_0,2023-11-30T17:09:09.670Z,,,,1,1.0143509683988825,-1.3163955902021656,,,true,lh,3873.08200014304,response,-0.8200962008791046,1.2,-1.2,0.7936051642828523,1.2,-1.2,low,high,,ISIC_0062031.JPG,,ISIC_0027031.JPG,,27,true,0.42000000000000026,lh,keypress(e),0,false,242149.90000009537,242149.60000014305,238243.354,238253.70000004768,238276.518,242160.047,1,40,21,
sequence,flow.Sequence,6_20,2023-11-30T17:09:09.670Z,,,,,,,,,,,3873.08200014304,completion,,,,,,,low,high,,,,,,,true,,,,,false,242150.29999995232,242149.60000014305,238243.354,238253.60000014305,238276.518,242160.047,1,40,,
trial,html.Screen,6_21_0,2023-11-30T17:09:14.100Z,,,,1,-1.2750452296609045,-1.1682369131232675,,,true,hh,4419.453000000009,response,1.0955230579285264,1.2,-1.2,0.8842300616754196,1.2,-1.2,high,high,,ISIC_0066399.JPG,,ISIC_4148086.JPG,,179,true,0.3600000000000002,hh,keypress(i),0,false,246579.60000014305,246579.5,242143.194,242150.40000009537,242160.047,246593.194,1,40,22,
sequence,flow.Sequence,6_21,2023-11-30T17:09:14.100Z,,,,,,,,,,,4419.453000000009,completion,,,,,,,high,high,,,,,,,true,,,,,false,246579.70000004768,246579.5,242143.194,242150.40000009537,242160.047,246593.194,1,40,,
trial,html.Screen,6_22_0,2023-11-30T17:09:17.214Z,,,,1,-1.2322060291690602,-1.2686491386389651,,,true,hh,3100.1059999523277,response,1.086647361897092,1.2,-1.2,1.1528935990320313,1.2,-1.2,high,high,,ISIC_0011697.JPG,,ISIC_3505339.JPG,,26,true,0.15000000000000002,hh,keypress(i),0,false,249693.60000014305,249693.29999995232,246576.518,246579.70000004768,246593.194,249710.107,1,40,23,
sequence,flow.Sequence,6_22,2023-11-30T17:09:17.214Z,,,,,,,,,,,3100.1059999523277,completion,,,,,,,high,high,,,,,,,true,,,,,false,249693.90000009537,249693.29999995232,246576.518,246579.70000004768,246593.194,249710.107,1,40,,
trial,html.Screen,6_23_0,2023-11-30T17:09:19.949Z,,,,1,1.2503149164557643,1.0796591227570405,,,true,ll,2718.7930000953784,response,-1.1383813631375823,1.2,-1.2,-1.1319312220332556,1.2,-1.2,low,low,,ISIC_2466892.JPG,,ISIC_6227397.JPG,,30,true,0.1,ll,keypress(f),0,false,252429.10000014305,252428.90000009537,249693.18,249694.10000014305,249710.107,252443.328,1,40,24,
sequence,flow.Sequence,6_23,2023-11-30T17:09:19.950Z,,,,,,,,,,,2718.7930000953784,completion,,,,,,,low,low,,,,,,,true,,,,,false,252429.5,252428.90000009537,249693.18,249694.10000014305,249710.107,252443.328,1,40,,
trial,html.Screen,6_24_0,2023-11-30T17:09:21.948Z,,,,1,-1.1164729501046406,-1.2978935747992253,,,true,hh,1984.2720001430425,response,1.2706447584800626,1.2,-1.2,1.0903308007916603,1.2,-1.2,high,high,,ISIC_0034166.JPG,,ISIC_9425937.JPG,,26,true,0.15000000000000002,hh,keypress(i),0,false,254427.70000004768,254427.60000014305,252426.659,252429.79999995232,252443.328,254443.443,1,40,25,
sequence,flow.Sequence,6_24,2023-11-30T17:09:21.948Z,,,,,,,,,,,1984.2720001430425,completion,,,,,,,high,high,,,,,,,true,,,,,false,254427.79999995232,254427.60000014305,252426.659,252429.79999995232,252443.328,254443.443,1,40,,
trial,html.Screen,6_25_0,2023-11-30T17:09:24.029Z,,,,1,1.131522954199764,1.1047184491749509,,,true,ll,2064.856999952317,response,-1.2181031651370575,1.2,-1.2,-1.2158573487067317,1.2,-1.2,low,low,,ISIC_1868816.JPG,,ISIC_7242312.JPG,,30,true,0.1,ll,keypress(f),0,false,256508.70000004768,256508.29999995232,254426.616,254427.79999995232,254443.443,256543.144,1,40,26,
sequence,flow.Sequence,6_25,2023-11-30T17:09:24.029Z,,,,,,,,,,,2064.856999952317,completion,,,,,,,low,low,,,,,,,true,,,,,false,256509.20000004768,256508.29999995232,254426.616,254427.79999995232,254443.443,256543.144,1,40,,
trial,html.Screen,6_26_0,2023-11-30T17:09:25.798Z,,,,1,1.0751036484083878,-1.143906455483852,,,true,lh,1734.155999952316,response,-1.0115965332688306,1.2,-1.2,0.8282633603842442,1.2,-1.2,low,high,,ISIC_0064406.JPG,,ISIC_1069587.JPG,,27,true,0.42000000000000026,lh,keypress(e),0,false,258277.5,258277.29999995232,256526.476,256509.29999995232,256543.144,258293.153,1,40,27,
sequence,flow.Sequence,6_26,2023-11-30T17:09:25.798Z,,,,,,,,,,,1734.155999952316,completion,,,,,,,low,high,,,,,,,true,,,,,false,258277.90000009537,258277.29999995232,256526.476,256509.29999995232,256543.144,258293.153,1,40,,
trial,html.Screen,6_27_0,2023-11-30T17:09:27.388Z,,,,1,1.0865333402803938,-1.0542635307358266,,,true,lh,1574.3470000000088,response,-0.8200962008791046,1.2,-1.2,0.7936051642828523,1.2,-1.2,low,high,,ISIC_0034006.JPG,,ISIC_0027031.JPG,,27,true,0.42000000000000026,lh,keypress(e),0,false,259867.60000014305,259867.5,258276.612,258278.20000004768,258293.153,259876.471,1,40,28,
sequence,flow.Sequence,6_27,2023-11-30T17:09:27.388Z,,,,,,,,,,,1574.3470000000088,completion,,,,,,,low,high,,,,,,,true,,,,,false,259867.70000004768,259867.5,258276.612,258278.10000014305,258293.153,259876.471,1,40,,
trial,html.Screen,6_28_0,2023-11-30T17:09:29.077Z,,,,1,-0.8623414234919863,0.782830143980698,,,true,hl,1680.1290001430607,response,1.0143509683988825,1.2,-1.2,-1.3163955902021656,1.2,-1.2,high,low,,ISIC_2727016.JPG,,ISIC_0062031.JPG,,26,true,0.3600000000000002,hl,keypress(j),0,false,261556.79999995232,261556.60000014305,259859.988,259867.70000004768,259876.471,261559.865,1,40,29,
sequence,flow.Sequence,6_28,2023-11-30T17:09:29.077Z,,,,,,,,,,,1680.1290001430607,completion,,,,,,,high,low,,,,,,,true,,,,,false,261557.20000004768,261556.60000014305,259859.988,259867.70000004768,259876.471,261559.865,1,40,,
trial,html.Screen,6_29_0,2023-11-30T17:09:30.653Z,,,,1,0.869932994914832,-0.8880533324432531,,,true,lh,1573.0350000953767,response,-0.948927472020595,1.2,-1.2,1.0660437155921598,1.2,-1.2,low,high,,ISIC_8617084.JPG,,ISIC_5808758.JPG,,27,true,0.42000000000000026,lh,keypress(e),0,false,263133.2000000477,263132.90000009537,261543.147,261557.40000009537,261559.865,263143.129,1,40,30,
sequence,flow.Sequence,6_29,2023-11-30T17:09:30.654Z,,,,,,,,,,,1573.0350000953767,completion,,,,,,,low,high,,,,,,,true,,,,,false,263133.60000014305,263132.90000009537,261543.147,261557.40000009537,261559.865,263143.129,1,40,,
trial,html.Screen,6_30_0,2023-11-30T17:09:32.076Z,,,,1,1.011737552725394,-0.8500530224490773,,,true,lh,1412.271000095352,response,-0.8035152873995188,1.2,-1.2,0.82868450251632,1.2,-1.2,low,high,,ISIC_2998367.JPG,,ISIC_0010671.JPG,,27,true,0.42000000000000026,lh,keypress(e),0,false,264555.5,264555.40000009537,263126.517,263133.7999999523,263143.129,264559.855,1,40,31,
sequence,flow.Sequence,6_30,2023-11-30T17:09:32.076Z,,,,,,,,,,,1412.271000095352,completion,,,,,,,low,high,,,,,,,true,,,,,false,264555.60000014305,264555.40000009537,263126.517,263133.7000000477,263143.129,264559.855,1,40,,
trial,html.Screen,6_31_0,2023-11-30T17:09:33.549Z,,,,1,-1.255256820488545,-1.1206426433062562,,,true,hh,1468.6450000000186,response,1.135787555082309,1.2,-1.2,1.0095789588135065,1.2,-1.2,high,high,,ISIC_0024652.JPG,,ISIC_0032526.JPG,,179,true,0.3600000000000002,hh,keypress(i),0,false,266028.7000000477,266028.5,264543.398,264555.60000014305,264559.855,266059.79,1,40,32,
sequence,flow.Sequence,6_31,2023-11-30T17:09:33.549Z,,,,,,,,,,,1468.6450000000186,completion,,,,,,,high,high,,,,,,,true,,,,,false,266029.10000014305,266028.5,264543.398,264555.60000014305,264559.855,266059.79,1,40,,
trial,html.Screen,6_32_0,2023-11-30T17:09:35.094Z,,,,1,-0.796241477082623,0.9017449335975743,,,true,hl,1513.5099999523372,response,1.020990671779317,1.2,-1.2,-1.0116513850520903,1.2,-1.2,high,low,,ISIC_8588033.JPG,,ISIC_0011995.JPG,,26,true,0.3600000000000002,hl,keypress(j),0,false,267573.60000014305,267573.2999999523,266026.692,266029.2999999523,266059.79,267576.526,1,40,33,
sequence,flow.Sequence,6_32,2023-11-30T17:09:35.094Z,,,,,,,,,,,1513.5099999523372,completion,,,,,,,high,low,,,,,,,true,,,,,false,267573.90000009537,267573.2999999523,266026.692,266029.2999999523,266059.79,267576.526,1,40,,
trial,html.Screen,6_33_0,2023-11-30T17:09:36.476Z,,,,1,-0.8035152873995188,0.82868450251632,,,true,hl,1378.8740000953549,response,0.9579209317488,1.2,-1.2,-1.0147487101263497,1.2,-1.2,high,low,,ISIC_0010671.JPG,,ISIC_8124482.JPG,,33,true,0.42000000000000026,hl,keypress(j),0,false,268955.40000009537,268955.40000009537,267560.043,267574.10000014305,267576.526,268959.784,1,40,34,
sequence,flow.Sequence,6_33,2023-11-30T17:09:36.476Z,,,,,,,,,,,1378.8740000953549,completion,,,,,,,high,low,,,,,,,true,,,,,false,268955.5,268955.40000009537,267560.043,267574.10000014305,267576.526,268959.784,1,40,,
trial,html.Screen,6_34_0,2023-11-30T17:09:38.029Z,,,,1,1.2075172235545184,-0.9116724966267612,,,true,lh,1548.816000143066,response,-0.7998855902596425,1.2,-1.2,1.1518579145663017,1.2,-1.2,low,high,,ISIC_0024235.JPG,,ISIC_0025061.JPG,,27,true,0.42000000000000026,lh,keypress(e),0,false,270508.90000009537,270508.60000014305,268943.215,268955.60000014305,268959.784,270526.503,1,40,35,
sequence,flow.Sequence,6_34,2023-11-30T17:09:38.029Z,,,,,,,,,,,1548.816000143066,completion,,,,,,,low,high,,,,,,,true,,,,,false,270509.2999999523,270508.60000014305,268943.215,268955.60000014305,268959.784,270526.503,1,40,,
trial,html.Screen,6_35_0,2023-11-30T17:09:39.349Z,,,,1,0.869932994914832,-0.8880533324432531,,,true,lh,1301.6970000476576,response,-0.8623414234919863,1.2,-1.2,0.782830143980698,1.2,-1.2,low,high,,ISIC_8617084.JPG,,ISIC_2727016.JPG,,27,true,0.42000000000000026,lh,keypress(e),0,false,271828.5,271828.2000000477,270509.98,270509.5,270526.503,271843.387,1,40,36,
sequence,flow.Sequence,6_35,2023-11-30T17:09:39.349Z,,,,,,,,,,,1301.6970000476576,completion,,,,,,,low,high,,,,,,,true,,,,,false,271828.90000009537,271828.2000000477,270509.98,270509.40000009537,270526.503,271843.387,1,40,,
trial,html.Screen,6_36_0,2023-11-30T17:09:40.909Z,,,,1,-1.101214461533281,-1.1849883512428183,,,true,hh,1545.4129999523284,response,1.1642596483638106,1.2,-1.2,1.109799097093339,1.2,-1.2,high,high,,ISIC_0064943.JPG,,ISIC_0765584.JPG,,179,true,0.3600000000000002,hh,keypress(i),0,false,273389,273388.7999999523,271826.582,271829,271843.387,273393.112,1,40,37,
sequence,flow.Sequence,6_36,2023-11-30T17:09:40.910Z,,,,,,,,,,,1545.4129999523284,completion,,,,,,,high,high,,,,,,,true,,,,,false,273389.40000009537,273388.7999999523,271826.582,271829,271843.387,273393.112,1,40,,
trial,html.Screen,6_37_0,2023-11-30T17:09:42.397Z,,,,1,1.2503149164557643,1.0796591227570405,,,true,ll,1483.2880000953446,response,-1.1877026569952844,1.2,-1.2,-1.1604367569896263,1.2,-1.2,low,low,,ISIC_2466892.JPG,,ISIC_0064589.JPG,,30,true,0.1,ll,keypress(f),0,false,274876.60000014305,274876.40000009537,273376.658,273389.5,273393.112,274893.085,1,40,38,
sequence,flow.Sequence,6_37,2023-11-30T17:09:42.397Z,,,,,,,,,,,1483.2880000953446,completion,,,,,,,low,low,,,,,,,true,,,,,false,274876.90000009537,274876.40000009537,273376.658,273389.5,273393.112,274893.085,1,40,,
trial,html.Screen,6_38_0,2023-11-30T17:09:43.902Z,,,,1,-1.0115965332688306,0.8282633603842442,,,true,hl,1488.414999999979,response,1.331700944308701,1.2,-1.2,-0.9395196143259436,1.2,-1.2,high,low,,ISIC_1069587.JPG,,ISIC_1668831.JPG,,26,true,0.3600000000000002,hl,keypress(j),0,false,276381.7000000477,276381.5,274876.682,274877.2000000477,274893.085,276393.294,1,40,39,
sequence,flow.Sequence,6_38,2023-11-30T17:09:43.902Z,,,,,,,,,,,1488.414999999979,completion,,,,,,,high,low,,,,,,,true,,,,,false,276382.10000014305,276381.5,274876.682,274877.10000014305,274893.085,276393.294,1,40,,
trial,html.Screen,6_39_0,2023-11-30T17:09:45.515Z,,,,1,-1.29026082950341,-1.144672688339213,,,true,hh,1601.8060001430567,response,1.0316392011945703,1.2,-1.2,1.1580619988377847,1.2,-1.2,high,high,,ISIC_0054317.JPG,,ISIC_0054206.JPG,,253,true,0.42000000000000026,hh,keypress(i),0,false,277995.2000000477,277995.10000014305,276376.674,276382.2999999523,276393.294,278009.978,1,40,40,
sequence,flow.Sequence,6_39,2023-11-30T17:09:45.516Z,,,,,,,,,,,1601.8060001430567,completion,,,,,,,high,high,,,,,,,true,,,,,false,277995.40000009537,277995.10000014305,276376.674,276382.2000000477,276393.294,278009.978,1,40,,
practice_loop,flow.Loop,6,2023-11-30T17:09:45.516Z,,,,,,,,,,,127151.59900014306,completion,,,,,,,,,,,,,,,true,,,,,false,277995.5,277995.10000014305,150793.522,150810.60000014305,150843.501,278009.978,1,40,,
stair_instructions,html.Screen,7,2023-11-30T17:09:56.075Z,,,,,,,,,,,10544.222000047681,response,,,,,,,,,,,,,,,,,continue,click button,,,288554.7000000477,288554.2000000477,277993.294,277995.5,278009.978,288559.714,,,,
trial,html.Screen,8_0_0,2023-11-30T17:10:12.072Z,,,,2,0,0.0264544974620926,,0.05,,,16016.80700000003,timeout,1.011737552725394,1.2,-1.2,-0.8500530224490773,1.2,-1.2,high,low,,ISIC_0056991.JPG,,ISIC_2998367.JPG,33,26,false,0.3600000000000002,,,0,true,304550.40000009537,304550.2999999523,288543.289,288554.7999999523,288559.714,304576.521,1,40,1,
sequence,flow.Sequence,8_0,2023-11-30T17:10:12.072Z,,,,,,,,,,,15990.585999952338,completion,,,,,,,high,low,,,,,,,false,,,,,true,304550.5,304550.2999999523,288543.289,288554.7999999523,288559.714,304576.521,1,40,,
trial,html.Screen,8_1_0,2023-11-30T17:10:17.485Z,,,,2,0.0134764727102299,0.0033499036460912,,0.05,true,hh,5386.8790000953595,response,1.2706447584800626,1.2,-1.2,1.0903308007916603,1.2,-1.2,high,high,,ISIC_0009998.JPG,,ISIC_9425937.JPG,33,26,false,0.15000000000000002,hh,keypress(i),0,true,309963.40000009537,309963.40000009537,304559.747,304550.60000014305,304576.521,309976.412,1,40,2,
sequence,flow.Sequence,8_1,2023-11-30T17:10:17.485Z,,,,,,,,,,,5386.8790000953595,completion,,,,,,,high,high,,,,,,,false,,,,,true,309963.60000014305,309963.40000009537,304559.747,304550.60000014305,304576.521,309976.412,1,40,,
trial,html.Screen,8_2_0,2023-11-30T17:10:23.047Z,,,,2,0.0188047466661863,-0.0288346930436979,,0.05,false,ll,5548.2880000476725,response,-1.101346104814838,1.15,-1.15,-1.1225813067473052,1.15,-1.15,low,low,,ISIC_0014157.JPG,,ISIC_8175453.JPG,33,27,false,0.1,hl,keypress(j),0,true,315524.90000009537,315524.7000000477,309959.743,309963.60000014305,309976.412,315543.052,1,40,3,
sequence,flow.Sequence,8_2,2023-11-30T17:10:23.047Z,,,,,,,,,,,5548.2880000476725,completion,,,,,,,low,low,,,,,,,false,,,,,true,315525.40000009537,315524.7000000477,309959.743,309963.60000014305,309976.412,315543.052,1,40,,
trial,html.Screen,8_3_0,2023-11-30T17:10:26.892Z,,,,2,0.0102460616775615,-0.0309670599545429,,0.05,false,ll,3826.947999999975,response,-1.2282561398079586,1.15,-1.15,-1.210457198775374,1.15,-1.15,low,low,,ISIC_0072041.JPG,,ISIC_9141817.JPG,33,27,false,0.1,hl,keypress(j),0,true,319370.2000000477,319370,315509.671,315525.7000000477,315543.052,319376.285,1,40,4,
sequence,flow.Sequence,8_3,2023-11-30T17:10:26.892Z,,,,,,,,,,,3826.947999999975,completion,,,,,,,low,low,,,,,,,false,,,,,true,319370.2999999523,319370,315509.671,315525.60000014305,315543.052,319376.285,1,40,,
trial,html.Screen,8_4_0,2023-11-30T17:10:31.143Z,,,,2,-0.0070725527271049,-0.0049995141077508,,0.05,false,ll,4244.514999952342,response,-1.1346217981791904,1.15,-1.15,-1.1555132168806113,1.15,-1.1165192527613395,low,low,,ISIC_6124481.JPG,,ISIC_0032771.JPG,33,31,false,0.1,lh,keypress(e),0,true,323621.10000014305,323620.7999999523,319359.8,319370.2999999523,319376.285,323626.375,1,40,5,
sequence,flow.Sequence,8_4,2023-11-30T17:10:31.143Z,,,,,,,,,,,4244.514999952342,completion,,,,,,,low,low,,,,,,,false,,,,,true,323621.60000014305,323620.7999999523,319359.8,319370.2999999523,319376.285,323626.375,1,40,,
trial,html.Screen,8_5_0,2023-11-30T17:10:36.030Z,,,,2,0.0097091270150747,-0.0417921315885292,,0.05,false,hl,4881.924999952316,response,0.8979276789594874,1.15,-1.15,-0.925374811016654,1.15,-1.1665192527613395,high,low,,ISIC_3967213.JPG,,ISIC_4208361.JPG,33,25,false,0.3200000000000002,hh,keypress(i),0,true,328508.60000014305,328508.2999999523,323609.762,323621.7999999523,323626.375,328526.302,1,40,6,
sequence,flow.Sequence,8_5,2023-11-30T17:10:36.031Z,,,,,,,,,,,4881.924999952316,completion,,,,,,,high,low,,,,,,,false,,,,,true,328509,328508.2999999523,323609.762,323621.7999999523,323626.375,328526.302,1,40,,
trial,html.Screen,8_6_0,2023-11-30T17:10:39.613Z,,,,2,-0.0027483411352856,-0.0100996915276271,,0.05,false,hh,3565.197999999975,response,1.0565911491759823,1.0999999999999999,-1.15,1.0221582682700174,1.15,-1.1665192527613395,high,high,,ISIC_7364041.JPG,,ISIC_6604862.JPG,33,30,false,0.13,ll,keypress(f),0,true,332091.60000014305,332091.5,328509.696,328509.2000000477,328526.302,332110.368,1,40,7,
sequence,flow.Sequence,8_6,2023-11-30T17:10:39.613Z,,,,,,,,,,,3565.197999999975,completion,,,,,,,high,high,,,,,,,false,,,,,true,332091.7000000477,332091.5,328509.696,328509.2000000477,328526.302,332110.368,1,40,,
trial,html.Screen,8_7_0,2023-11-30T17:10:42.557Z,,,,2,-0.0057914759495055,-0.0074667911845194,,0.05,false,lh,2924.6319999999832,response,-0.9388660854518424,1.15,-1.15,0.79533948698576,1.15,-1.1665192527613395,low,high,,ISIC_0058723.JPG,,ISIC_9291926.JPG,33,27,false,0.3700000000000002,hl,keypress(j),0,true,335035.10000014305,335035,332076.418,332091.7000000477,332110.368,335042.918,1,40,8,
sequence,flow.Sequence,8_7,2023-11-30T17:10:42.557Z,,,,,,,,,,,2924.6319999999832,completion,,,,,,,low,high,,,,,,,false,,,,,true,335035.2000000477,335035,332076.418,332091.7000000477,332110.368,335042.918,1,40,,
trial,html.Screen,8_8_0,2023-11-30T17:10:47.527Z,,,,2,0,0.0264544974620926,,0.05,false,lh,4961.982000095362,response,-0.8623414234919863,1.15,-1.15,0.782830143980698,1.15,-1.1665192527613395,low,high,,ISIC_0056991.JPG,,ISIC_2727016.JPG,33,27,false,0.3700000000000002,ll,keypress(f),0,true,340005.2000000477,340004.90000009537,335026.393,335035.2000000477,335042.918,340009.625,1,40,9,
sequence,flow.Sequence,8_8,2023-11-30T17:10:47.527Z,,,,,,,,,,,4961.982000095362,completion,,,,,,,low,high,,,,,,,false,,,,,true,340005.5,340004.90000009537,335026.393,335035.2000000477,335042.918,340009.625,1,40,,
trial,html.Screen,8_9_0,2023-11-30T17:10:51.543Z,,,,2,0.0159061451859594,0.0296598845560212,,0.05,false,hl,4010.975000143051,response,1.0026266089287914,1.15,-1.15,-1.0913275913920335,1.15,-1.1665192527613395,high,low,,ISIC_0072564.JPG,,ISIC_0033520.JPG,33,25,false,0.3200000000000002,hh,keypress(i),0,true,344020.90000009537,344020.60000014305,339992.991,340005.7000000477,340009.625,344026.242,1,40,10,
sequence,flow.Sequence,8_9,2023-11-30T17:10:51.543Z,,,,,,,,,,,4010.975000143051,completion,,,,,,,high,low,,,,,,,false,,,,,true,344021.2999999523,344020.60000014305,339992.991,340005.7000000477,340009.625,344026.242,1,40,,
trial,html.Screen,8_10_0,2023-11-30T17:10:55.039Z,,,,2,-0.0085520978188085,0.0464691161264081,,0.05,false,ll,3490.3580001430237,response,-1.2071341803968807,1.15,-1.15,-1.235960269089932,1.15,-1.1665192527613395,low,low,,ISIC_0758797.JPG,,ISIC_0058174.JPG,33,30,false,0.1,hl,keypress(j),0,true,347516.90000009537,347516.60000014305,344009.663,344021.5,344026.242,347526.208,1,40,11,
sequence,flow.Sequence,8_10,2023-11-30T17:10:55.039Z,,,,,,,,,,,3490.3580001430237,completion,,,,,,,low,low,,,,,,,false,,,,,true,347517.2999999523,347516.60000014305,344009.663,344021.5,344026.242,347526.208,1,40,,
trial,html.Screen,8_11_0,2023-11-30T17:11:02.237Z,,,,2,-0.0324770283903853,-0.0249968632204382,,0.05,false,lh,7189.4920000477,response,-0.8623414234919863,1.15,-1.15,0.782830143980698,1.15,-1.1665192527613395,low,high,,ISIC_7266462.JPG,,ISIC_2727016.JPG,33,27,false,0.3700000000000002,ll,keypress(f),0,true,354715.7999999523,354715.7000000477,347509.74,347517.5,347526.208,354726.272,1,40,12,
sequence,flow.Sequence,8_11,2023-11-30T17:11:02.238Z,,,,,,,,,,,7189.4920000477,completion,,,,,,,low,high,,,,,,,false,,,,,true,354715.90000009537,354715.7000000477,347509.74,347517.40000009537,347526.208,354726.272,1,40,,
trial,html.Screen,8_12_0,2023-11-30T17:11:05.389Z,,,,2,0.0362376068089956,0.047825070846155,,0.05,false,hh,3141.228000000003,response,1.0565911491759823,1.15,-1.15,1.0221582682700174,1.15,-1.1665192527613395,high,high,,ISIC_6985114.JPG,,ISIC_6604862.JPG,33,30,false,0.13,ll,keypress(f),0,true,357867.60000014305,357867.5,354709.314,354716,354726.272,357876.207,1,40,13,
sequence,flow.Sequence,8_12,2023-11-30T17:11:05.389Z,,,,,,,,,,,3141.228000000003,completion,,,,,,,high,high,,,,,,,false,,,,,true,357867.7000000477,357867.5,354709.314,354715.90000009537,354726.272,357876.207,1,40,,
trial,html.Screen,8_13_0,2023-11-30T17:11:10.384Z,,,,2,0.0188047466661863,-0.0288346930436979,,0.05,false,lh,4984.193000095373,response,-0.7870237732709365,1.15,-1.15,0.9172955251119376,1.15,-1.1665192527613395,low,high,,ISIC_0014157.JPG,,ISIC_0057716.JPG,33,27,false,0.3700000000000002,hl,keypress(j),0,true,362860.60000014305,362860.40000009537,357859.724,357867.7000000477,357876.207,362876.265,1,40,14,
sequence,flow.Sequence,8_13,2023-11-30T17:11:10.384Z,,,,,,,,,,,4984.193000095373,completion,,,,,,,low,high,,,,,,,false,,,,,true,362861,362860.40000009537,357859.724,357867.7000000477,357876.207,362876.265,1,40,,
trial,html.Screen,8_14_0,2023-11-30T17:11:13.615Z,,,,2,-0.0085520978188085,0.0464691161264081,,0.05,false,hl,3215.5349999523023,response,1.1181734135756094,1.15,-1.15,-0.944560381774994,1.15,-1.1665192527613395,high,low,,ISIC_0758797.JPG,,ISIC_9688534.JPG,33,25,false,0.3200000000000002,hh,keypress(i),0,true,366091.90000009537,366091.7999999523,362859.533,362861.2000000477,362876.265,366110.049,1,40,15,
sequence,flow.Sequence,8_14,2023-11-30T17:11:13.615Z,,,,,,,,,,,3215.5349999523023,completion,,,,,,,high,low,,,,,,,false,,,,,true,366092.10000014305,366091.7999999523,362859.533,362861.2000000477,362876.265,366110.049,1,40,,
trial,html.Screen,8_15_0,2023-11-30T17:11:17.559Z,,,,2,-0.0069555338059566,0.0310100918136373,,0.05,true,hh,3925.6510000476846,response,1.1642596483638106,1.15,-1.15,1.109799097093339,1.15,-1.1665192527613395,high,high,,ISIC_0011177.JPG,,ISIC_0765584.JPG,33,30,false,0.13,hh,keypress(i),0,true,370035.7000000477,370035.7000000477,366076.288,366092.10000014305,366110.049,370042.851,1,40,16,
sequence,flow.Sequence,8_15,2023-11-30T17:11:17.559Z,,,,,,,,,,,3925.6510000476846,completion,,,,,,,high,high,,,,,,,false,,,,,true,370035.90000009537,370035.7000000477,366076.288,366092.10000014305,366110.049,370042.851,1,40,,
trial,html.Screen,8_16_0,2023-11-30T17:11:22.647Z,,,,2,0.0051189696037511,-0.0396625911332438,,0.05,true,ll,5080.948999952292,response,-1.101214461533281,1.0870293727285747,-1.15,-1.1849883512428183,1.15,-1.1665192527613395,low,low,,ISIC_9742891.JPG,,ISIC_0064943.JPG,33,30,false,0.1,ll,keypress(f),0,true,375124,375123.7999999523,370026.335,370036,370042.851,375126.129,1,40,17,
sequence,flow.Sequence,8_16,2023-11-30T17:11:22.647Z,,,,,,,,,,,5080.948999952292,completion,,,,,,,low,low,,,,,,,false,,,,,true,375124.10000014305,375123.7999999523,370026.335,370035.90000009537,370042.851,375126.129,1,40,,
trial,html.Screen,8_17_0,2023-11-30T17:11:30.056Z,,,,2,0.0112310719058792,-0.0469047359904117,,0.05,false,ll,7406.271000095352,response,-1.2254187569955004,1.0870293727285747,-1.15,-1.174555235109734,1.15,-1.1665192527613395,low,low,,ISIC_0068184.JPG,,ISIC_0027187.JPG,33,30,false,0.1,hl,keypress(j),0,true,382532.7000000477,382532.40000009537,375109.582,375124.10000014305,375126.129,382542.797,1,40,18,
sequence,flow.Sequence,8_17,2023-11-30T17:11:30.056Z,,,,,,,,,,,7406.271000095352,completion,,,,,,,low,low,,,,,,,false,,,,,true,382533.10000014305,382532.40000009537,375109.582,375124.10000014305,375126.129,382542.797,1,40,,
trial,html.Screen,8_18_0,2023-11-30T17:11:33.312Z,,,,2,0.0134764727102299,0.0033499036460912,,0.05,true,hh,3246.3030001430307,response,1.072671714258808,1.0870293727285747,-1.15,1.0208498389771272,1.15,-1.129771793176276,high,high,,ISIC_0009998.JPG,,ISIC_5218773.JPG,33,31,false,0.13,hh,keypress(i),0,true,385789.40000009537,385789.10000014305,382526.116,382533.2999999523,382542.797,385809.478,1,40,19,
sequence,flow.Sequence,8_18,2023-11-30T17:11:33.313Z,,,,,,,,,,,3246.3030001430307,completion,,,,,,,high,high,,,,,,,false,,,,,true,385789.7999999523,385789.10000014305,382526.116,382533.2999999523,382542.797,385809.478,1,40,,
trial,html.Screen,8_19_0,2023-11-30T17:11:35.895Z,,,,2,-0.0070725527271049,-0.0049995141077508,,0.05,false,hl,2562.6220001430484,response,0.8579451262594331,1.0870293727285747,-1.15,-0.9633172970727744,0.9967607766179676,-1.129771793176276,high,low,,ISIC_6124481.JPG,,ISIC_0067172.JPG,33,26,false,0.28000000000000014,hh,keypress(i),0,true,388372.40000009537,388372.10000014305,385776.227,385790,385809.478,388376.185,1,40,20,
sequence,flow.Sequence,8_19,2023-11-30T17:11:35.896Z,,,,,,,,,,,2562.6220001430484,completion,,,,,,,high,low,,,,,,,false,,,,,true,388372.7000000477,388372.10000014305,385776.227,385789.90000009537,385809.478,388376.185,1,40,,
trial,html.Screen,8_20_0,2023-11-30T17:11:39.896Z,,,,2,0.0245376145053177,-0.0436993426328401,,0.05,true,hh,3996.515000047686,response,0.953802353776362,0.9153084202591205,-1.15,0.927101493584587,0.9967607766179676,-1.1797717931762761,high,high,,ISIC_0056444.JPG,,ISIC_9751601.JPG,33,38,false,0.1,hh,keypress(i),0,true,392373,392372.7000000477,388359.523,388372.90000009537,388376.185,392376.136,1,40,21,
sequence,flow.Sequence,8_20,2023-11-30T17:11:39.896Z,,,,,,,,,,,3996.515000047686,completion,,,,,,,high,high,,,,,,,false,,,,,true,392373.2999999523,392372.7000000477,388359.523,388372.90000009537,388376.185,392376.136,1,40,,
trial,html.Screen,8_21_0,2023-11-30T17:11:43.256Z,,,,2,-0.0389988030702649,-0.0143212271490256,,0.05,false,lh,3356.3640000000014,response,-1.0022829373011404,0.9153084202591205,-1.15,0.8311726972863814,0.9967607766179676,-1.1797717931762761,low,high,,ISIC_0064669.JPG,,ISIC_0033287.JPG,33,25,false,0.31000000000000016,hh,keypress(i),0,true,395732.60000014305,395732.5,392359.514,392373.40000009537,392376.136,395742.821,1,40,22,
sequence,flow.Sequence,8_21,2023-11-30T17:11:43.256Z,,,,,,,,,,,3356.3640000000014,completion,,,,,,,low,high,,,,,,,false,,,,,true,395732.90000009537,395732.5,392359.514,392373.40000009537,392376.136,395742.821,1,40,,
trial,html.Screen,8_22_0,2023-11-30T17:11:45.935Z,,,,2,0,0.0264544974620926,,0.05,false,hl,2669.1790000000037,response,0.9579209317488,0.9153084202591205,-1.15,-1.0147487101263497,0.8291370954354842,-1.1797717931762761,high,low,,ISIC_0056991.JPG,,ISIC_8124482.JPG,33,25,false,0.2300000000000001,hh,keypress(i),0,true,398412.2999999523,398412,395726.25,395733,395742.821,398426.238,1,40,23,
sequence,flow.Sequence,8_22,2023-11-30T17:11:45.936Z,,,,,,,,,,,2669.1790000000037,completion,,,,,,,high,low,,,,,,,false,,,,,true,398412.60000014305,398412,395726.25,395732.90000009537,395742.821,398426.238,1,40,,
trial,html.Screen,8_23_0,2023-11-30T17:11:48.040Z,,,,2,-0.0456515796420274,0.0273567130070961,,0.05,true,hh,2090.862000143039,response,0.8814695482989191,0.8925112126666934,-1.15,0.8440767077088777,0.8291370954354842,-1.1797717931762761,high,high,,ISIC_0068610.JPG,,ISIC_6392461.JPG,33,50,false,0.1,hh,keypress(i),0,true,400517.40000009537,400517.10000014305,398409.501,398412.7999999523,398426.238,400526.091,1,40,24,
sequence,flow.Sequence,8_23,2023-11-30T17:11:48.041Z,,,,,,,,,,,2090.862000143039,completion,,,,,,,high,high,,,,,,,false,,,,,true,400517.7999999523,400517.10000014305,398409.501,398412.7999999523,398426.238,400526.091,1,40,,
trial,html.Screen,8_24_0,2023-11-30T17:11:51.777Z,,,,2,0.0188047466661863,-0.0288346930436979,,0.05,false,lh,3727.3090000953525,response,-0.9235571765207048,0.8925112126666934,-1.15,1.0008081653938232,0.8291370954354842,-1.1797717931762761,low,high,,ISIC_0014157.JPG,,ISIC_8796632.JPG,33,26,false,0.2300000000000001,ll,keypress(f),0,true,404253.7000000477,404253.40000009537,400509.488,400517.90000009537,400526.091,404259.383,1,40,25,
sequence,flow.Sequence,8_24,2023-11-30T17:11:51.777Z,,,,,,,,,,,3727.3090000953525,completion,,,,,,,low,high,,,,,,,false,,,,,true,404254.10000014305,404253.40000009537,400509.488,400517.90000009537,400526.091,404259.383,1,40,,
trial,html.Screen,8_25_0,2023-11-30T17:11:58.344Z,,,,2,-0.0070725527271049,-0.0049995141077508,,0.05,false,ll,6560.916999952344,response,-1.2249552940807693,0.8925112126666934,-1.15,-1.1723015116910682,0.8791370954354842,-1.1797717931762761,low,low,,ISIC_6124481.JPG,,ISIC_0055251.JPG,33,32,false,0.1,hl,keypress(j),0,true,410820.5,410820.2999999523,404242.871,404254.2000000477,404259.383,410826.057,1,40,26,
sequence,flow.Sequence,8_25,2023-11-30T17:11:58.344Z,,,,,,,,,,,6560.916999952344,completion,,,,,,,low,low,,,,,,,false,,,,,true,410820.90000009537,410820.2999999523,404242.871,404254.2000000477,404259.383,410826.057,1,40,,
trial,html.Screen,8_26_0,2023-11-30T17:12:02.206Z,,,,2,0.0245376145053177,-0.0436993426328401,,0.05,false,lh,3856.7429999523447,response,-1.031415631053946,0.8925112126666934,-1.15,0.6661096126601223,0.8791370954354842,-1.1797717931762761,low,high,,ISIC_0056444.JPG,,ISIC_8976269.JPG,33,25,false,0.2600000000000001,hh,keypress(i),0,true,414682.90000009537,414682.7999999523,410809.443,410821,410826.057,414692.71,1,40,27,
sequence,flow.Sequence,8_26,2023-11-30T17:12:02.206Z,,,,,,,,,,,3856.7429999523447,completion,,,,,,,low,high,,,,,,,false,,,,,true,414683,414682.7999999523,410809.443,410821,410826.057,414692.71,1,40,,
trial,html.Screen,8_27_0,2023-11-30T17:12:05.608Z,,,,2,0.0188047466661863,-0.0288346930436979,,0.05,true,hh,3391.6900000953465,response,0.9902329779187954,0.8925112126666934,-1.15,0.8162558842613786,0.8791370954354842,-1.1797717931762761,high,high,,ISIC_0014157.JPG,,ISIC_5559730.JPG,33,41,false,0.1,hh,keypress(i),0,true,418084.7000000477,418084.40000009537,414675.955,414683,414692.71,418092.699,1,40,28,
sequence,flow.Sequence,8_27,2023-11-30T17:12:05.608Z,,,,,,,,,,,3391.6900000953465,completion,,,,,,,high,high,,,,,,,false,,,,,true,418085.10000014305,418084.40000009537,414675.955,414683,414692.71,418092.699,1,40,,
trial,html.Screen,8_28_0,2023-11-30T17:12:10.410Z,,,,2,0.0051189696037511,-0.0396625911332438,,0.05,false,ll,4792.300999999978,response,-1.2282561398079586,0.6911827484607505,-1.15,-1.210457198775374,0.6911827484607505,-1.1797717931762761,low,low,,ISIC_9742891.JPG,,ISIC_9141817.JPG,33,32,false,0.1,hl,keypress(j),0,true,422885.2999999523,422885,418076.199,418085.2999999523,418092.699,422892.693,1,40,29,
sequence,flow.Sequence,8_28,2023-11-30T17:12:10.410Z,,,,,,,,,,,4792.300999999978,completion,,,,,,,low,low,,,,,,,false,,,,,true,422885.7000000477,422885,418076.199,418085.2999999523,418092.699,422892.693,1,40,,
trial,html.Screen,8_29_0,2023-11-30T17:12:12.969Z,,,,2,-0.0217698886732706,0.0410870915161425,,0.05,false,ll,2551.707000095339,response,-1.2249552940807693,0.6911827484607505,-1.15,-1.1723015116910682,0.6911827484607505,-1.129771793176276,low,low,,ISIC_0072173.JPG,,ISIC_0055251.JPG,33,28,false,0.1,hl,keypress(j),0,true,425444.7000000477,425444.40000009537,422875.854,422885.90000009537,422892.693,425459.445,1,40,30,
sequence,flow.Sequence,8_29,2023-11-30T17:12:12.969Z,,,,,,,,,,,2551.707000095339,completion,,,,,,,low,low,,,,,,,false,,,,,true,425445.2000000477,425444.40000009537,422875.854,422885.90000009537,422892.693,425459.445,1,40,,
trial,html.Screen,8_30_0,2023-11-30T17:12:19.225Z,,,,2,-0.0363437082783146,-0.0333332186217051,,0.05,false,hl,6240.755000047677,response,0.6022772150590011,0.6911827484607505,-1.15,-1.089726615946061,0.6911827484607505,-1.129771793176276,high,low,,ISIC_3314555.JPG,,ISIC_0026302.JPG,33,25,false,0.17000000000000004,ll,keypress(f),0,true,431700.40000009537,431700.2000000477,425442.858,425445.2999999523,425459.445,431709.345,1,40,31,
sequence,flow.Sequence,8_30,2023-11-30T17:12:19.225Z,,,,,,,,,,,6240.755000047677,completion,,,,,,,high,low,,,,,,,false,,,,,true,431700.7999999523,431700.2000000477,425442.858,425445.2999999523,425459.445,431709.345,1,40,,
trial,html.Screen,8_31_0,2023-11-30T17:12:23.487Z,,,,2,-0.0456515796420274,0.0273567130070961,,0.05,false,hl,4253.355000047712,response,0.6866025217140785,0.7411827484607505,-1.15,-0.9978764930756644,0.6911827484607505,-1.0810140638185646,high,low,,ISIC_0068610.JPG,,ISIC_0009100.JPG,33,26,false,0.15000000000000002,hh,keypress(i),0,true,435962.7999999523,435962.7000000477,431692.678,431701,431709.345,435976.024,1,40,32,
sequence,flow.Sequence,8_31,2023-11-30T17:12:23.487Z,,,,,,,,,,,4253.355000047712,completion,,,,,,,high,low,,,,,,,false,,,,,true,435962.90000009537,435962.7000000477,431692.678,431700.90000009537,431709.345,435976.024,1,40,,
trial,html.Screen,8_32_0,2023-11-30T17:12:27.727Z,,,,2,-0.0116094682222121,0.0258434522530318,,0.05,false,hh,4226.976000000024,response,0.7467683840188639,0.7411827484607505,-1.15,0.6722813730167978,0.6911827484607505,-1.1310140638185646,high,high,,ISIC_9239632.JPG,,ISIC_9397126.JPG,33,92,false,0.1,hl,keypress(j),0,true,440203.10000014305,440203,435959.426,435962.90000009537,435976.024,440209.315,1,40,33,
sequence,flow.Sequence,8_32,2023-11-30T17:12:27.727Z,,,,,,,,,,,4226.976000000024,completion,,,,,,,high,high,,,,,,,false,,,,,true,440203.2000000477,440203,435959.426,435962.90000009537,435976.024,440209.315,1,40,,
trial,html.Screen,8_33_0,2023-11-30T17:12:31.186Z,,,,2,0.0409338693593207,-0.0072462710499874,,0.05,false,hl,3451.8850000476814,response,0.7083588209645494,0.6666854528664712,-1.15,-1.1496804492673935,0.7411827484607505,-1.1310140638185646,high,low,,ISIC_3608788.JPG,,ISIC_0047004.JPG,33,26,false,0.18000000000000005,hh,keypress(i),0,true,443661.5,443661.2000000477,440192.554,440203.2000000477,440209.315,443676.03,1,40,34,
sequence,flow.Sequence,8_33,2023-11-30T17:12:31.186Z,,,,,,,,,,,3451.8850000476814,completion,,,,,,,high,low,,,,,,,false,,,,,true,443661.90000009537,443661.2000000477,440192.554,440203.2000000477,440209.315,443676.03,1,40,,
trial,html.Screen,8_34_0,2023-11-30T17:12:33.985Z,,,,2,-0.0085520978188085,0.0464691161264081,,0.05,false,lh,2784.570000143023,response,-1.0164576835546473,0.6666854528664712,-1.15,0.8120626538423016,0.7411827484607505,-1.1810140638185647,low,high,,ISIC_0758797.JPG,,ISIC_6002694.JPG,33,26,false,0.21000000000000008,hh,keypress(i),0,true,446460.7999999523,446460.60000014305,443659.348,443662.10000014305,443676.03,446476.215,1,40,35,
sequence,flow.Sequence,8_34,2023-11-30T17:12:33.985Z,,,,,,,,,,,2784.570000143023,completion,,,,,,,low,high,,,,,,,false,,,,,true,446461.10000014305,446460.60000014305,443659.348,443662.10000014305,443676.03,446476.215,1,40,,
trial,html.Screen,8_35_0,2023-11-30T17:12:37.065Z,,,,2,-0.0050679133050021,0.0009714874637896,,0.05,false,ll,3063.8850001430255,response,-1.247270138097585,0.6666854528664712,-1.15,-1.1704704713504994,0.7411827484607505,-1.1810140638185647,low,low,,ISIC_9848743.JPG,,ISIC_0065774.JPG,33,32,false,0.1,hl,keypress(j),0,true,449540.40000009537,449540.10000014305,446459.5,446461.2999999523,446476.215,449542.683,1,40,36,
sequence,flow.Sequence,8_35,2023-11-30T17:12:37.065Z,,,,,,,,,,,3063.8850001430255,completion,,,,,,,low,low,,,,,,,false,,,,,true,449540.7999999523,449540.10000014305,446459.5,446461.2999999523,446476.215,449542.683,1,40,,
trial,html.Screen,8_36_0,2023-11-30T17:12:42.096Z,,,,2,0,0.0264544974620926,,0.05,false,lh,5028.616999952297,response,-1.1338210094314218,0.6666854528664712,-1.15,0.5906485710437454,0.7411827484607505,-1.1810140638185647,low,high,,ISIC_0056991.JPG,,ISIC_0046571.JPG,33,26,false,0.21000000000000008,ll,keypress(f),0,true,454571.40000009537,454571.2999999523,449526.031,449540.90000009537,449542.683,454575.944,1,40,37,
sequence,flow.Sequence,8_36,2023-11-30T17:12:42.096Z,,,,,,,,,,,5028.616999952297,completion,,,,,,,low,high,,,,,,,false,,,,,true,454571.5,454571.2999999523,449526.031,449540.90000009537,449542.683,454575.944,1,40,,
trial,html.Screen,8_37_0,2023-11-30T17:12:46.185Z,,,,2,-0.0027483411352856,-0.0100996915276271,,0.05,true,hl,4084.4560000953497,response,0.4933420175923746,0.6666854528664712,-1.15,-1.0063353542987443,0.7911827484607505,-1.1810140638185647,high,low,,ISIC_7364041.JPG,,ISIC_0072382.JPG,33,28,false,0.21000000000000008,hl,keypress(j),0,true,458660.7000000477,458660.40000009537,454559.33,454571.60000014305,454575.944,458675.952,1,40,38,
sequence,flow.Sequence,8_37,2023-11-30T17:12:46.185Z,,,,,,,,,,,4084.4560000953497,completion,,,,,,,high,low,,,,,,,false,,,,,true,458661.10000014305,458660.40000009537,454559.33,454571.60000014305,454575.944,458675.952,1,40,,
trial,html.Screen,8_38_0,2023-11-30T17:12:50.393Z,,,,2,0.0112310719058792,-0.0469047359904117,,0.05,false,lh,4192.347999952326,response,-1.0645919307156395,0.6166854528664711,-1.15,0.7087706688259032,0.7911827484607505,-1.020078181865083,low,high,,ISIC_0068184.JPG,,ISIC_0031575.JPG,33,26,false,0.22000000000000008,ll,keypress(f),0,true,462868.5,462868.2999999523,458659.373,458661.2999999523,458675.952,462875.899,1,40,39,
sequence,flow.Sequence,8_38,2023-11-30T17:12:50.393Z,,,,,,,,,,,4192.347999952326,completion,,,,,,,low,high,,,,,,,false,,,,,true,462868.90000009537,462868.2999999523,458659.373,458661.2000000477,458675.952,462875.899,1,40,,
trial,html.Screen,8_39_0,2023-11-30T17:12:53.273Z,,,,2,0.0362376068089956,0.047825070846155,,0.05,true,hh,2872.2010001430754,response,0.543671807801876,0.6166854528664711,-1.0492064700735306,0.7931924844308714,0.8411827484607506,-1.020078181865083,high,high,,ISIC_6985114.JPG,,ISIC_0064964.JPG,33,79,false,0.1,hh,keypress(i),0,true,465748.40000009537,465748.10000014305,462859.329,462869.2000000477,462875.899,465759.337,1,40,40,
sequence,flow.Sequence,8_39,2023-11-30T17:12:53.273Z,,,,,,,,,,,2872.2010001430754,completion,,,,,,,high,high,,,,,,,false,,,,,true,465748.7999999523,465748.10000014305,462859.329,462869.10000014305,462875.899,465759.337,1,40,,
stair_loop,flow.Loop,8,2023-11-30T17:12:53.273Z,,,,,,,,,,,177188.38600014307,completion,,,,,,,,,,,,,,,false,,,,,true,465749,465748.10000014305,288543.289,288554.7000000477,288559.714,465759.337,1,40,,
exp_instructions,html.Screen,9,2023-11-30T17:12:58.311Z,,,,,,,,,,,5026.6630000000005,response,,,,,,,,,,,,,,,,,continue,keypress(Space),,,470786.40000009537,470786,465742.772,465749.2000000477,465759.337,470792.557,,,,
trial,html.Screen,10_0_0,2023-11-30T17:13:02.538Z,,,,1,0.0051189696037511,-0.0396625911332438,,0.05,false,hl,4220.343000095396,response,0.7622914383475332,0.766559661823994,-1.1449603235036763,-1.2637655821850098,0.7981268553688925,-1.1492372267699582,high,low,,ISIC_9742891.JPG,9,ISIC_0032005.JPG,33,27,false,0.19000000000000006,hh,keypress(i),0,false,475013.2000000477,475012.90000009537,470775.85,470786.5,470792.557,475025.93,5,600,1,
break,html.Screen,10_0_1,2023-11-30T17:13:02.539Z,,,,,,,,,,,NaN,,,,,,,,high,low,,,,,,,false,,,,,false,475014.5,475014.10000014305,,475013.5,,475025.93,5,600,,
break_continue,html.Screen,10_0_2,2023-11-30T17:13:02.540Z,,,,,,,,,,,NaN,,,,,,,,high,low,,,,,,,false,,,,,false,475015.40000009537,475015.10000014305,,475014.7000000477,,475025.93,5,600,,
sequence,flow.Sequence,10_0,2023-11-30T17:13:02.540Z,,,,,,,,,,,4222.54300014308,completion,,,,,,,high,low,,,,,,,false,,,,,false,475015.7000000477,475015.10000014305,470775.85,470786.5,470792.557,475025.93,5,600,,
trial,html.Screen,10_1_0,2023-11-30T17:13:04.704Z,,,,1,-0.0027483411352856,-0.0100996915276271,,0.05,true,hh,2153.670000143058,response,0.7112499523439552,0.766559661823994,-1.1449603235036763,0.8326661044614712,0.7981268553688925,-1.1492372267699582,high,high,,ISIC_7364041.JPG,9,ISIC_4477599.JPG,33,60,false,0.1,hh,keypress(i),0,false,477179.7000000477,477179.60000014305,475009.328,475015.90000009537,475025.93,477192.604,5,600,2,
break,html.Screen,10_1_1,2023-11-30T17:13:04.704Z,,,,,,,,,,,NaN,,,,,,,,high,high,,,,,,,false,,,,,false,477180,477179.90000009537,,477179.7999999523,,477192.604,5,600,,
break_continue,html.Screen,10_1_2,2023-11-30T17:13:04.705Z,,,,,,,,,,,NaN,,,,,,,,high,high,,,,,,,false,,,,,false,477180.2000000477,477180.2000000477,,477180.10000014305,,477192.604,5,600,,
sequence,flow.Sequence,10_1,2023-11-30T17:13:04.705Z,,,,,,,,,,,2154.2700000476907,completion,,,,,,,high,high,,,,,,,false,,,,,false,477180.2999999523,477180.2000000477,475009.328,475015.7999999523,475025.93,477192.604,5,600,,
trial,html.Screen,10_2_0,2023-11-30T17:13:08.266Z,,,,1,-0.0070725527271049,-0.0049995141077508,,0.05,false,lh,3547.396000000008,response,-1.1615388892961138,0.766559661823994,-1.1449603235036763,0.6952763480624806,0.7981268553688925,-1.1492372267699582,low,high,,ISIC_6124481.JPG,9,ISIC_1280780.JPG,33,26,false,0.21000000000000008,hl,keypress(j),0,false,480740.2999999523,480740,477176.061,477180.2999999523,477192.604,480742.563,5,600,3,
break,html.Screen,10_2_1,2023-11-30T17:13:08.267Z,,,,,,,,,,,NaN,,,,,,,,low,high,,,,,,,false,,,,,false,480741.2000000477,480741,,480740.5,,480742.563,5,600,,
break_continue,html.Screen,10_2_2,2023-11-30T17:13:08.267Z,,,,,,,,,,,NaN,,,,,,,,low,high,,,,,,,false,,,,,false,480741.7999999523,480741.5,,480741.40000009537,,480742.563,5,600,,
sequence,flow.Sequence,10_2,2023-11-30T17:13:08.268Z,,,,,,,,,,,3548.896000000008,completion,,,,,,,low,high,,,,,,,false,,,,,false,480742,480741.5,477176.061,477180.2999999523,477192.604,480742.563,5,600,,
trial,html.Screen,10_3_0,2023-11-30T17:13:13.913Z,,,,1,0.0113873532168551,0.0054999201556291,,0.05,false,ll,5644.7369999522925,response,-1.0698162624196283,0.766559661823994,-1.1449603235036763,-1.219634566983089,0.7981268553688925,-1.1492372267699582,low,low,,ISIC_8812621.JPG,8,ISIC_0030552.JPG,33,26,false,0.1,hl,keypress(j),0,false,486387.40000009537,486387.2999999523,480726.017,480742.2000000477,480742.563,486392.518,5,600,4,
break,html.Screen,10_3_1,2023-11-30T17:13:13.913Z,,,,,,,,,,,NaN,,,,,,,,low,low,,,,,,,false,,,,,false,486387.7000000477,486387.60000014305,,486387.5,,486392.518,5,600,,
break_continue,html.Screen,10_3_2,2023-11-30T17:13:13.914Z,,,,,,,,,,,NaN,,,,,,,,low,low,,,,,,,false,,,,,false,486387.7999999523,486387.7999999523,,486387.7000000477,,486392.518,5,600,,
sequence,flow.Sequence,10_3,2023-11-30T17:13:13.914Z,,,,,,,,,,,5645.2369999522925,completion,,,,,,,low,low,,,,,,,false,,,,,false,486387.90000009537,486387.7999999523,480726.017,480742.10000014305,480742.563,486392.518,5,600,,
trial,html.Screen,10_4_0,2023-11-30T17:13:15.995Z,,,,1,-0.0069555338059566,0.0310100918136373,,0.05,false,lh,2076.2819999523344,response,-1.1615388892961138,0.766559661823994,-1.1449603235036763,0.6952763480624806,0.7981268553688925,-1.1492372267699582,low,high,,ISIC_0011177.JPG,9,ISIC_1280780.JPG,33,26,false,0.21000000000000008,hl,keypress(j),0,false,488469.10000014305,488468.7999999523,486376.056,486387.90000009537,486392.518,488475.848,5,600,5,
break,html.Screen,10_4_1,2023-11-30T17:13:15.996Z,,,,,,,,,,,NaN,,,,,,,,low,high,,,,,,,false,,,,,false,488470,488469.7000000477,,488469.2999999523,,488475.848,5,600,,
break_continue,html.Screen,10_4_2,2023-11-30T17:13:15.996Z,,,,,,,,,,,NaN,,,,,,,,low,high,,,,,,,false,,,,,false,488470.5,488470.40000009537,,488470.10000014305,,488475.848,5,600,,
sequence,flow.Sequence,10_4,2023-11-30T17:13:15.996Z,,,,,,,,,,,2077.8820000953856,completion,,,,,,,low,high,,,,,,,false,,,,,false,488470.7000000477,488470.40000009537,486376.056,486387.90000009537,486392.518,488475.848,5,600,,
trial,html.Screen,10_5_0,2023-11-30T17:13:19.138Z,,,,1,-0.0450282431170921,0,,0.05,false,hl,3136.451999952318,response,0.706802912822355,0.766559661823994,-1.1449603235036763,-1.168911077628813,0.7981268553688925,-1.1492372267699582,high,low,,ISIC_1805163.JPG,9,ISIC_7358691.JPG,33,27,false,0.19000000000000006,ll,keypress(f),0,false,491612.60000014305,491612.2999999523,488459.412,488470.90000009537,488475.848,491625.898,5,600,6,
break,html.Screen,10_5_1,2023-11-30T17:13:19.139Z,,,,,,,,,,,NaN,,,,,,,,high,low,,,,,,,false,,,,,false,491613.5,491613.2999999523,,491612.7999999523,,491625.898,5,600,,
break_continue,html.Screen,10_5_2,2023-11-30T17:13:19.140Z,,,,,,,,,,,NaN,,,,,,,,high,low,,,,,,,false,,,,,false,491614.10000014305,491613.90000009537,,491613.60000014305,,491625.898,5,600,,
sequence,flow.Sequence,10_5,2023-11-30T17:13:19.140Z,,,,,,,,,,,3138.0520000953693,completion,,,,,,,high,low,,,,,,,false,,,,,false,491614.2999999523,491613.90000009537,488459.412,488470.90000009537,488475.848,491625.898,5,600,,
trial,html.Screen,10_6_0,2023-11-30T17:13:22.482Z,,,,1,-0.0456515796420274,0.0273567130070961,,0.05,true,lh,3330.1020000000135,response,-0.9388660854518424,0.766559661823994,-1.1449603235036763,0.79533948698576,0.7981268553688925,-1.1492372267699582,low,high,,ISIC_0068610.JPG,9,ISIC_9291926.JPG,33,26,false,0.21000000000000008,lh,keypress(e),0,false,494956.2999999523,494956,491609.411,491614.40000009537,491625.898,494959.233,5,600,7,
break,html.Screen,10_6_1,2023-11-30T17:13:22.483Z,,,,,,,,,,,NaN,,,,,,,,low,high,,,,,,,false,,,,,false,494957.2000000477,494957,,494956.60000014305,,494959.233,5,600,,
break_continue,html.Screen,10_6_2,2023-11-30T17:13:22.483Z,,,,,,,,,,,NaN,,,,,,,,low,high,,,,,,,false,,,,,false,494957.7000000477,494957.60000014305,,494957.40000009537,,494959.233,5,600,,
sequence,flow.Sequence,10_6,2023-11-30T17:13:22.484Z,,,,,,,,,,,3331.7020001430647,completion,,,,,,,low,high,,,,,,,false,,,,,false,494958.10000014305,494957.60000014305,491609.411,491614.40000009537,491625.898,494959.233,5,600,,
trial,html.Screen,10_7_0,2023-11-30T17:13:27.154Z,,,,1,0.0245376145053177,-0.0436993426328401,,0.05,false,ll,4669.16700009536,response,-1.1383813631375823,0.766559661823994,-1.1449603235036763,-1.1319312220332556,0.7981268553688925,-1.1492372267699582,low,low,,ISIC_0056444.JPG,9,ISIC_6227397.JPG,33,26,false,0.1,hl,keypress(j),0,false,499628.60000014305,499628.40000009537,494942.426,494958.2000000477,494959.233,499642.658,5,600,8,
break,html.Screen,10_7_1,2023-11-30T17:13:27.155Z,,,,,,,,,,,NaN,,,,,,,,low,low,,,,,,,false,,,,,false,499629.2999999523,499629.10000014305,,499628.7999999523,,499642.658,5,600,,
break_continue,html.Screen,10_7_2,2023-11-30T17:13:27.155Z,,,,,,,,,,,NaN,,,,,,,,low,low,,,,,,,false,,,,,false,499629.60000014305,499629.5,,499629.40000009537,,499642.658,5,600,,
sequence,flow.Sequence,10_7,2023-11-30T17:13:27.155Z,,,,,,,,,,,4670.266999999993,completion,,,,,,,low,low,,,,,,,false,,,,,false,499629.7000000477,499629.5,494942.426,494958.10000014305,494959.233,499642.658,5,600,,
trial,html.Screen,10_8_0,2023-11-30T17:13:30.978Z,,,,1,0.0112310719058792,-0.0469047359904117,,0.05,false,ll,3809.9420001430553,response,-1.2249552940807693,0.766559661823994,-1.1449603235036763,-1.1723015116910682,0.7981268553688925,-1.1492372267699582,low,low,,ISIC_0068184.JPG,8,ISIC_0055251.JPG,33,26,false,0.1,hl,keypress(j),0,false,503452.7999999523,503452.60000014305,499625.745,499629.90000009537,499642.658,503459.2,5,600,9,
break,html.Screen,10_8_1,2023-11-30T17:13:30.979Z,,,,,,,,,,,NaN,,,,,,,,low,low,,,,,,,false,,,,,false,503453.7999999523,503453.5,,503453.10000014305,,503459.2,5,600,,
break_continue,html.Screen,10_8_2,2023-11-30T17:13:30.980Z,,,,,,,,,,,NaN,,,,,,,,low,low,,,,,,,false,,,,,false,503454.2999999523,503454.10000014305,,503453.90000009537,,503459.2,5,600,,
sequence,flow.Sequence,10_8,2023-11-30T17:13:30.980Z,,,,,,,,,,,3811.4420001430553,completion,,,,,,,low,low,,,,,,,false,,,,,false,503454.5,503454.10000014305,499625.745,499629.90000009537,499642.658,503459.2,5,600,,
trial,html.Screen,10_9_0,2023-11-30T17:13:36.009Z,,,,1,0.0112310719058792,-0.0469047359904117,,0.05,true,hh,5023.700000095356,response,0.693321304578282,0.766559661823994,-1.1449603235036763,0.8771268423449017,0.7981268553688925,-1.1492372267699582,high,high,,ISIC_0068184.JPG,9,ISIC_9957389.JPG,33,60,false,0.1,hh,keypress(i),0,false,508482.90000009537,508482.90000009537,503442.626,503454.7000000477,503459.2,508492.437,5,600,10,
break,html.Screen,10_9_1,2023-11-30T17:13:36.009Z,,,,,,,,,,,NaN,,,,,,,,high,high,,,,,,,false,,,,,false,508483.2999999523,508483.2000000477,,508483,,508492.437,5,600,,
break_continue,html.Screen,10_9_2,2023-11-30T17:13:36.009Z,,,,,,,,,,,NaN,,,,,,,,high,high,,,,,,,false,,,,,false,508483.40000009537,508483.2999999523,,508483.2999999523,,508492.437,5,600,,
sequence,flow.Sequence,10_9,2023-11-30T17:13:36.009Z,,,,,,,,,,,5024.099999952305,completion,,,,,,,high,high,,,,,,,false,,,,,false,508483.5,508483.2999999523,503442.626,503454.7000000477,503459.2,508492.437,5,600,,
trial,html.Screen,10_10_0,2023-11-30T17:13:38.610Z,,,,1,0.0113873532168551,0.0054999201556291,,0.05,false,lh,2591.963000095391,response,-1.0645919307156395,0.766559661823994,-1.1449603235036763,0.7087706688259032,0.7981268553688925,-1.1492372267699582,low,high,,ISIC_8812621.JPG,9,ISIC_0031575.JPG,33,26,false,0.21000000000000008,hl,keypress(j),0,false,511084.7000000477,511084.40000009537,508475.893,508483.60000014305,508492.437,511092.466,5,600,11,
break,html.Screen,10_10_1,2023-11-30T17:13:38.611Z,,,,,,,,,,,NaN,,,,,,,,low,high,,,,,,,false,,,,,false,511085.7000000477,511085.40000009537,,511085,,511092.466,5,600,,
break_continue,html.Screen,10_10_2,2023-11-30T17:13:38.612Z,,,,,,,,,,,NaN,,,,,,,,low,high,,,,,,,false,,,,,false,511086.2000000477,511086,,511085.7999999523,,511092.466,5,600,,
sequence,flow.Sequence,10_10,2023-11-30T17:13:38.612Z,,,,,,,,,,,2593.5630000000237,completion,,,,,,,low,high,,,,,,,false,,,,,false,511086.40000009537,511086,508475.893,508483.60000014305,508492.437,511092.466,5,600,,
trial,html.Screen,10_11_0,2023-11-30T17:13:41.130Z,,,,1,-0.0324770283903853,-0.0249968632204382,,0.05,true,hh,2511.8339999523014,response,0.7540852601934345,0.766559661823994,-1.1449603235036763,0.7334538256992545,0.7981268553688925,-1.1492372267699582,high,high,,ISIC_7266462.JPG,9,ISIC_4332846.JPG,33,60,false,0.1,hh,keypress(i),0,false,513604.5,513604.2999999523,511075.987,511086.60000014305,511092.466,513609.115,5,600,12,
break,html.Screen,10_11_1,2023-11-30T17:13:41.131Z,,,,,,,,,,,NaN,,,,,,,,high,high,,,,,,,false,,,,,false,513605.40000009537,513605.2000000477,,513604.7999999523,,513609.115,5,600,,
break_continue,html.Screen,10_11_2,2023-11-30T17:13:41.132Z,,,,,,,,,,,NaN,,,,,,,,high,high,,,,,,,false,,,,,false,513606,513605.7999999523,,513605.60000014305,,513609.115,5,600,,
sequence,flow.Sequence,10_11,2023-11-30T17:13:41.132Z,,,,,,,,,,,2513.3339999523014,completion,,,,,,,high,high,,,,,,,false,,,,,false,513606.2000000477,513605.7999999523,511075.987,511086.60000014305,511092.466,513609.115,5,600,,
trial,html.Screen,10_12_0,2023-11-30T17:13:43.890Z,,,,1,-0.0363437082783146,-0.0333332186217051,,0.05,false,hh,2755.3850000000093,response,0.8357863649703072,0.766559661823994,-1.1449603235036763,0.7360109695211967,0.7981268553688925,-1.1492372267699582,high,high,,ISIC_3314555.JPG,9,ISIC_8357415.JPG,33,60,false,0.1,hl,keypress(j),0,false,516364.7000000477,516364.5,513592.593,513606.2999999523,513609.115,516375.798,5,600,13,
break,html.Screen,10_12_1,2023-11-30T17:13:43.891Z,,,,,,,,,,,NaN,,,,,,,,high,high,,,,,,,false,,,,,false,516365.7000000477,516365.5,,516365.10000014305,,516375.798,5,600,,
break_continue,html.Screen,10_12_2,2023-11-30T17:13:43.892Z,,,,,,,,,,,NaN,,,,,,,,high,high,,,,,,,false,,,,,false,516366.2999999523,516366.10000014305,,516365.90000009537,,516375.798,5,600,,
sequence,flow.Sequence,10_12,2023-11-30T17:13:43.892Z,,,,,,,,,,,2756.9850001430605,completion,,,,,,,high,high,,,,,,,false,,,,,false,516366.5,516366.10000014305,513592.593,513606.2000000477,513609.115,516375.798,5,600,,
trial,html.Screen,10_13_0,2023-11-30T17:13:47.202Z,,,,1,0.0112310719058792,-0.0469047359904117,,0.05,true,ll,3300.20199999999,response,-1.0698162624196283,0.766559661823994,-1.1449603235036763,-1.219634566983089,0.7981268553688925,-1.1492372267699582,low,low,,ISIC_0068184.JPG,8,ISIC_0030552.JPG,33,26,false,0.1,ll,keypress(f),0,false,519676.2999999523,519676,516359.311,516366.7000000477,516375.798,519692.454,5,600,14,
break,html.Screen,10_13_1,2023-11-30T17:13:47.203Z,,,,,,,,,,,NaN,,,,,,,,low,low,,,,,,,false,,,,,false,519677.2999999523,519677,,519676.60000014305,,519692.454,5,600,,
break_continue,html.Screen,10_13_2,2023-11-30T17:13:47.203Z,,,,,,,,,,,NaN,,,,,,,,low,low,,,,,,,false,,,,,false,519677.7999999523,519677.60000014305,,519677.40000009537,,519692.454,5,600,,
sequence,flow.Sequence,10_13,2023-11-30T17:13:47.204Z,,,,,,,,,,,3301.8020001430414,completion,,,,,,,low,low,,,,,,,false,,,,,false,519678,519677.60000014305,516359.311,516366.7000000477,516375.798,519692.454,5,600,,
trial,html.Screen,10_14_0,2023-11-30T17:13:50.498Z,,,,1,-0.0329095507339554,0.0382899749693245,,0.05,false,lh,3279.545999999973,response,-1.1615388892961138,0.766559661823994,-1.1449603235036763,0.6952763480624806,0.7981268553688925,-1.1492372267699582,low,high,,ISIC_8812781.JPG,9,ISIC_1280780.JPG,33,26,false,0.21000000000000008,hl,keypress(j),0,false,522972.2000000477,522972,519675.96,519678.2000000477,519692.454,522975.786,5,600,15,
break,html.Screen,10_14_1,2023-11-30T17:13:50.499Z,,,,,,,,,,,NaN,,,,,,,,low,high,,,,,,,false,,,,,false,522973.2000000477,522973,,522972.60000014305,,522975.786,5,600,,
break_continue,html.Screen,10_14_2,2023-11-30T17:13:50.499Z,,,,,,,,,,,NaN,,,,,,,,low,high,,,,,,,false,,,,,false,522973.7999999523,522973.60000014305,,522973.40000009537,,522975.786,5,600,,
sequence,flow.Sequence,10_14,2023-11-30T17:13:50.500Z,,,,,,,,,,,3281.146000143024,completion,,,,,,,low,high,,,,,,,false,,,,,false,522974,522973.60000014305,519675.96,519678.2000000477,519692.454,522975.786,5,600,,
trial,html.Screen,10_15_0,2023-11-30T17:13:53.010Z,,,,1,0.0097091270150747,-0.0417921315885292,,0.05,false,lh,2508.213999999978,response,-0.9873794329144926,0.766559661823994,-1.1449603235036763,0.7991077882008257,0.7981268553688925,-1.1492372267699582,low,high,,ISIC_3967213.JPG,9,ISIC_0013498.JPG,33,26,false,0.21000000000000008,hh,keypress(i),0,false,525484.2999999523,525484,522959.165,522974.2000000477,522975.786,525492.412,5,600,16,
break,html.Screen,10_15_1,2023-11-30T17:13:53.011Z,,,,,,,,,,,NaN,,,,,,,,low,high,,,,,,,false,,,,,false,525485.2000000477,525485,,525484.600000143,,525492.412,5,600,,
break_continue,html.Screen,10_15_2,2023-11-30T17:13:53.011Z,,,,,,,,,,,NaN,,,,,,,,low,high,,,,,,,false,,,,,false,525485.7000000477,525485.600000143,,525485.4000000954,,525492.412,5,600,,
sequence,flow.Sequence,10_15,2023-11-30T17:13:53.012Z,,,,,,,,,,,2509.8140001430293,completion,,,,,,,low,high,,,,,,,false,,,,,false,525485.9000000954,525485.600000143,522959.165,522974.2000000477,522975.786,525492.412,5,600,,
trial,html.Screen,10_16_0,2023-11-30T17:13:58.000Z,,,,1,0.0277178575053843,-0.0395587463147856,,0.05,true,lh,4982.2880000476725,response,-1.2354666978812945,0.766559661823994,-1.1449603235036763,0.5891070234033371,0.7981268553688925,-1.1492372267699582,low,high,,ISIC_0010807.JPG,9,ISIC_7935462.JPG,33,26,false,0.21000000000000008,lh,keypress(e),0,false,530474.7000000477,530474.7000000477,525475.876,525486.2000000477,525492.412,530493.352,5,600,17,
break,html.Screen,10_16_1,2023-11-30T17:13:58.001Z,,,,,,,,,,,NaN,,,,,,,,low,high,,,,,,,false,,,,,false,530475,530475,,530474.9000000954,,530493.352,5,600,,
break_continue,html.Screen,10_16_2,2023-11-30T17:13:58.001Z,,,,,,,,,,,NaN,,,,,,,,low,high,,,,,,,false,,,,,false,530475.2000000477,530475.2000000477,,530475.100000143,,530493.352,5,600,,
sequence,flow.Sequence,10_16,2023-11-30T17:13:58.001Z,,,,,,,,,,,4982.7880000476725,completion,,,,,,,low,high,,,,,,,false,,,,,false,530475.2999999523,530475.2000000477,525475.876,525486.100000143,525492.412,530493.352,5,600,,
trial,html.Screen,10_17_0,2023-11-30T17:14:00.474Z,,,,1,0.0134764727102299,0.0033499036460912,,0.05,false,hh,2455.048000095412,response,0.7647549879784493,0.766559661823994,-1.1449603235036763,0.777443662430605,0.7981268553688925,-1.1492372267699582,high,high,,ISIC_0009998.JPG,10,ISIC_0012435.JPG,33,60,false,0.1,lh,keypress(e),0,false,532948.600000143,532948.4000000954,530459.05,530475.2999999523,530493.352,532975.786,5,600,18,
break,html.Screen,10_17_1,2023-11-30T17:14:00.475Z,,,,,,,,,,,NaN,,,,,,,,high,high,,,,,,,false,,,,,false,532949.5,532949.2999999523,,532948.9000000954,,532975.786,5,600,,
break_continue,html.Screen,10_17_2,2023-11-30T17:14:00.476Z,,,,,,,,,,,NaN,,,,,,,,high,high,,,,,,,false,,,,,false,532949.9000000954,532949.7999999523,,532949.600000143,,532975.786,5,600,,
sequence,flow.Sequence,10_17,2023-11-30T17:14:00.476Z,,,,,,,,,,,2456.447999952361,completion,,,,,,,high,high,,,,,,,false,,,,,false,532950.2000000477,532949.7999999523,530459.05,530475.2999999523,530493.352,532975.786,5,600,,
trial,html.Screen,10_18_0,2023-11-30T17:14:05.010Z,,,,1,-0.0324770283903853,-0.0249968632204382,,0.05,false,hh,4508.513999952353,response,0.8204675838867859,0.766559661823994,-1.1449603235036763,0.706103616996161,0.7981268553688925,-1.1492372267699582,high,high,,ISIC_7266462.JPG,8,ISIC_0945844.JPG,33,60,false,0.1,lh,keypress(e),0,false,537484.7000000477,537484.2999999523,532959.053,532950.2999999523,532975.786,537492.379,5,600,19,
break,html.Screen,10_18_1,2023-11-30T17:14:05.011Z,,,,,,,,,,,NaN,,,,,,,,high,high,,,,,,,false,,,,,false,537485.7000000477,537485.4000000954,,537485,,537492.379,5,600,,
break_continue,html.Screen,10_18_2,2023-11-30T17:14:05.012Z,,,,,,,,,,,NaN,,,,,,,,high,high,,,,,,,false,,,,,false,537486.4000000954,537486.100000143,,537486,,537492.379,5,600,,
sequence,flow.Sequence,10_18,2023-11-30T17:14:05.012Z,,,,,,,,,,,4510.3140001430875,completion,,,,,,,high,high,,,,,,,false,,,,,false,537486.600000143,537486.100000143,532959.053,532950.2999999523,532975.786,537492.379,5,600,,
trial,html.Screen,10_19_0,2023-11-30T17:14:08.066Z,,,,1,-0.0450282431170921,0,,0.05,false,hl,3047.0210000954103,response,0.676463054132483,0.766559661823994,-1.1449603235036763,-1.309156631190435,0.7981268553688925,-1.1492372267699582,high,low,,ISIC_1805163.JPG,9,ISIC_0025927.JPG,33,27,false,0.19000000000000006,ll,keypress(f),0,false,540539.5,540539.4000000954,537475.726,537486.7000000477,537492.379,540559.169,5,600,20,
break,html.Screen,10_19_1,2023-11-30T17:14:08.067Z,,,,,,,,,,,NaN,,,,,,,,high,low,,,,,,,false,,,,,false,540539.7999999523,540539.7000000477,,540539.600000143,,540559.169,5,600,,
break_continue,html.Screen,10_19_2,2023-11-30T17:14:08.067Z,,,,,,,,,,,NaN,,,,,,,,high,low,,,,,,,false,,,,,false,540539.9000000954,540539.7999999523,,540539.7999999523,,540559.169,5,600,,
sequence,flow.Sequence,10_19,2023-11-30T17:14:08.067Z,,,,,,,,,,,3047.420999952359,completion,,,,,,,high,low,,,,,,,false,,,,,false,540540,540539.7999999523,537475.726,537486.7000000477,537492.379,540559.169,5,600,,
trial,html.Screen,10_20_0,2023-11-30T17:14:14.898Z,,,,1,-0.0057914759495055,-0.0074667911845194,,0.05,true,hh,6812.231000095373,response,0.6778132176594541,0.766559661823994,-1.1449603235036763,0.7315619461447064,0.7981268553688925,-1.1492372267699582,high,high,,ISIC_0058723.JPG,9,ISIC_8535451.JPG,33,60,false,0.1,hh,keypress(i),0,false,547371.5,547371.4000000954,540542.347,540540,540559.169,547392.541,5,600,21,
break,html.Screen,10_20_1,2023-11-30T17:14:14.899Z,,,,,,,,,,,NaN,,,,,,,,high,high,,,,,,,false,,,,,false,547371.7999999523,547371.7000000477,,547371.600000143,,547392.541,5,600,,
break_continue,html.Screen,10_20_2,2023-11-30T17:14:14.899Z,,,,,,,,,,,NaN,,,,,,,,high,high,,,,,,,false,,,,,false,547371.9000000954,547371.9000000954,,547371.9000000954,,547392.541,5,600,,
sequence,flow.Sequence,10_20,2023-11-30T17:14:14.899Z,,,,,,,,,,,6812.731000095373,completion,,,,,,,high,high,,,,,,,false,,,,,false,547372,547371.9000000954,540542.347,540540,540559.169,547392.541,5,600,,
trial,html.Screen,10_21_0,2023-11-30T17:14:19.283Z,,,,1,-0.0070725527271049,-0.0049995141077508,,0.05,false,hl,4363.659000047715,response,0.8487429103619056,0.766559661823994,-1.1449603235036763,-0.9778257804233036,0.7981268553688925,-1.1492372267699582,high,low,,ISIC_6124481.JPG,9,ISIC_4554863.JPG,33,27,false,0.19000000000000006,hh,keypress(i),0,false,551756.5,551756.2000000477,547375.699,547372,547392.541,551759.084,5,600,22,
break,html.Screen,10_21_1,2023-11-30T17:14:19.284Z,,,,,,,,,,,NaN,,,,,,,,high,low,,,,,,,false,,,,,false,551757.4000000954,551757.2000000477,,551756.7999999523,,551759.084,5,600,,
break_continue,html.Screen,10_21_2,2023-11-30T17:14:19.285Z,,,,,,,,,,,NaN,,,,,,,,high,low,,,,,,,false,,,,,false,551758,551757.9000000954,,551757.600000143,,551759.084,5,600,,
sequence,flow.Sequence,10_21,2023-11-30T17:14:19.285Z,,,,,,,,,,,4365.359000095399,completion,,,,,,,high,low,,,,,,,false,,,,,false,551758.2999999523,551757.9000000954,547375.699,547372,547392.541,551759.084,5,600,,
trial,html.Screen,10_22_0,2023-11-30T17:14:25.465Z,,,,1,-0.0329095507339554,0.0382899749693245,,0.05,false,ll,6179.116000047652,response,-1.135372722680314,0.766559661823994,-1.1449603235036763,-1.0926414044454305,0.7981268553688925,-1.1492372267699582,low,low,,ISIC_8812781.JPG,9,ISIC_2355513.JPG,33,26,false,0.1,hl,keypress(j),0,false,557938.5,557938.2000000477,551742.515,551758.4000000954,551759.084,557942.302,5,600,23,
break,html.Screen,10_22_1,2023-11-30T17:14:25.466Z,,,,,,,,,,,NaN,,,,,,,,low,low,,,,,,,false,,,,,false,557938.9000000954,557938.7999999523,,557938.600000143,,557942.302,5,600,,
break_continue,html.Screen,10_22_2,2023-11-30T17:14:25.466Z,,,,,,,,,,,NaN,,,,,,,,low,low,,,,,,,false,,,,,false,557939.100000143,557939.100000143,,557939,,557942.302,5,600,,
sequence,flow.Sequence,10_22,2023-11-30T17:14:25.466Z,,,,,,,,,,,6180.0160001430195,completion,,,,,,,low,low,,,,,,,false,,,,,false,557939.2000000477,557939.100000143,551742.515,551758.4000000954,551759.084,557942.302,5,600,,
trial,html.Screen,10_23_0,2023-11-30T17:14:28.139Z,,,,1,-0.0085520978188085,0.0464691161264081,,0.05,true,hh,2669.5980000953423,response,0.7334343533627843,0.766559661823994,-1.1449603235036763,0.7109511223219827,0.7981268553688925,-1.1492372267699582,high,high,,ISIC_0758797.JPG,9,ISIC_3770380.JPG,33,60,false,0.1,hh,keypress(i),0,false,560612.2000000477,560611.9000000954,557925.905,557939.2999999523,557942.302,560625.666,5,600,24,
break,html.Screen,10_23_1,2023-11-30T17:14:28.140Z,,,,,,,,,,,NaN,,,,,,,,high,high,,,,,,,false,,,,,false,560613.2000000477,560613,,560612.600000143,,560625.666,5,600,,
break_continue,html.Screen,10_23_2,2023-11-30T17:14:28.141Z,,,,,,,,,,,NaN,,,,,,,,high,high,,,,,,,false,,,,,false,560613.7999999523,560613.7000000477,,560613.4000000954,,560625.666,5,600,,
sequence,flow.Sequence,10_23,2023-11-30T17:14:28.141Z,,,,,,,,,,,2671.3980000476586,completion,,,,,,,high,high,,,,,,,false,,,,,false,560614.100000143,560613.7000000477,557925.905,557939.2000000477,557942.302,560625.666,5,600,,
trial,html.Screen,10_24_0,2023-11-30T17:14:30.740Z,,,,1,0.000047919190197942736,0.0462652940855003,,0.05,false,hl,2587.133999952348,response,0.6762618798182235,0.766559661823994,-1.1449603235036763,-1.067875773627714,0.7981268553688925,-1.1492372267699582,high,low,,ISIC_0011507.JPG,10,ISIC_0000135.JPG,33,27,false,0.19000000000000006,hh,keypress(i),0,false,563213.100000143,563212.7999999523,560608.978,560614.2999999523,560625.666,563225.718,5,600,25,
break,html.Screen,10_24_1,2023-11-30T17:14:30.741Z,,,,,,,,,,,NaN,,,,,,,,high,low,,,,,,,false,,,,,false,563214,563213.7999999523,,563213.4000000954,,563225.718,5,600,,
break_continue,html.Screen,10_24_2,2023-11-30T17:14:30.741Z,,,,,,,,,,,NaN,,,,,,,,high,low,,,,,,,false,,,,,false,563214.5,563214.4000000954,,563214.100000143,,563225.718,5,600,,
sequence,flow.Sequence,10_24,2023-11-30T17:14:30.742Z,,,,,,,,,,,2588.734000095399,completion,,,,,,,high,low,,,,,,,false,,,,,false,563214.7999999523,563214.4000000954,560608.978,560614.2999999523,560625.666,563225.718,5,600,,
trial,html.Screen,10_25_0,2023-11-30T17:14:33.723Z,,,,1,-0.0217698886732706,0.0410870915161425,,0.05,true,hh,2970.3820001430577,response,0.6668377194320008,0.766559661823994,-1.1449603235036763,0.7708200032105804,0.7981268553688925,-1.1492372267699582,high,high,,ISIC_0072173.JPG,9,ISIC_6413346.JPG,33,60,false,0.1,hh,keypress(i),0,false,566196.2999999523,566196.100000143,563209.13,563214.9000000954,563225.718,566209.044,5,600,26,
break,html.Screen,10_25_1,2023-11-30T17:14:33.724Z,,,,,,,,,,,NaN,,,,,,,,high,high,,,,,,,false,,,,,false,566197.2000000477,566197.100000143,,566196.600000143,,566209.044,5,600,,
break_continue,html.Screen,10_25_2,2023-11-30T17:14:33.725Z,,,,,,,,,,,NaN,,,,,,,,high,high,,,,,,,false,,,,,false,566197.7999999523,566197.600000143,,566197.4000000954,,566209.044,5,600,,
sequence,flow.Sequence,10_25,2023-11-30T17:14:33.725Z,,,,,,,,,,,2971.8820001430577,completion,,,,,,,high,high,,,,,,,false,,,,,false,566198,566197.600000143,563209.13,563214.9000000954,563225.718,566209.044,5,600,,
trial,html.Screen,10_26_0,2023-11-30T17:14:37.962Z,,,,1,-0.0107854985447517,-0.0478010417136109,,0.05,false,ll,4225.856000095373,response,-1.188743606919222,0.766559661823994,-1.1449603235036763,-1.0980226451001782,0.7981268553688925,-1.1492372267699582,low,low,,ISIC_0010500.JPG,8,ISIC_0060481.JPG,33,26,false,0.1,lh,keypress(e),0,false,570434.9000000954,570434.9000000954,566192.448,566198.100000143,566209.044,570442.27,5,600,27,
break,html.Screen,10_26_1,2023-11-30T17:14:37.962Z,,,,,,,,,,,NaN,,,,,,,,low,low,,,,,,,false,,,,,false,570435.2000000477,570435.100000143,,570435,,570442.27,5,600,,
break_continue,html.Screen,10_26_2,2023-11-30T17:14:37.962Z,,,,,,,,,,,NaN,,,,,,,,low,low,,,,,,,false,,,,,false,570435.2999999523,570435.2999999523,,570435.2999999523,,570442.27,5,600,,
sequence,flow.Sequence,10_26,2023-11-30T17:14:37.962Z,,,,,,,,,,,4226.255999952322,completion,,,,,,,low,low,,,,,,,false,,,,,false,570435.4000000954,570435.2999999523,566192.448,566198.100000143,566209.044,570442.27,5,600,,
trial,html.Screen,10_27_0,2023-11-30T17:14:42.874Z,,,,1,-0.0069555338059566,0.0310100918136373,,0.05,false,hl,4905.029999952298,response,0.7745647318095624,0.766559661823994,-1.1449603235036763,-1.1610302064435811,0.7981268553688925,-1.1492372267699582,high,low,,ISIC_0011177.JPG,8,ISIC_0033004.JPG,33,27,false,0.19000000000000006,ll,keypress(f),0,false,575347.4000000954,575347.2999999523,570425.794,570435.5,570442.27,575358.993,5,600,28,
break,html.Screen,10_27_1,2023-11-30T17:14:42.875Z,,,,,,,,,,,NaN,,,,,,,,high,low,,,,,,,false,,,,,false,575347.7000000477,575347.600000143,,575347.4000000954,,575358.993,5,600,,
break_continue,html.Screen,10_27_2,2023-11-30T17:14:42.875Z,,,,,,,,,,,NaN,,,,,,,,high,low,,,,,,,false,,,,,false,575347.7999999523,575347.7000000477,,575347.7000000477,,575358.993,5,600,,
sequence,flow.Sequence,10_27,2023-11-30T17:14:42.875Z,,,,,,,,,,,4905.430000047665,completion,,,,,,,high,low,,,,,,,false,,,,,false,575347.9000000954,575347.7000000477,570425.794,570435.4000000954,570442.27,575358.993,5,600,,
trial,html.Screen,10_28_0,2023-11-30T17:14:46.692Z,,,,1,0.0051189696037511,-0.0396625911332438,,0.05,true,ll,3805.707000047667,response,-1.101346104814838,0.766559661823994,-1.1449603235036763,-1.1225813067473052,0.7981268553688925,-1.1492372267699582,low,low,,ISIC_9742891.JPG,9,ISIC_8175453.JPG,33,26,false,0.1,ll,keypress(f),0,false,579165,579164.7000000477,575342.351,575348,575358.993,579192.245,5,600,29,
break,html.Screen,10_28_1,2023-11-30T17:14:46.693Z,,,,,,,,,,,NaN,,,,,,,,low,low,,,,,,,false,,,,,false,579165.9000000954,579165.7000000477,,579165.2999999523,,579192.245,5,600,,
break_continue,html.Screen,10_28_2,2023-11-30T17:14:46.693Z,,,,,,,,,,,NaN,,,,,,,,low,low,,,,,,,false,,,,,false,579166.4000000954,579166.2999999523,,579166,,579192.245,5,600,,
sequence,flow.Sequence,10_28,2023-11-30T17:14:46.694Z,,,,,,,,,,,3807.3069999522995,completion,,,,,,,low,low,,,,,,,false,,,,,false,579166.7000000477,579166.2999999523,575342.351,575348,575358.993,579192.245,5,600,,
trial,html.Screen,10_29_0,2023-11-30T17:14:50.356Z,,,,1,-0.0324770283903853,-0.0249968632204382,,0.05,false,lh,3636.554999952321,response,-1.2429840165564423,0.766559661823994,-1.1449603235036763,0.7308963943423881,0.7981268553688925,-1.1492372267699582,low,high,,ISIC_7266462.JPG,9,ISIC_1264576.JPG,33,26,false,0.21000000000000008,hl,keypress(j),0,false,582829,582828.7999999523,579158.965,579166.9000000954,579192.245,582842.265,5,600,30,
break,html.Screen,10_29_1,2023-11-30T17:14:50.357Z,,,,,,,,,,,NaN,,,,,,,,low,high,,,,,,,false,,,,,false,582830,582829.7999999523,,582829.2999999523,,582842.265,5,600,,
break_continue,html.Screen,10_29_2,2023-11-30T17:14:50.357Z,,,,,,,,,,,NaN,,,,,,,,low,high,,,,,,,false,,,,,false,582830.4000000954,582830.2999999523,,582830.100000143,,582842.265,5,600,,
sequence,flow.Sequence,10_29,2023-11-30T17:14:50.358Z,,,,,,,,,,,3638.054999952321,completion,,,,,,,low,high,,,,,,,false,,,,,false,582830.600000143,582830.2999999523,579158.965,579166.7999999523,579192.245,582842.265,5,600,,
trial,html.Screen,10_30_0,2023-11-30T17:14:52.947Z,,,,1,0.0112310719058792,-0.0469047359904117,,0.05,false,hl,2577.335000143037,response,0.6866025217140785,0.766559661823994,-1.1449603235036763,-0.9978764930756644,0.7981268553688925,-1.1492372267699582,high,low,,ISIC_0068184.JPG,9,ISIC_0009100.JPG,33,27,false,0.19000000000000006,hh,keypress(i),0,false,585419.7000000477,585419.600000143,582825.479,582830.7999999523,582842.265,585425.585,5,600,31,
break,html.Screen,10_30_1,2023-11-30T17:14:52.947Z,,,,,,,,,,,NaN,,,,,,,,high,low,,,,,,,false,,,,,false,585419.9000000954,585419.7999999523,,585419.7999999523,,585425.585,5,600,,
break_continue,html.Screen,10_30_2,2023-11-30T17:14:52.947Z,,,,,,,,,,,NaN,,,,,,,,high,low,,,,,,,false,,,,,false,585420.100000143,585420.100000143,,585420,,585425.585,5,600,,
sequence,flow.Sequence,10_30,2023-11-30T17:14:52.947Z,,,,,,,,,,,2577.835000143037,completion,,,,,,,high,low,,,,,,,false,,,,,false,585420.100000143,585420.100000143,582825.479,582830.7000000477,582842.265,585425.585,5,600,,
trial,html.Screen,10_31_0,2023-11-30T17:15:00.506Z,,,,1,-0.0107854985447517,-0.0478010417136109,,0.05,false,hl,7553.2149999523535,response,0.5946266402670454,0.766559661823994,-1.1449603235036763,-1.0906221698932466,0.7981268553688925,-1.1492372267699582,high,low,,ISIC_0010500.JPG,9,ISIC_0000072.JPG,33,27,false,0.19000000000000006,hh,keypress(i),0,false,592978.9000000954,592978.7999999523,585408.902,585420.2000000477,585425.585,592992.414,5,600,32,
break,html.Screen,10_31_1,2023-11-30T17:15:00.506Z,,,,,,,,,,,NaN,,,,,,,,high,low,,,,,,,false,,,,,false,592979.2000000477,592979.2000000477,,592979.100000143,,592992.414,5,600,,
break_continue,html.Screen,10_31_2,2023-11-30T17:15:00.506Z,,,,,,,,,,,NaN,,,,,,,,high,low,,,,,,,false,,,,,false,592979.2999999523,592979.2999999523,,592979.2999999523,,592992.414,5,600,,
sequence,flow.Sequence,10_31,2023-11-30T17:15:00.506Z,,,,,,,,,,,7553.7149999523535,completion,,,,,,,high,low,,,,,,,false,,,,,false,592979.4000000954,592979.2999999523,585408.902,585420.2000000477,585425.585,592992.414,5,600,,
trial,html.Screen,10_32_0,2023-11-30T17:15:05.827Z,,,,1,-0.0217698886732706,0.0410870915161425,,0.05,true,hh,5307.786000047694,response,0.6778132176594541,0.766559661823994,-1.1449603235036763,0.7315619461447064,0.7981268553688925,-1.1492372267699582,high,high,,ISIC_0072173.JPG,9,ISIC_8535451.JPG,33,60,false,0.1,hh,keypress(i),0,false,598300.4000000954,598300.2000000477,592975.505,592979.4000000954,592992.414,598308.841,5,600,33,
break,html.Screen,10_32_1,2023-11-30T17:15:05.828Z,,,,,,,,,,,NaN,,,,,,,,high,high,,,,,,,false,,,,,false,598301.2999999523,598301.2000000477,,598300.7000000477,,598308.841,5,600,,
break_continue,html.Screen,10_32_2,2023-11-30T17:15:05.829Z,,,,,,,,,,,NaN,,,,,,,,high,high,,,,,,,false,,,,,false,598302,598301.7999999523,,598301.5,,598308.841,5,600,,
sequence,flow.Sequence,10_32,2023-11-30T17:15:05.829Z,,,,,,,,,,,5309.3859999523265,completion,,,,,,,high,high,,,,,,,false,,,,,false,598302.2999999523,598301.7999999523,592975.505,592979.4000000954,592992.414,598308.841,5,600,,
trial,html.Screen,10_33_0,2023-11-30T17:15:08.227Z,,,,1,0,0.0264544974620926,,0.05,true,hh,2389.2590001430362,response,0.7140882057568997,0.766559661823994,-1.1449603235036763,0.7682928400937343,0.7981268553688925,-1.1492372267699582,high,high,,ISIC_0056991.JPG,12,ISIC_5546488.JPG,33,60,false,0.1,hh,keypress(i),0,false,600698.2000000477,600698.100000143,598292.379,598302.5,598308.841,600708.871,5,600,34,
break,html.Screen,10_33_1,2023-11-30T17:15:08.227Z,,,,,,,,,,,NaN,,,,,,,,high,high,,,,,,,false,,,,,false,600698.5,600698.4000000954,,600698.2999999523,,600708.871,5,600,,
break_continue,html.Screen,10_33_2,2023-11-30T17:15:08.227Z,,,,,,,,,,,NaN,,,,,,,,high,high,,,,,,,false,,,,,false,600698.7999999523,600698.7000000477,,600698.600000143,,600708.871,5,600,,
sequence,flow.Sequence,10_33,2023-11-30T17:15:08.227Z,,,,,,,,,,,2389.859000047669,completion,,,,,,,high,high,,,,,,,false,,,,,false,600698.9000000954,600698.7000000477,598292.379,598302.4000000954,598308.841,600708.871,5,600,,
trial,html.Screen,10_34_0,2023-11-30T17:15:13.410Z,,,,1,0.0245376145053177,-0.0436993426328401,,0.05,false,lh,5172.928999952273,response,-0.9388660854518424,0.766559661823994,-1.1449603235036763,0.79533948698576,0.7981268553688925,-1.1492372267699582,low,high,,ISIC_0056444.JPG,9,ISIC_9291926.JPG,33,26,false,0.21000000000000008,ll,keypress(f),0,false,605881.9000000954,605881.7999999523,600692.384,600698.9000000954,600708.871,605892.153,5,600,35,
break,html.Screen,10_34_1,2023-11-30T17:15:13.411Z,,,,,,,,,,,NaN,,,,,,,,low,high,,,,,,,false,,,,,false,605882.2999999523,605882.2000000477,,605882.100000143,,605892.153,5,600,,
break_continue,html.Screen,10_34_2,2023-11-30T17:15:13.411Z,,,,,,,,,,,NaN,,,,,,,,low,high,,,,,,,false,,,,,false,605882.4000000954,605882.4000000954,,605882.2999999523,,605892.153,5,600,,
sequence,flow.Sequence,10_34,2023-11-30T17:15:13.411Z,,,,,,,,,,,5173.529000095325,completion,,,,,,,low,high,,,,,,,false,,,,,false,605882.600000143,605882.4000000954,600692.384,600698.9000000954,600708.871,605892.153,5,600,,
trial,html.Screen,10_35_0,2023-11-30T17:15:17.956Z,,,,1,-0.0070725527271049,-0.0049995141077508,,0.05,true,ll,4535.247000095318,response,-1.1346217981791904,0.766559661823994,-1.1449603235036763,-1.1555132168806113,0.7981268553688925,-1.1492372267699582,low,low,,ISIC_6124481.JPG,9,ISIC_0032771.JPG,33,26,false,0.1,ll,keypress(f),0,false,610427.7000000477,610427.4000000954,605875.538,605882.600000143,605892.153,610442.144,5,600,36,
break,html.Screen,10_35_1,2023-11-30T17:15:17.957Z,,,,,,,,,,,NaN,,,,,,,,low,low,,,,,,,false,,,,,false,610428.600000143,610428.2999999523,,610428,,610442.144,5,600,,
break_continue,html.Screen,10_35_2,2023-11-30T17:15:17.957Z,,,,,,,,,,,NaN,,,,,,,,low,low,,,,,,,false,,,,,false,610429,610428.7999999523,,610428.600000143,,610442.144,5,600,,
sequence,flow.Sequence,10_35,2023-11-30T17:15:17.958Z,,,,,,,,,,,4536.646999952267,completion,,,,,,,low,low,,,,,,,false,,,,,false,610429.2999999523,610428.7999999523,605875.538,605882.600000143,605892.153,610442.144,5,600,,
trial,html.Screen,10_36_0,2023-11-30T17:15:23.474Z,,,,1,0.0134764727102299,0.0033499036460912,,0.05,false,lh,5503.655999952345,response,-1.0748728054622358,0.766559661823994,-1.1449603235036763,0.6883893701485907,0.7981268553688925,-1.1492372267699582,low,high,,ISIC_0009998.JPG,9,ISIC_0059219.JPG,33,26,false,0.21000000000000008,hl,keypress(j),0,false,615945.7999999523,615945.7999999523,610425.405,610429.4000000954,610442.144,615958.806,5,600,37,
break,html.Screen,10_36_1,2023-11-30T17:15:23.474Z,,,,,,,,,,,NaN,,,,,,,,low,high,,,,,,,false,,,,,false,615946.2000000477,615946.100000143,,615945.9000000954,,615958.806,5,600,,
break_continue,html.Screen,10_36_2,2023-11-30T17:15:23.475Z,,,,,,,,,,,NaN,,,,,,,,low,high,,,,,,,false,,,,,false,615946.2999999523,615946.2000000477,,615946.2000000477,,615958.806,5,600,,
sequence,flow.Sequence,10_36,2023-11-30T17:15:23.475Z,,,,,,,,,,,5504.056000047713,completion,,,,,,,low,high,,,,,,,false,,,,,false,615946.4000000954,615946.2000000477,610425.405,610429.2999999523,610442.144,615958.806,5,600,,
trial,html.Screen,10_37_0,2023-11-30T17:15:26.082Z,,,,1,-0.0116094682222121,0.0258434522530318,,0.05,false,ll,2595.094000095385,response,-1.1877026569952844,0.766559661823994,-1.1449603235036763,-1.1604367569896263,0.7981268553688925,-1.1492372267699582,low,low,,ISIC_9239632.JPG,9,ISIC_0064589.JPG,33,26,false,0.1,hl,keypress(j),0,false,618554.100000143,618553.9000000954,615942.107,615946.4000000954,615958.806,618558.805,5,600,38,
break,html.Screen,10_37_1,2023-11-30T17:15:26.083Z,,,,,,,,,,,NaN,,,,,,,,low,low,,,,,,,false,,,,,false,618554.600000143,618554.5,,618554.2000000477,,618558.805,5,600,,
break_continue,html.Screen,10_37_2,2023-11-30T17:15:26.083Z,,,,,,,,,,,NaN,,,,,,,,low,low,,,,,,,false,,,,,false,618554.7000000477,618554.7000000477,,618554.600000143,,618558.805,5,600,,
sequence,flow.Sequence,10_37,2023-11-30T17:15:26.083Z,,,,,,,,,,,2595.8940000477014,completion,,,,,,,low,low,,,,,,,false,,,,,false,618554.7999999523,618554.7000000477,615942.107,615946.4000000954,615958.806,618558.805,5,600,,
