sender,sender_type,sender_id,timestamp,meta,,age,blockNo,c1,c2,condition,control_tolerance,correct,correctResponse,duration,ended_on,f1,f1_high,f1_low,f2,f2_high,f2_low,feature_level1,feature_level2,gender,img_left,img_reveal,img_right,n_control_images,n_target_images,practice,range_tolerance,response,response_action,selection_duration,staircase,time_commit,time_end,time_render,time_run,time_show,time_switch,total_blocks,total_trials,trialNo,url
informed_consent,html.Screen,0,2023-11-27T19:36:00.602Z,"{""labjs_version"":""20.2.4"",""labjs_build"":{""flavor"":""development"",""commit"":""f5b4a49f956347addd546a832a3327688c2c0fef""},""location"":""https://labjs.felixhenninger.com/api/labjs_preview/index.html"",""userAgent"":""Mozilla/5.0 (Windows NT 10.0; Win64; x64) AppleWebKit/537.36 (KHTML, like Gecko) Chrome/119.0.0.0 Safari/537.36"",""platform"":""Win32"",""language"":""en-US"",""locale"":""en-US"",""timeZone"":""America/Chicago"",""timezoneOffset"":360,""screen_width"":1920,""screen_height"":1080,""scroll_width"":945,""scroll_height"":918,""window_innerWidth"":945,""window_innerHeight"":966,""devicePixelRatio"":1}",,,,,,,,,,9854.291999952316,response,,,,,,,,,,,,,,,,,consent,click button,,,10757.400000095367,10748.799999952316,877.834,1066.4000000953674,894.508,10577.82,,,,{}
Demography form,html.Form,1,2023-11-27T19:36:08.611Z,,,19,,,,,,,,8186.880000047684,form submission,,,,,,,,,male,,,,,,,,,,,,18764.799999952316,18764.700000047684,10561.269,10757.599999904633,10577.82,18577.913,,,,
Welcome,html.Screen,2,2023-11-27T19:36:09.988Z,,,,,,,"[""asym"",""bor""]",,,,1562.987000095367,response,,,,,,,,,,,,,,,,,continue,click button,,,20141.5,20140.900000095367,18561.134,18765,18577.913,19961.32,,,,
demo_instructions,html.Screen,3,2023-11-27T19:36:27.259Z,,,,,,,,,,,17451.68,response,,,,,,,,,,,,,,,,,continue,click button,,,37413.40000009537,37413,19944.431,20141.599999904633,19961.32,37244.397,,,,
trial,html.Screen,4_0_0,2023-11-27T19:36:34.789Z,,,,0,-1.2282561398079586,-1.210457198775374,,,true,hh,7698.3030000476865,response,1.131522954199764,1.2,-1.2,1.1047184491749509,1.2,-1.2,high,high,,ISIC_9141817.JPG,,ISIC_1868816.JPG,,26,true,0.15000000000000002,hh,keypress(i),100,false,44943.09999990463,44942.700000047684,37227.969,37413.59999990463,37244.397,44761.21,1,16,1,
sequence,flow.Sequence,4_0,2023-11-27T19:36:34.789Z,,,,,,,,,,,7698.3030000476865,completion,,,,,,,high,high,,,,,,,true,,,,,false,44943.40000009537,44942.700000047684,37227.969,37413.59999990463,37244.397,44761.21,1,16,,
trial,html.Screen,4_1_0,2023-11-27T19:36:37.806Z,,,,0,-1.2493792664822851,-1.1336008561684745,,,true,hh,3198.9900000476846,response,1.2724584600905462,1.2,-1.2,1.1411016103695344,1.2,-1.2,high,high,,ISIC_0061475.JPG,,ISIC_0059625.JPG,,26,true,0.15000000000000002,hh,keypress(i),100,false,47960.40000009537,47960.200000047684,44744.385,44943.59999990463,44761.21,47777.918,1,16,2,
sequence,flow.Sequence,4_1,2023-11-27T19:36:37.807Z,,,,,,,,,,,3198.9900000476846,completion,,,,,,,high,high,,,,,,,true,,,,,false,47960.700000047684,47960.200000047684,44744.385,44943.5,44761.21,47777.918,1,16,,
trial,html.Screen,4_2_0,2023-11-27T19:36:41.494Z,,,,0,-1.2071341803968807,-1.235960269089932,,,true,hh,3870.1819999046347,response,1.2724584600905462,1.2,-1.2,1.1411016103695344,1.2,-1.2,high,high,,ISIC_0058174.JPG,,ISIC_0059625.JPG,,26,true,0.15000000000000002,hh,keypress(i),100,false,51648.5,51648.09999990463,47761.021,47960.799999952316,47777.918,51477.706,1,16,3,
sequence,flow.Sequence,4_2,2023-11-27T19:36:41.495Z,,,,,,,,,,,3870.1819999046347,completion,,,,,,,high,high,,,,,,,true,,,,,false,51648.90000009537,51648.09999990463,47761.021,47960.700000047684,47777.918,51477.706,1,16,,
trial,html.Screen,4_3_0,2023-11-27T19:36:43.793Z,,,,0,-1.2750452296609045,-1.1682369131232675,,,true,hh,2468.3939999046343,response,1.2724584600905462,1.2,-1.2,1.1411016103695344,1.2,-1.2,high,high,,ISIC_0066399.JPG,,ISIC_0059625.JPG,,26,true,0.15000000000000002,hh,keypress(i),100,false,53946.5,53946.09999990463,51461.196,51649,51477.706,53777.812,1,16,4,
sequence,flow.Sequence,4_3,2023-11-27T19:36:43.793Z,,,,,,,,,,,2468.3939999046343,completion,,,,,,,high,high,,,,,,,true,,,,,false,53947.09999990463,53946.09999990463,51461.196,51649,51477.706,53777.812,1,16,,
trial,html.Screen,4_4_0,2023-11-27T19:36:46.432Z,,,,0,1.0717785279820962,1.1267239445830604,,,false,ll,2807.5880000953694,response,-1.1164729501046406,1.2,-1.2,-1.2978935747992253,1.2,-1.2,low,low,,ISIC_9948815.JPG,,ISIC_0034166.JPG,,30,true,0.1,lh,keypress(e),100,false,56585.59999990463,56585.40000009537,53761.029,53947.299999952316,53777.812,56411.09,1,16,5,
sequence,flow.Sequence,4_4,2023-11-27T19:36:46.432Z,,,,,,,,,,,2807.5880000953694,completion,,,,,,,low,low,,,,,,,true,,,,,false,56586.09999990463,56585.40000009537,53761.029,53947.200000047684,53777.812,56411.09,1,16,,
trial,html.Screen,4_5_0,2023-11-27T19:36:48.539Z,,,,0,1.1388430156686884,1.2700552354887775,,,true,ll,2281.509999904636,response,-1.0762260610050776,1.2,-1.2,-1.082709423673037,1.2,-1.2,low,low,,ISIC_9939653.JPG,,ISIC_0058666.JPG,,53,true,0.15000000000000002,ll,keypress(f),100,false,58692.90000009537,58692.59999990463,56394.424,56586.299999952316,56411.09,58511.023,1,16,6,
sequence,flow.Sequence,4_5,2023-11-27T19:36:48.539Z,,,,,,,,,,,2281.509999904636,completion,,,,,,,low,low,,,,,,,true,,,,,false,58693.40000009537,58692.59999990463,56394.424,56586.200000047684,56411.09,58511.023,1,16,,
trial,html.Screen,4_6_0,2023-11-27T19:36:50.811Z,,,,0,1.0959058628476686,1.1684835186766898,,,true,ll,2453.476999999999,response,-1.2618585285282764,1.2,-1.2,-1.0804044917288194,1.2,-1.2,low,low,,ISIC_5920470.JPG,,ISIC_0011691.JPG,,53,true,0.15000000000000002,ll,keypress(f),100,false,60965,60964.5,58494.428,58693.700000047684,58511.023,60794.55,1,16,7,
sequence,flow.Sequence,4_6,2023-11-27T19:36:50.811Z,,,,,,,,,,,2453.476999999999,completion,,,,,,,low,low,,,,,,,true,,,,,false,60965.40000009537,60964.5,58494.428,58693.59999990463,58511.023,60794.55,1,16,,
trial,html.Screen,4_7_0,2023-11-27T19:36:52.690Z,,,,0,1.1388430156686884,1.2700552354887775,,,true,ll,2049.449999999997,response,-1.0700930503975157,1.2,-1.2,-1.2020012168275056,1.2,-1.2,low,low,,ISIC_9939653.JPG,,ISIC_0000022.JPG,,53,true,0.15000000000000002,ll,keypress(f),100,false,62844.299999952316,62844,60777.933,60965.5,60794.55,62677.644,1,16,8,
sequence,flow.Sequence,4_7,2023-11-27T19:36:52.691Z,,,,,,,,,,,2049.449999999997,completion,,,,,,,low,low,,,,,,,true,,,,,false,62844.799999952316,62844,60777.933,60965.5,60794.55,62677.644,1,16,,
trial,html.Screen,4_8_0,2023-11-27T19:36:54.923Z,,,,0,0.879102500583965,-1.0933081951979773,,,true,lh,2398.5560000476835,response,-0.948927472020595,1.2,-1.2,1.0660437155921598,1.2,-1.2,low,high,,ISIC_0046223.JPG,,ISIC_5808758.JPG,,27,true,0.42000000000000026,lh,keypress(e),100,false,65076.5,65076.200000047684,62644.487,62844.90000009537,62677.644,64894.316,1,16,9,
sequence,flow.Sequence,4_8,2023-11-27T19:36:54.923Z,,,,,,,,,,,2398.5560000476835,completion,,,,,,,low,high,,,,,,,true,,,,,false,65077,65076.200000047684,62644.487,62844.799999952316,62677.644,64894.316,1,16,,
trial,html.Screen,4_9_0,2023-11-27T19:36:57.129Z,,,,0,1.2364994561934892,-0.9174173651516624,,,true,lh,2388.684000000001,response,-1.0213365328004047,1.2,-1.2,1.088524359911891,1.2,-1.2,low,high,,ISIC_3481133.JPG,,ISIC_5434229.JPG,,27,true,0.42000000000000026,lh,keypress(e),100,false,67283.20000004768,67283,64877.744,65077.200000047684,64894.316,67110.988,1,16,10,
sequence,flow.Sequence,4_9,2023-11-27T19:36:57.129Z,,,,,,,,,,,2388.684000000001,completion,,,,,,,low,high,,,,,,,true,,,,,false,67283.29999995232,67283,64877.744,65077.200000047684,64894.316,67110.988,1,16,,
trial,html.Screen,4_10_0,2023-11-27T19:36:58.694Z,,,,0,1.2364994561934892,-0.9174173651516624,,,true,lh,1737.0120000000024,response,-0.8200962008791046,1.2,-1.2,0.7936051642828523,1.2,-1.2,low,high,,ISIC_3481133.JPG,,ISIC_0027031.JPG,,27,true,0.42000000000000026,lh,keypress(e),100,false,68848.29999995232,68848,67094.295,67283.29999995232,67110.988,68677.599,1,16,11,
sequence,flow.Sequence,4_10,2023-11-27T19:36:58.695Z,,,,,,,,,,,1737.0120000000024,completion,,,,,,,low,high,,,,,,,true,,,,,false,68848.70000004768,68848,67094.295,67283.29999995232,67110.988,68677.599,1,16,,
trial,html.Screen,4_11_0,2023-11-27T19:36:59.859Z,,,,0,1.2695509547992938,-0.9641099676945492,,,true,lh,1334.900999999998,response,-1.276222161935671,1.2,-1.2,0.9657780821973284,1.2,-1.2,low,high,,ISIC_0025841.JPG,,ISIC_6710411.JPG,,27,true,0.42000000000000026,lh,keypress(e),100,false,70012.90000009537,70012.5,68661.008,68848.79999995232,68677.599,69844.297,1,16,12,
sequence,flow.Sequence,4_11,2023-11-27T19:36:59.859Z,,,,,,,,,,,1334.900999999998,completion,,,,,,,low,high,,,,,,,true,,,,,false,70013.40000009537,70012.5,68661.008,68848.70000004768,68677.599,69844.297,1,16,,
trial,html.Screen,4_12_0,2023-11-27T19:37:01.111Z,,,,0,-0.8092423703106274,1.1870093485714288,,,true,hl,1420.5029999523103,response,1.0751036484083878,1.2,-1.2,-1.143906455483852,1.2,-1.2,high,low,,ISIC_8592235.JPG,,ISIC_0064406.JPG,,26,true,0.3600000000000002,hl,keypress(j),100,false,71264.90000009537,71264.79999995232,69827.704,70013.70000004768,69844.297,71094.549,1,16,13,
sequence,flow.Sequence,4_12,2023-11-27T19:37:01.111Z,,,,,,,,,,,1420.5029999523103,completion,,,,,,,high,low,,,,,,,true,,,,,false,71265,71264.79999995232,69827.704,70013.59999990463,69844.297,71094.549,1,16,,
trial,html.Screen,4_13_0,2023-11-27T19:37:03.929Z,,,,0,-1.0115965332688306,0.8282633603842442,,,true,hl,2988.5509999046335,response,1.2331439637486756,1.2,-1.2,-0.9691143900156988,1.2,-1.2,high,low,,ISIC_1069587.JPG,,ISIC_7877488.JPG,,33,true,0.42000000000000026,hl,keypress(j),100,false,74083.29999995232,74083.09999990463,71077.652,71265,71094.549,73910.959,1,16,14,
sequence,flow.Sequence,4_13,2023-11-27T19:37:03.930Z,,,,,,,,,,,2988.5509999046335,completion,,,,,,,high,low,,,,,,,true,,,,,false,74083.90000009537,74083.09999990463,71077.652,71265,71094.549,73910.959,1,16,,
trial,html.Screen,4_14_0,2023-11-27T19:37:05.914Z,,,,0,-1.0164576835546473,0.8120626538423016,,,true,hl,2156.8409999523137,response,1.4747161152848791,1.2,-1.2,-0.847048591307387,1.2,-1.2,high,low,,ISIC_6002694.JPG,,ISIC_0016092.JPG,,33,true,0.42000000000000026,hl,keypress(j),100,false,76068.09999990463,76067.79999995232,73894.382,74084.09999990463,73910.959,75894.258,1,16,15,
sequence,flow.Sequence,4_14,2023-11-27T19:37:05.915Z,,,,,,,,,,,2156.8409999523137,completion,,,,,,,high,low,,,,,,,true,,,,,false,76068.59999990463,76067.79999995232,73894.382,74084,73910.959,75894.258,1,16,,
trial,html.Screen,4_15_0,2023-11-27T19:37:07.693Z,,,,0,-0.8035152873995188,0.82868450251632,,,true,hl,1951.7419999999984,response,0.8860551570327019,1.2,-1.2,-0.8067116931297591,1.2,-1.2,high,low,,ISIC_0010671.JPG,,ISIC_1457687.JPG,,33,true,0.42000000000000026,hl,keypress(j),100,false,77846.20000004768,77846,75877.663,76068.79999995232,75894.258,77677.592,1,16,16,
sequence,flow.Sequence,4_15,2023-11-27T19:37:07.693Z,,,,,,,,,,,1951.7419999999984,completion,,,,,,,high,low,,,,,,,true,,,,,false,77846.70000004768,77846,75877.663,76068.70000004768,75894.258,77677.592,1,16,,
demonstration_loop,flow.Loop,4,2023-11-27T19:37:07.694Z,,,,,,,,,,,40601.603,completion,,,,,,,,,,,,,,,true,,,,,false,77847.09999990463,77846,37227.969,37413.5,37244.397,77677.592,1,16,,
practice_instructions,html.Screen,5,2023-11-27T19:37:10.020Z,,,,,,,,,,,2495.407999999996,response,,,,,,,,,,,,,,,,,continue,click button,,,80173.40000009537,80173,77660.985,77847.20000004768,77677.592,79994.481,,,,
trial,html.Screen,6_0_0,2023-11-27T19:37:18.975Z,,,,1,-1.1877026569952844,-1.1604367569896263,,,true,hh,9134.118999904633,response,1.3411179702686655,1.2,-1.2,1.255103311449152,1.2,-1.2,high,high,,ISIC_0064589.JPG,,ISIC_5611010.JPG,,26,true,0.15000000000000002,hh,keypress(i),0,false,89128.90000009537,89128.59999990463,79977.597,80173.59999990463,79994.481,88961.078,1,40,1,
sequence,flow.Sequence,6_0,2023-11-27T19:37:18.976Z,,,,,,,,,,,9134.118999904633,completion,,,,,,,high,high,,,,,,,true,,,,,false,89129.40000009537,89128.59999990463,79977.597,80173.59999990463,79994.481,88961.078,1,40,,
trial,html.Screen,6_1_0,2023-11-27T19:37:20.814Z,,,,1,1.1210325063849345,1.1498648320956202,,,true,ll,2006.2219999523222,response,-1.2952503640839694,1.2,-1.2,-1.107234527385344,1.2,-1.2,low,low,,ISIC_0032162.JPG,,ISIC_0034134.JPG,,30,true,0.1,ll,keypress(f),0,false,90967.5,90967.29999995232,88944.414,89129.59999990463,88961.078,90794.221,1,40,2,
sequence,flow.Sequence,6_1,2023-11-27T19:37:20.815Z,,,,,,,,,,,2006.2219999523222,completion,,,,,,,low,low,,,,,,,true,,,,,false,90968,90967.29999995232,88944.414,89129.5,88961.078,90794.221,1,40,,
trial,html.Screen,6_2_0,2023-11-27T19:37:22.791Z,,,,1,-0.991146183030456,0.9949639823722534,,,true,hl,2149.5789999523113,response,0.8534691366511764,1.2,-1.2,-1.03975580494588,1.2,-1.2,high,low,,ISIC_6342224.JPG,,ISIC_0056788.JPG,,26,true,0.3600000000000002,hl,keypress(j),0,false,92944,92943.79999995232,90761.025,90968.29999995232,90794.221,92760.972,1,40,3,
sequence,flow.Sequence,6_2,2023-11-27T19:37:22.791Z,,,,,,,,,,,2149.5789999523113,completion,,,,,,,high,low,,,,,,,true,,,,,false,92944.29999995232,92943.79999995232,90761.025,90968.20000004768,90794.221,92760.972,1,40,,
trial,html.Screen,6_3_0,2023-11-27T19:37:25.110Z,,,,1,1.086647361897092,1.1528935990320313,,,true,ll,2502.0280000000057,response,-1.081764451727175,1.2,-1.2,-1.4776922599508655,1.2,-1.2,low,low,,ISIC_3505339.JPG,,ISIC_0011753.JPG,,339,true,0.42000000000000026,ll,keypress(f),0,false,95263.20000004768,95263,92744.488,92944.5,92760.972,95077.548,1,40,4,
sequence,flow.Sequence,6_3,2023-11-27T19:37:25.110Z,,,,,,,,,,,2502.0280000000057,completion,,,,,,,low,low,,,,,,,true,,,,,false,95263.5,95263,92744.488,92944.5,92760.972,95077.548,1,40,,
trial,html.Screen,6_4_0,2023-11-27T19:37:26.446Z,,,,1,-0.7870237732709365,0.9172955251119376,,,true,hl,1521.3520000953722,response,1.1181734135756094,1.2,-1.2,-0.944560381774994,1.2,-1.2,high,low,,ISIC_0057716.JPG,,ISIC_9688534.JPG,,26,true,0.3600000000000002,hl,keypress(j),0,false,96599.09999990463,96598.90000009537,95061.092,95263.70000004768,95077.548,96410.884,1,40,5,
sequence,flow.Sequence,6_4,2023-11-27T19:37:26.446Z,,,,,,,,,,,1521.3520000953722,completion,,,,,,,high,low,,,,,,,true,,,,,false,96599.5,96598.90000009537,95061.092,95263.59999990463,95077.548,96410.884,1,40,,
trial,html.Screen,6_5_0,2023-11-27T19:37:27.823Z,,,,1,-0.809764442462202,1.005337148078696,,,true,hl,1564.9159999523108,response,1.4747161152848791,1.2,-1.2,-0.847048591307387,1.2,-1.2,high,low,,ISIC_2379379.JPG,,ISIC_0016092.JPG,,33,true,0.42000000000000026,hl,keypress(j),0,false,97976,97975.79999995232,96394.208,96599.59999990463,96410.884,97794.494,1,40,6,
sequence,flow.Sequence,6_5,2023-11-27T19:37:27.823Z,,,,,,,,,,,1564.9159999523108,completion,,,,,,,high,low,,,,,,,true,,,,,false,97976.5,97975.79999995232,96394.208,96599.59999990463,96410.884,97794.494,1,40,,
trial,html.Screen,6_6_0,2023-11-27T19:37:29.214Z,,,,1,-1.2493792664822851,-1.1336008561684745,,,true,hh,1572.8059999523102,response,0.8826131775592696,1.2,-1.2,1.1197820736747437,1.2,-1.2,high,high,,ISIC_0061475.JPG,,ISIC_7137995.JPG,,253,true,0.42000000000000026,hh,keypress(i),0,false,99367.59999990463,99367.29999995232,97777.679,97976.59999990463,97794.494,99177.546,1,40,7,
sequence,flow.Sequence,6_6,2023-11-27T19:37:29.214Z,,,,,,,,,,,1572.8059999523102,completion,,,,,,,high,high,,,,,,,true,,,,,false,99367.90000009537,99367.29999995232,97777.679,97976.59999990463,97794.494,99177.546,1,40,,
trial,html.Screen,6_7_0,2023-11-27T19:37:30.966Z,,,,1,-1.0022829373011404,0.8311726972863814,,,true,hl,1941.3540000953653,response,0.8534691366511764,1.2,-1.2,-1.03975580494588,1.2,-1.2,high,low,,ISIC_0033287.JPG,,ISIC_0056788.JPG,,26,true,0.3600000000000002,hl,keypress(j),0,false,101119.09999990463,101118.90000009537,99161.088,99368.09999990463,99177.546,100927.538,1,40,8,
sequence,flow.Sequence,6_7,2023-11-27T19:37:30.966Z,,,,,,,,,,,1941.3540000953653,completion,,,,,,,high,low,,,,,,,true,,,,,false,101119.40000009537,101118.90000009537,99161.088,99368,99177.546,100927.538,1,40,,
trial,html.Screen,6_8_0,2023-11-27T19:37:32.911Z,,,,1,1.201100953917304,1.1751492358160105,,,true,ll,2136.362000095367,response,-1.5477347901499845,1.2,-1.2,-1.3847208101694664,1.2,-1.2,low,low,,ISIC_0647224.JPG,,ISIC_0053542.JPG,,339,true,0.42000000000000026,ll,keypress(f),0,false,103064.20000004768,103063.90000009537,100911.085,101119.59999990463,100927.538,102877.535,1,40,9,
sequence,flow.Sequence,6_8,2023-11-27T19:37:32.911Z,,,,,,,,,,,2136.362000095367,completion,,,,,,,low,low,,,,,,,true,,,,,false,103064.5,103063.90000009537,100911.085,101119.5,100927.538,102877.535,1,40,,
trial,html.Screen,6_9_0,2023-11-27T19:37:34.254Z,,,,1,1.2364994561934892,-0.9174173651516624,,,true,lh,1529.365000095364,response,-0.809764442462202,1.2,-1.2,1.005337148078696,1.2,-1.2,low,high,,ISIC_3481133.JPG,,ISIC_2379379.JPG,,27,true,0.42000000000000026,lh,keypress(e),0,false,104407.20000004768,104406.90000009537,102860.96,103064.70000004768,102877.535,104210.925,1,40,10,
sequence,flow.Sequence,6_9,2023-11-27T19:37:34.254Z,,,,,,,,,,,1529.365000095364,completion,,,,,,,low,high,,,,,,,true,,,,,false,104407.59999990463,104406.90000009537,102860.96,103064.59999990463,102877.535,104210.925,1,40,,
trial,html.Screen,6_10_0,2023-11-27T19:37:35.358Z,,,,1,1.09666761087476,1.1072126870290426,,,true,ll,1299.7750000476808,response,-0.9209488961172596,1.2,-1.2,-0.9916011869447884,1.2,-1.2,low,low,,ISIC_0071754.JPG,,ISIC_3338629.JPG,,245,true,0.3600000000000002,ll,keypress(f),0,false,105511,105510.70000004768,104194.382,104407.70000004768,104210.925,105327.519,1,40,11,
sequence,flow.Sequence,6_10,2023-11-27T19:37:35.358Z,,,,,,,,,,,1299.7750000476808,completion,,,,,,,low,low,,,,,,,true,,,,,false,105511.40000009537,105510.70000004768,104194.382,104407.70000004768,104210.925,105327.519,1,40,,
trial,html.Screen,6_11_0,2023-11-27T19:37:37.341Z,,,,1,1.4747161152848791,-0.847048591307387,,,true,lh,2166.4809999999998,response,-0.9873794329144926,1.2,-1.2,0.7991077882008257,1.2,-1.2,low,high,,ISIC_0016092.JPG,,ISIC_0013498.JPG,,27,true,0.42000000000000026,lh,keypress(e),0,false,107494,107494,105311.057,105511.59999990463,105327.519,107311.053,1,40,12,
sequence,flow.Sequence,6_11,2023-11-27T19:37:37.341Z,,,,,,,,,,,2166.4809999999998,completion,,,,,,,low,high,,,,,,,true,,,,,false,107494.09999990463,107494,105311.057,105511.5,105327.519,107311.053,1,40,,
trial,html.Screen,6_12_0,2023-11-27T19:37:39.132Z,,,,1,1.1598623261077452,1.203269031614007,,,true,ll,1974.0469999046327,response,-1.1877026569952844,1.2,-1.2,-1.1604367569896263,1.2,-1.2,low,low,,ISIC_0002639.JPG,,ISIC_0064589.JPG,,245,true,0.3600000000000002,ll,keypress(f),0,false,109285.29999995232,109285.09999990463,107294.426,107494.20000004768,107311.053,109094.159,1,40,13,
sequence,flow.Sequence,6_12,2023-11-27T19:37:39.132Z,,,,,,,,,,,1974.0469999046327,completion,,,,,,,low,low,,,,,,,true,,,,,false,109285.5,109285.09999990463,107294.426,107494.20000004768,107311.053,109094.159,1,40,,
trial,html.Screen,6_13_0,2023-11-27T19:37:40.716Z,,,,1,1.2503149164557643,1.0796591227570405,,,true,ll,1775.1409999523166,response,-1.2015106101917423,1.2,-1.2,-1.071085024260525,1.2,-1.2,low,low,,ISIC_2466892.JPG,,ISIC_0072496.JPG,,53,true,0.15000000000000002,ll,keypress(f),0,false,110869.40000009537,110869.29999995232,109077.487,109285.5,109094.159,110677.476,1,40,14,
sequence,flow.Sequence,6_13,2023-11-27T19:37:40.716Z,,,,,,,,,,,1775.1409999523166,completion,,,,,,,low,low,,,,,,,true,,,,,false,110869.59999990463,110869.29999995232,109077.487,109285.5,109094.159,110677.476,1,40,,
trial,html.Screen,6_14_0,2023-11-27T19:37:43.117Z,,,,1,-1.1474466950560966,-1.268445326285509,,,true,hh,2592.9240000953723,response,1.1598623261077452,1.2,-1.2,1.203269031614007,1.2,-1.2,high,high,,ISIC_5216586.JPG,,ISIC_0002639.JPG,,26,true,0.15000000000000002,hh,keypress(i),0,false,113270.5,113270.40000009537,110660.832,110869.70000004768,110677.476,113094.151,1,40,15,
sequence,flow.Sequence,6_14,2023-11-27T19:37:43.117Z,,,,,,,,,,,2592.9240000953723,completion,,,,,,,high,high,,,,,,,true,,,,,false,113270.90000009537,113270.40000009537,110660.832,110869.59999990463,110677.476,113094.151,1,40,,
trial,html.Screen,6_15_0,2023-11-27T19:37:46.230Z,,,,1,-0.8655167308525522,0.9298580423306444,,,true,hl,3288.5490000476857,response,1.2075172235545184,1.2,-1.2,-0.9116724966267612,1.2,-1.2,high,low,,ISIC_4603706.JPG,,ISIC_0024235.JPG,,26,true,0.3600000000000002,hl,keypress(j),0,false,116383,116382.70000004768,113060.79,113270.90000009537,113094.151,116194.231,1,40,16,
sequence,flow.Sequence,6_15,2023-11-27T19:37:46.230Z,,,,,,,,,,,3288.5490000476857,completion,,,,,,,high,low,,,,,,,true,,,,,false,116383.40000009537,116382.70000004768,113060.79,113270.90000009537,113094.151,116194.231,1,40,,
trial,html.Screen,6_16_0,2023-11-27T19:37:48.279Z,,,,1,1.2024083555600384,1.149077673153018,,,true,ll,2237.5689999523165,response,-0.9866439901618108,1.2,-1.2,-0.9294281370493894,1.2,-1.2,low,low,,ISIC_3566243.JPG,,ISIC_0072953.JPG,,339,true,0.42000000000000026,ll,keypress(f),0,false,118432,118431.79999995232,116177.653,116383.5,116194.231,118244.154,1,40,17,
sequence,flow.Sequence,6_16,2023-11-27T19:37:48.279Z,,,,,,,,,,,2237.5689999523165,completion,,,,,,,low,low,,,,,,,true,,,,,false,118432.40000009537,118431.79999995232,116177.653,116383.5,116194.231,118244.154,1,40,,
trial,html.Screen,6_17_0,2023-11-27T19:37:50.207Z,,,,1,-0.7833710010171356,0.9315588090336896,,,true,hl,2115.6459999523213,response,1.331700944308701,1.2,-1.2,-0.9395196143259436,1.2,-1.2,high,low,,ISIC_3826102.JPG,,ISIC_1668831.JPG,,26,true,0.3600000000000002,hl,keypress(j),0,false,120360,120359.79999995232,118227.691,118432.5,118244.154,120177.698,1,40,18,
sequence,flow.Sequence,6_17,2023-11-27T19:37:50.207Z,,,,,,,,,,,2115.6459999523213,completion,,,,,,,high,low,,,,,,,true,,,,,false,120360.40000009537,120359.79999995232,118227.691,118432.5,118244.154,120177.698,1,40,,
trial,html.Screen,6_18_0,2023-11-27T19:37:51.734Z,,,,1,-1.101346104814838,-1.1225813067473052,,,true,hh,1709.5020000476798,response,0.9487751044258608,1.2,-1.2,0.875032819970805,1.2,-1.2,high,high,,ISIC_8175453.JPG,,ISIC_4568084.JPG,,253,true,0.42000000000000026,hh,keypress(i),0,false,121887.5,121887.20000004768,120161.015,120360.59999990463,120177.698,121694.145,1,40,19,
sequence,flow.Sequence,6_18,2023-11-27T19:37:51.734Z,,,,,,,,,,,1709.5020000476798,completion,,,,,,,high,high,,,,,,,true,,,,,false,121887.90000009537,121887.20000004768,120161.015,120360.5,120177.698,121694.145,1,40,,
trial,html.Screen,6_19_0,2023-11-27T19:37:53.182Z,,,,1,1.1653123206802332,1.2976858999596654,,,true,ll,1641.0550000476796,response,-1.2923059965680113,1.2,-1.2,-1.222688159093534,1.2,-1.2,low,low,,ISIC_0071508.JPG,,ISIC_0072175.JPG,,30,true,0.1,ll,keypress(f),0,false,123335.70000004768,123335.20000004768,121677.633,121888,121694.145,123144.099,1,40,20,
sequence,flow.Sequence,6_19,2023-11-27T19:37:53.183Z,,,,,,,,,,,1641.0550000476796,completion,,,,,,,low,low,,,,,,,true,,,,,false,123336.29999995232,123335.20000004768,121677.633,121888,121694.145,123144.099,1,40,,
trial,html.Screen,6_20_0,2023-11-27T19:37:54.662Z,,,,1,1.1598623261077452,1.203269031614007,,,true,ll,1670.900999999998,response,-1.2923059965680113,1.2,-1.2,-1.222688159093534,1.2,-1.2,low,low,,ISIC_0002639.JPG,,ISIC_0072175.JPG,,53,true,0.15000000000000002,ll,keypress(f),0,false,124815.20000004768,124815,123127.74,123336.59999990463,123144.099,124627.531,1,40,21,
sequence,flow.Sequence,6_20,2023-11-27T19:37:54.662Z,,,,,,,,,,,1670.900999999998,completion,,,,,,,low,low,,,,,,,true,,,,,false,124815.5,124815,123127.74,123336.5,123144.099,124627.531,1,40,,
trial,html.Screen,6_21_0,2023-11-27T19:37:56.302Z,,,,1,1.131522954199764,1.1047184491749509,,,true,ll,1827.4689999999973,response,-1.2322060291690602,1.2,-1.2,-1.2686491386389651,1.2,-1.2,low,low,,ISIC_1868816.JPG,,ISIC_0011697.JPG,,53,true,0.15000000000000002,ll,keypress(f),0,false,126455.20000004768,126455,124611.062,124815.70000004768,124627.531,126260.774,1,40,22,
sequence,flow.Sequence,6_21,2023-11-27T19:37:56.302Z,,,,,,,,,,,1827.4689999999973,completion,,,,,,,low,low,,,,,,,true,,,,,false,126455.59999990463,126455,124611.062,124815.70000004768,124627.531,126260.774,1,40,,
trial,html.Screen,6_22_0,2023-11-27T19:37:57.838Z,,,,1,-1.2181031651370575,-1.2158573487067317,,,true,hh,1729.9260000476788,response,1.0858641668099058,1.2,-1.2,1.1638942560200525,1.2,-1.2,high,high,,ISIC_7242312.JPG,,ISIC_5439597.JPG,,26,true,0.15000000000000002,hh,keypress(i),0,false,127990.90000009537,127990.70000004768,126244.236,126455.79999995232,126260.774,127810.776,1,40,23,
sequence,flow.Sequence,6_22,2023-11-27T19:37:57.838Z,,,,,,,,,,,1729.9260000476788,completion,,,,,,,high,high,,,,,,,true,,,,,false,127991.40000009537,127990.70000004768,126244.236,126455.70000004768,126260.774,127810.776,1,40,,
trial,html.Screen,6_23_0,2023-11-27T19:37:59.542Z,,,,1,-0.7998855902596425,1.1518579145663017,,,true,hl,1884.3239999046345,response,0.8979276789594874,1.2,-1.2,-0.925374811016654,1.2,-1.2,high,low,,ISIC_0025061.JPG,,ISIC_4208361.JPG,,26,true,0.3600000000000002,hl,keypress(j),0,false,129695.29999995232,129695.09999990463,127777.467,127991.5,127810.776,129510.928,1,40,24,
sequence,flow.Sequence,6_23,2023-11-27T19:37:59.542Z,,,,,,,,,,,1884.3239999046345,completion,,,,,,,high,low,,,,,,,true,,,,,false,129695.70000004768,129695.09999990463,127777.467,127991.5,127810.776,129510.928,1,40,,
trial,html.Screen,6_24_0,2023-11-27T19:38:01.062Z,,,,1,-1.247270138097585,-1.1704704713504994,,,true,hh,1704.4720000953675,response,0.9684792294535484,1.2,-1.2,0.9741930282015964,1.2,-1.2,high,high,,ISIC_0065774.JPG,,ISIC_3372750.JPG,,253,true,0.42000000000000026,hh,keypress(i),0,false,131215.70000004768,131215.40000009537,129494.09,129695.90000009537,129510.928,131027.513,1,40,25,
sequence,flow.Sequence,6_24,2023-11-27T19:38:01.063Z,,,,,,,,,,,1704.4720000953675,completion,,,,,,,high,high,,,,,,,true,,,,,false,131216.29999995232,131215.40000009537,129494.09,129695.90000009537,129510.928,131027.513,1,40,,
trial,html.Screen,6_25_0,2023-11-27T19:38:02.685Z,,,,1,-1.29026082950341,-1.144672688339213,,,true,hh,1810.28699995231,response,1.1598623261077452,1.2,-1.2,1.203269031614007,1.2,-1.2,high,high,,ISIC_0054317.JPG,,ISIC_0002639.JPG,,26,true,0.15000000000000002,hh,keypress(i),0,false,132838,132837.79999995232,131011.013,131216.5,131027.513,132660.74,1,40,26,
sequence,flow.Sequence,6_25,2023-11-27T19:38:02.685Z,,,,,,,,,,,1810.28699995231,completion,,,,,,,high,high,,,,,,,true,,,,,false,132838.09999990463,132837.79999995232,131011.013,131216.40000009537,131027.513,132660.74,1,40,,
trial,html.Screen,6_26_0,2023-11-27T19:38:05.686Z,,,,1,1.331700944308701,-0.9395196143259436,,,true,lh,3178.0599999523256,response,-1.0164576835546473,1.2,-1.2,0.8120626538423016,1.2,-1.2,low,high,,ISIC_1668831.JPG,,ISIC_6002694.JPG,,27,true,0.42000000000000026,lh,keypress(e),0,false,135839.09999990463,135838.79999995232,132627.598,132838.20000004768,132660.74,135644.162,1,40,27,
sequence,flow.Sequence,6_26,2023-11-27T19:38:05.686Z,,,,,,,,,,,3178.0599999523256,completion,,,,,,,low,high,,,,,,,true,,,,,false,135839.40000009537,135838.79999995232,132627.598,132838.09999990463,132660.74,135644.162,1,40,,
trial,html.Screen,6_27_0,2023-11-27T19:38:08.757Z,,,,1,-1.0164576835546473,0.8120626538423016,,,true,hl,3265.4379999046214,response,1.0865333402803938,1.2,-1.2,-1.0542635307358266,1.2,-1.2,high,low,,ISIC_6002694.JPG,,ISIC_0034006.JPG,,26,true,0.3600000000000002,hl,keypress(j),0,false,138909.59999990463,138909.59999990463,135627.598,135839.59999990463,135644.162,138744.277,1,40,28,
sequence,flow.Sequence,6_27,2023-11-27T19:38:08.757Z,,,,,,,,,,,3265.4379999046214,completion,,,,,,,high,low,,,,,,,true,,,,,false,138909.70000004768,138909.59999990463,135627.598,135839.59999990463,135644.162,138744.277,1,40,,
trial,html.Screen,6_28_0,2023-11-27T19:38:10.631Z,,,,1,-1.2750452296609045,-1.1682369131232675,,,true,hh,2038.6230000953656,response,0.966559957097246,1.2,-1.2,1.4513039567550392,1.2,-1.2,high,high,,ISIC_0066399.JPG,,ISIC_0010089.JPG,,253,true,0.42000000000000026,hh,keypress(i),0,false,140783.09999990463,140782.90000009537,138727.672,138909.79999995232,138744.277,140594.092,1,40,29,
sequence,flow.Sequence,6_28,2023-11-27T19:38:10.631Z,,,,,,,,,,,2038.6230000953656,completion,,,,,,,high,high,,,,,,,true,,,,,false,140783.5,140782.90000009537,138727.672,138909.79999995232,138744.277,140594.092,1,40,,
trial,html.Screen,6_29_0,2023-11-27T19:38:12.463Z,,,,1,1.020990671779317,-1.0116513850520903,,,true,lh,2020.707999952312,response,-0.8623414234919863,1.2,-1.2,0.782830143980698,1.2,-1.2,low,high,,ISIC_0011995.JPG,,ISIC_2727016.JPG,,27,true,0.42000000000000026,lh,keypress(e),0,false,142615.09999990463,142614.79999995232,140577.663,140783.59999990463,140594.092,142427.42,1,40,30,
sequence,flow.Sequence,6_29,2023-11-27T19:38:12.463Z,,,,,,,,,,,2020.707999952312,completion,,,,,,,low,high,,,,,,,true,,,,,false,142615.5,142614.79999995232,140577.663,140783.59999990463,140594.092,142427.42,1,40,,
trial,html.Screen,6_30_0,2023-11-27T19:38:14.023Z,,,,1,-0.7871162143493278,0.8429329800778957,,,true,hl,1747.6799999046198,response,1.4747161152848791,1.2,-1.2,-0.847048591307387,1.2,-1.2,high,low,,ISIC_3439215.JPG,,ISIC_0016092.JPG,,26,true,0.3600000000000002,hl,keypress(j),0,false,144175.29999995232,144175.09999990463,142411.007,142615.59999990463,142427.42,143994.146,1,40,31,
sequence,flow.Sequence,6_30,2023-11-27T19:38:14.023Z,,,,,,,,,,,1747.6799999046198,completion,,,,,,,high,low,,,,,,,true,,,,,false,144175.70000004768,144175.09999990463,142411.007,142615.59999990463,142427.42,143994.146,1,40,,
trial,html.Screen,6_31_0,2023-11-27T19:38:15.574Z,,,,1,1.020990671779317,-1.0116513850520903,,,true,lh,1732.4539999046247,response,-0.809764442462202,1.2,-1.2,1.005337148078696,1.2,-1.2,low,high,,ISIC_0011995.JPG,,ISIC_2379379.JPG,,27,true,0.42000000000000026,lh,keypress(e),0,false,145726.79999995232,145726.59999990463,143961.005,144175.90000009537,143994.146,145544.078,1,40,32,
sequence,flow.Sequence,6_31,2023-11-27T19:38:15.575Z,,,,,,,,,,,1732.4539999046247,completion,,,,,,,low,high,,,,,,,true,,,,,false,145727.29999995232,145726.59999990463,143961.005,144175.79999995232,143994.146,145544.078,1,40,,
trial,html.Screen,6_32_0,2023-11-27T19:38:16.886Z,,,,1,0.8487429103619056,-0.9778257804233036,,,true,lh,1493.9219999999914,response,-0.9873794329144926,1.2,-1.2,0.7991077882008257,1.2,-1.2,low,high,,ISIC_4554863.JPG,,ISIC_0013498.JPG,,27,true,0.42000000000000026,lh,keypress(e),0,false,147038.20000004768,147038,145527.659,145727.5,145544.078,146844.074,1,40,33,
sequence,flow.Sequence,6_32,2023-11-27T19:38:16.886Z,,,,,,,,,,,1493.9219999999914,completion,,,,,,,low,high,,,,,,,true,,,,,false,147038.29999995232,147038,145527.659,145727.40000009537,145544.078,146844.074,1,40,,
trial,html.Screen,6_33_0,2023-11-27T19:38:18.077Z,,,,1,1.2331439637486756,-0.9691143900156988,,,true,lh,1385.4260000000068,response,-1.0264463986917702,1.2,-1.2,1.2804054832904397,1.2,-1.2,low,high,,ISIC_7877488.JPG,,ISIC_7889838.JPG,,27,true,0.42000000000000026,lh,keypress(e),0,false,148229.5,148229.5,146827.506,147038.29999995232,146844.074,148044.073,1,40,34,
sequence,flow.Sequence,6_33,2023-11-27T19:38:18.077Z,,,,,,,,,,,1385.4260000000068,completion,,,,,,,low,high,,,,,,,true,,,,,false,148229.59999990463,148229.5,146827.506,147038.29999995232,146844.074,148044.073,1,40,,
trial,html.Screen,6_34_0,2023-11-27T19:38:19.693Z,,,,1,-0.948927472020595,1.0660437155921598,,,true,hl,1801.3270000953635,response,1.020990671779317,1.2,-1.2,-1.0116513850520903,1.2,-1.2,high,low,,ISIC_5808758.JPG,,ISIC_0011995.JPG,,26,true,0.3600000000000002,hl,keypress(j),0,false,149845.59999990463,149845.40000009537,148027.654,148229.70000004768,148044.073,149660.745,1,40,35,
sequence,flow.Sequence,6_34,2023-11-27T19:38:19.693Z,,,,,,,,,,,1801.3270000953635,completion,,,,,,,high,low,,,,,,,true,,,,,false,149845.70000004768,149845.40000009537,148027.654,148229.70000004768,148044.073,149660.745,1,40,,
trial,html.Screen,6_35_0,2023-11-27T19:38:21.046Z,,,,1,-1.1346217981791904,-1.1555132168806113,,,true,hh,1537.7550000000047,response,0.9125490178245472,1.2,-1.2,0.8381837623442241,1.2,-1.2,high,high,,ISIC_0032771.JPG,,ISIC_4699989.JPG,,253,true,0.42000000000000026,hh,keypress(i),0,false,151198.70000004768,151198.5,149644.192,149845.70000004768,149660.745,151044.054,1,40,36,
sequence,flow.Sequence,6_35,2023-11-27T19:38:21.047Z,,,,,,,,,,,1537.7550000000047,completion,,,,,,,high,high,,,,,,,true,,,,,false,151199.20000004768,151198.5,149644.192,149845.70000004768,149660.745,151044.054,1,40,,
trial,html.Screen,6_36_0,2023-11-27T19:38:22.398Z,,,,1,0.9454713230140772,-0.9245167441969216,,,true,lh,1506.3460000953637,response,-0.8816288864119318,1.2,-1.2,0.801867301188093,1.2,-1.2,low,high,,ISIC_9101055.JPG,,ISIC_9196783.JPG,,27,true,0.42000000000000026,lh,keypress(e),0,false,152550.70000004768,152550.40000009537,150994.303,151199.29999995232,151044.054,152360.765,1,40,37,
sequence,flow.Sequence,6_36,2023-11-27T19:38:22.399Z,,,,,,,,,,,1506.3460000953637,completion,,,,,,,low,high,,,,,,,true,,,,,false,152551.09999990463,152550.40000009537,150994.303,151199.20000004768,151044.054,152360.765,1,40,,
trial,html.Screen,6_37_0,2023-11-27T19:38:23.846Z,,,,1,-1.29026082950341,-1.144672688339213,,,true,hh,1637.9350000476697,response,1.4539413708872362,1.2,-1.2,0.952659927954878,1.2,-1.2,high,high,,ISIC_0054317.JPG,,ISIC_0033152.JPG,,179,true,0.3600000000000002,hh,keypress(i),0,false,153999,153998.70000004768,152344.32,152551.20000004768,152360.765,153827.377,1,40,38,
sequence,flow.Sequence,6_37,2023-11-27T19:38:23.847Z,,,,,,,,,,,1637.9350000476697,completion,,,,,,,high,high,,,,,,,true,,,,,false,153999.29999995232,153998.70000004768,152344.32,152551.20000004768,152360.765,153827.377,1,40,,
trial,html.Screen,6_38_0,2023-11-27T19:38:25.191Z,,,,1,0.9579209317488,-1.0147487101263497,,,true,lh,1516.4229999523086,response,-1.0022829373011404,1.2,-1.2,0.8311726972863814,1.2,-1.2,low,high,,ISIC_8124482.JPG,,ISIC_0033287.JPG,,27,true,0.42000000000000026,lh,keypress(e),0,false,155344.09999990463,155343.79999995232,153794.325,153999.59999990463,153827.377,155160.722,1,40,39,
sequence,flow.Sequence,6_38,2023-11-27T19:38:25.192Z,,,,,,,,,,,1516.4229999523086,completion,,,,,,,low,high,,,,,,,true,,,,,false,155344.5,155343.79999995232,153794.325,153999.5,153827.377,155160.722,1,40,,
trial,html.Screen,6_39_0,2023-11-27T19:38:26.664Z,,,,1,1.2364994561934892,-0.9174173651516624,,,true,lh,1655.3779999046237,response,-0.9235571765207048,1.2,-1.2,1.0008081653938232,1.2,-1.2,low,high,,ISIC_3481133.JPG,,ISIC_8796632.JPG,,27,true,0.42000000000000026,lh,keypress(e),0,false,156816.40000009537,156816.09999990463,155144.038,155344.70000004768,155160.722,156627.43,1,40,40,
sequence,flow.Sequence,6_39,2023-11-27T19:38:26.664Z,,,,,,,,,,,1655.3779999046237,completion,,,,,,,low,high,,,,,,,true,,,,,false,156816.70000004768,156816.09999990463,155144.038,155344.59999990463,155160.722,156627.43,1,40,,
practice_loop,flow.Loop,6,2023-11-27T19:38:26.664Z,,,,,,,,,,,76821.61899990463,completion,,,,,,,,,,,,,,,true,,,,,false,156817,156816.09999990463,79977.597,80173.5,79994.481,156627.43,1,40,,
stair_instructions,html.Screen,7,2023-11-27T19:38:28.685Z,,,,,,,,,,,2209.1699999046396,response,,,,,,,,,,,,,,,,,continue,click button,,,158837.09999990463,158836.59999990463,156610.881,156817.09999990463,156627.43,158644.052,,,,
trial,html.Screen,8_0_0,2023-11-27T19:38:42.480Z,,,,2,-0.0456515796420274,0.0273567130070961,,0.05,false,lh,13987.848000095371,response,-0.8035152873995188,1.2,-1.2,0.82868450251632,1.2,-1.2,low,high,,ISIC_0068610.JPG,,ISIC_0010671.JPG,33,27,false,0.42000000000000026,hh,keypress(i),0,true,172632.20000004768,172631.90000009537,158627.533,158837.20000004768,158644.052,172460.681,1,40,1,
sequence,flow.Sequence,8_0,2023-11-27T19:38:42.480Z,,,,,,,,,,,13987.848000095371,completion,,,,,,,low,high,,,,,,,false,,,,,true,172632.70000004768,172631.90000009537,158627.533,158837.20000004768,158644.052,172460.681,1,40,,
trial,html.Screen,8_1_0,2023-11-27T19:38:46.581Z,,,,2,-0.0070725527271049,-0.0049995141077508,,0.05,false,hh,4273.318999999989,response,1.0789197754694622,1.15,-1.2,1.1654690806750023,1.15,-1.15,high,high,,ISIC_6124481.JPG,,ISIC_1576437.JPG,33,30,false,0.13,ll,keypress(f),0,true,176734,176734,172444.052,172632.90000009537,172460.681,176543.993,1,40,2,
sequence,flow.Sequence,8_1,2023-11-27T19:38:46.582Z,,,,,,,,,,,4273.318999999989,completion,,,,,,,high,high,,,,,,,false,,,,,true,176734.09999990463,176734,172444.052,172632.79999995232,172460.681,176543.993,1,40,,
trial,html.Screen,8_2_0,2023-11-27T19:38:49.135Z,,,,2,-0.0107854985447517,-0.0478010417136109,,0.05,false,hl,2743.0070000000123,response,1.0751036484083878,1.15,-1.15,-1.143906455483852,1.15,-1.15,high,low,,ISIC_0010500.JPG,,ISIC_0064406.JPG,33,25,false,0.31000000000000016,lh,keypress(e),0,true,179287.20000004768,179287,176527.227,176734.20000004768,176543.993,179093.987,1,40,3,
sequence,flow.Sequence,8_2,2023-11-27T19:38:49.135Z,,,,,,,,,,,2743.0070000000123,completion,,,,,,,high,low,,,,,,,false,,,,,true,179287.59999990463,179287,176527.227,176734.20000004768,176543.993,179093.987,1,40,,
trial,html.Screen,8_3_0,2023-11-27T19:38:52.319Z,,,,2,0.0113873532168551,0.0054999201556291,,0.05,true,ll,3377.0130000000063,response,-1.2249552940807693,1.15,-1.15,-1.1723015116910682,1.15,-1.15,low,low,,ISIC_8812621.JPG,,ISIC_0055251.JPG,33,27,false,0.1,ll,keypress(f),0,true,182471.20000004768,182471,179077.456,179287.70000004768,179093.987,182277.31,1,40,4,
sequence,flow.Sequence,8_3,2023-11-27T19:38:52.319Z,,,,,,,,,,,3377.0130000000063,completion,,,,,,,low,low,,,,,,,false,,,,,true,182471.40000009537,182471,179077.456,179287.70000004768,179093.987,182277.31,1,40,,
trial,html.Screen,8_4_0,2023-11-27T19:38:54.552Z,,,,2,0.0134764727102299,0.0033499036460912,,0.05,true,hh,2426.6900000000023,response,1.2724584600905462,1.15,-1.15,1.1411016103695344,1.15,-1.15,high,high,,ISIC_0009998.JPG,,ISIC_0059625.JPG,33,30,false,0.13,hh,keypress(i),0,true,184704.20000004768,184704,182260.591,182471.59999990463,182277.31,184510.642,1,40,5,
sequence,flow.Sequence,8_4,2023-11-27T19:38:54.552Z,,,,,,,,,,,2426.6900000000023,completion,,,,,,,high,high,,,,,,,false,,,,,true,184704.5,184704,182260.591,182471.5,182277.31,184510.642,1,40,,
trial,html.Screen,8_5_0,2023-11-27T19:39:00.878Z,,,,2,-0.0389988030702649,-0.0143212271490256,,0.05,true,ll,6519.95799990464,response,-1.1253220985777015,1.15,-1.15,-1.108725659461368,1.15,-1.15,low,low,,ISIC_0064669.JPG,,ISIC_0054954.JPG,33,27,false,0.1,ll,keypress(f),0,true,191030.90000009537,191030.59999990463,184493.972,184704.70000004768,184510.642,190843.963,1,40,6,
sequence,flow.Sequence,8_5,2023-11-27T19:39:00.879Z,,,,,,,,,,,6519.95799990464,completion,,,,,,,low,low,,,,,,,false,,,,,true,191031.29999995232,191030.59999990463,184493.972,184704.70000004768,184510.642,190843.963,1,40,,
trial,html.Screen,8_6_0,2023-11-27T19:39:02.766Z,,,,2,0.0097091270150747,-0.0417921315885292,,0.05,false,ll,2074.8369999523275,response,-1.1383813631375823,1.15,-1.0999999999999999,-1.1319312220332556,1.15,-1.0999999999999999,low,low,,ISIC_3967213.JPG,,ISIC_6227397.JPG,33,31,false,0.1,hl,keypress(j),0,true,192919,192918.79999995232,190827.334,191031.40000009537,190843.963,192727.286,1,40,7,
sequence,flow.Sequence,8_6,2023-11-27T19:39:02.767Z,,,,,,,,,,,2074.8369999523275,completion,,,,,,,low,low,,,,,,,false,,,,,true,192919.29999995232,192918.79999995232,190827.334,191031.40000009537,190843.963,192727.286,1,40,,
trial,html.Screen,8_7_0,2023-11-27T19:39:04.286Z,,,,2,-0.0069555338059566,0.0310100918136373,,0.05,false,hl,1711.414000047691,response,1.27543269240326,1.15,-1.15,-0.80839597388021,1.15,-1.0999999999999999,high,low,,ISIC_0011177.JPG,,ISIC_3296136.JPG,33,27,false,0.30000000000000016,ll,keypress(f),0,true,194438.90000009537,194438.70000004768,192710.829,192919.59999990463,192727.286,194243.943,1,40,8,
sequence,flow.Sequence,8_7,2023-11-27T19:39:04.287Z,,,,,,,,,,,1711.414000047691,completion,,,,,,,high,low,,,,,,,false,,,,,true,194439.29999995232,194438.70000004768,192710.829,192919.5,192727.286,194243.943,1,40,,
trial,html.Screen,8_8_0,2023-11-27T19:39:05.624Z,,,,2,-0.007397293189458,-0.0174716772037504,,0.05,true,hl,1531.856999952317,response,1.2331439637486756,1.15,-1.15,-0.9691143900156988,1.15,-0.9201635979567327,high,low,,ISIC_0056226.JPG,,ISIC_7877488.JPG,33,27,false,0.2400000000000001,hl,keypress(j),0,true,195776.20000004768,195775.79999995232,194227.466,194439.40000009537,194243.943,195593.918,1,40,9,
sequence,flow.Sequence,8_8,2023-11-27T19:39:05.624Z,,,,,,,,,,,1531.856999952317,completion,,,,,,,high,low,,,,,,,false,,,,,true,195776.5,195775.79999995232,194227.466,194439.40000009537,194243.943,195593.918,1,40,,
trial,html.Screen,8_9_0,2023-11-27T19:39:07.071Z,,,,2,-0.0085520978188085,0.0464691161264081,,0.05,false,lh,1628.6819999046274,response,-0.7833710010171356,1.15,-1.15,0.9315588090336896,1.15,-0.9201635979567327,low,high,,ISIC_0758797.JPG,,ISIC_3826102.JPG,33,27,false,0.3700000000000002,ll,keypress(f),0,true,197222.90000009537,197222.59999990463,195577.499,195776.70000004768,195593.918,197027.313,1,40,10,
sequence,flow.Sequence,8_9,2023-11-27T19:39:07.071Z,,,,,,,,,,,1628.6819999046274,completion,,,,,,,low,high,,,,,,,false,,,,,true,197223.20000004768,197222.59999990463,195577.499,195776.59999990463,195593.918,197027.313,1,40,,
trial,html.Screen,8_10_0,2023-11-27T19:39:08.823Z,,,,2,-0.0050679133050021,0.0009714874637896,,0.05,false,hh,1947.387000047689,response,1.0858641668099058,1.15,-1.15,1.1638942560200525,1.15,-0.9201635979567327,high,high,,ISIC_9848743.JPG,,ISIC_5439597.JPG,33,30,false,0.13,hl,keypress(j),0,true,198975,198974.70000004768,197010.799,197223.40000009537,197027.313,198794.542,1,40,11,
sequence,flow.Sequence,8_10,2023-11-27T19:39:08.823Z,,,,,,,,,,,1947.387000047689,completion,,,,,,,high,high,,,,,,,false,,,,,true,198975.29999995232,198974.70000004768,197010.799,197223.40000009537,197027.313,198794.542,1,40,,
trial,html.Screen,8_11_0,2023-11-27T19:39:11.199Z,,,,2,-0.0389988030702649,-0.0143212271490256,,0.05,false,lh,2556.2579999523296,response,-0.7870237732709365,1.0999999999999999,-1.15,0.9172955251119376,1.15,-0.9201635979567327,low,high,,ISIC_0064669.JPG,,ISIC_0057716.JPG,33,27,false,0.3700000000000002,hh,keypress(i),0,true,201351,201350.79999995232,198760.758,198975.5,198794.542,201160.578,1,40,12,
sequence,flow.Sequence,8_11,2023-11-27T19:39:11.199Z,,,,,,,,,,,2556.2579999523296,completion,,,,,,,low,high,,,,,,,false,,,,,true,201351.5,201350.79999995232,198760.758,198975.40000009537,198794.542,201160.578,1,40,,
trial,html.Screen,8_12_0,2023-11-27T19:39:14.431Z,,,,2,0.0102460616775615,-0.0309670599545429,,0.05,false,hh,3421.9219999999914,response,1.0789197754694622,1.0999999999999999,-1.15,1.1654690806750023,1.15,-0.9201635979567327,high,high,,ISIC_0072041.JPG,,ISIC_1576437.JPG,33,30,false,0.13,ll,keypress(f),0,true,204582.70000004768,204582.5,201144.184,201351.59999990463,201160.578,204393.916,1,40,13,
sequence,flow.Sequence,8_12,2023-11-27T19:39:14.431Z,,,,,,,,,,,3421.9219999999914,completion,,,,,,,high,high,,,,,,,false,,,,,true,204583.09999990463,204582.5,201144.184,201351.59999990463,201160.578,204393.916,1,40,,
trial,html.Screen,8_13_0,2023-11-27T19:39:15.975Z,,,,2,-0.0324770283903853,-0.0249968632204382,,0.05,false,hl,1733.0840000000026,response,1.1097716037944447,1.15,-1.15,-0.726994437314983,1.15,-0.9201635979567327,high,low,,ISIC_7266462.JPG,,ISIC_0000139.JPG,33,27,false,0.2400000000000001,hh,keypress(i),0,true,206127.20000004768,206127,204377.137,204583.29999995232,204393.916,205944.081,1,40,14,
sequence,flow.Sequence,8_13,2023-11-27T19:39:15.976Z,,,,,,,,,,,1733.0840000000026,completion,,,,,,,high,low,,,,,,,false,,,,,true,206127.70000004768,206127,204377.137,204583.20000004768,204393.916,205944.081,1,40,,
trial,html.Screen,8_14_0,2023-11-27T19:39:25.935Z,,,,2,-0.0329095507339554,0.0382899749693245,,0.05,false,ll,10142.819000095362,response,-1.1682648288591504,1.15,-1.15,-1.004142980655507,1.15,-0.9701635979567328,low,low,,ISIC_8812781.JPG,,ISIC_3936223.JPG,33,25,false,0.1,hl,keypress(j),0,true,216087.09999990463,216086.90000009537,205927.452,206127.79999995232,205944.081,215893.885,1,40,15,
sequence,flow.Sequence,8_14,2023-11-27T19:39:25.936Z,,,,,,,,,,,10142.819000095362,completion,,,,,,,low,low,,,,,,,false,,,,,true,216087.5,216086.90000009537,205927.452,206127.70000004768,205944.081,215893.885,1,40,,
trial,html.Screen,8_15_0,2023-11-27T19:39:41.784Z,,,,2,-0.039728379742806,0.0228701131373768,,0.05,,,15866.593999999983,timeout,1.0789197754694622,1.15,-1.15,1.1654690806750023,1.15,-0.9701635979567328,high,high,,ISIC_0054073.JPG,,ISIC_1576437.JPG,33,30,false,0.13,,,0,true,231935.90000009537,231935.79999995232,215877.126,216087.70000004768,215893.885,231760.479,1,40,16,
sequence,flow.Sequence,8_15,2023-11-27T19:39:41.784Z,,,,,,,,,,,16041.914999952307,completion,,,,,,,high,high,,,,,,,false,,,,,true,231936.09999990463,231935.79999995232,215877.126,216087.59999990463,215893.885,231760.479,1,40,,
trial,html.Screen,8_16_0,2023-11-27T19:39:44.221Z,,,,2,-0.0057914759495055,-0.0074667911845194,,0.05,false,lh,2612.320999952324,response,-0.7833710010171356,1.15,-1.15,0.9315588090336896,1.15,-0.9701635979567328,low,high,,ISIC_0058723.JPG,,ISIC_3826102.JPG,33,27,false,0.3700000000000002,ll,keypress(f),0,true,234373,234372.79999995232,231727.186,231936.09999990463,231760.479,234177.145,1,40,17,
sequence,flow.Sequence,8_16,2023-11-27T19:39:44.221Z,,,,,,,,,,,2612.320999952324,completion,,,,,,,low,high,,,,,,,false,,,,,true,234373,234372.79999995232,231727.186,231936.09999990463,231760.479,234177.145,1,40,,
trial,html.Screen,8_17_0,2023-11-27T19:39:45.685Z,,,,2,0.0348234368746005,-0.0236866303880924,,0.05,true,hl,1660.255000095378,response,1.2075172235545184,1.15,-1.15,-0.9116724966267612,1.15,-0.9701635979567328,high,low,,ISIC_0011099.JPG,,ISIC_0024235.JPG,33,26,false,0.27000000000000013,hl,keypress(j),0,true,235837.5,235837.40000009537,234160.457,234373.09999990463,234177.145,235643.813,1,40,18,
sequence,flow.Sequence,8_17,2023-11-27T19:39:45.686Z,,,,,,,,,,,1660.255000095378,completion,,,,,,,high,low,,,,,,,false,,,,,true,235837.59999990463,235837.40000009537,234160.457,234373.09999990463,234177.145,235643.813,1,40,,
trial,html.Screen,8_18_0,2023-11-27T19:39:47.287Z,,,,2,0.0112310719058792,-0.0469047359904117,,0.05,false,lh,1794.887000047689,response,-0.796241477082623,1.0999999999999999,-1.15,0.9017449335975743,1.15,-0.7975217488219484,low,high,,ISIC_0068184.JPG,,ISIC_8588033.JPG,33,27,false,0.3700000000000002,hh,keypress(i),0,true,237438.79999995232,237438.70000004768,235627.363,235837.70000004768,235643.813,237243.849,1,40,19,
sequence,flow.Sequence,8_18,2023-11-27T19:39:47.287Z,,,,,,,,,,,1794.887000047689,completion,,,,,,,low,high,,,,,,,false,,,,,true,237439.09999990463,237438.70000004768,235627.363,235837.70000004768,235643.813,237243.849,1,40,,
trial,html.Screen,8_19_0,2023-11-27T19:39:48.846Z,,,,2,-0.0456515796420274,0.0273567130070961,,0.05,false,hl,1753.55100009538,response,1.1097716037944447,1.0999999999999999,-1.15,-0.726994437314983,1.15,-0.7975217488219484,high,low,,ISIC_0068610.JPG,,ISIC_0000139.JPG,33,26,false,0.18000000000000005,ll,keypress(f),0,true,238997.5,238997.40000009537,237227.39,237439.20000004768,237243.849,238810.482,1,40,20,
sequence,flow.Sequence,8_19,2023-11-27T19:39:48.846Z,,,,,,,,,,,1753.55100009538,completion,,,,,,,high,low,,,,,,,false,,,,,true,238997.59999990463,238997.40000009537,237227.39,237439.20000004768,237243.849,238810.482,1,40,,
trial,html.Screen,8_20_0,2023-11-27T19:39:50.207Z,,,,2,-0.0329095507339554,0.0382899749693245,,0.05,false,hl,1548.018000000011,response,0.991282840649944,1.15,-1.15,-0.9397921099839784,1.15,-0.7975217488219484,high,low,,ISIC_8812781.JPG,,ISIC_0000463.JPG,33,27,false,0.19000000000000006,lh,keypress(e),0,true,240358.59999990463,240358.5,238793.809,238997.59999990463,238810.482,240177.405,1,40,21,
sequence,flow.Sequence,8_20,2023-11-27T19:39:50.207Z,,,,,,,,,,,1548.018000000011,completion,,,,,,,high,low,,,,,,,false,,,,,true,240358.79999995232,240358.5,238793.809,238997.59999990463,238810.482,240177.405,1,40,,
trial,html.Screen,8_21_0,2023-11-27T19:39:51.574Z,,,,2,0.0097091270150747,-0.0417921315885292,,0.05,true,hh,1548.3949999523174,response,1.0858641668099058,1.15,-1.15,1.1638942560200525,1.15,-0.8475217488219484,high,high,,ISIC_3967213.JPG,,ISIC_5439597.JPG,33,30,false,0.13,hh,keypress(i),0,true,241725.90000009537,241725.79999995232,240144.069,240359,240177.405,241543.92,1,40,22,
sequence,flow.Sequence,8_21,2023-11-27T19:39:51.574Z,,,,,,,,,,,1548.3949999523174,completion,,,,,,,high,high,,,,,,,false,,,,,true,241726.20000004768,241725.79999995232,240144.069,240359,240177.405,241543.92,1,40,,
trial,html.Screen,8_22_0,2023-11-27T19:39:53.775Z,,,,2,0.0277178575053843,-0.0395587463147856,,0.05,false,ll,2382.9800000953546,response,-1.0874543199036937,1.15,-1.15,-0.7993260716617142,1.0748792114149792,-0.8475217488219484,low,low,,ISIC_0010807.JPG,,ISIC_0053686.JPG,33,28,false,0.1,hl,keypress(j),0,true,243927.09999990463,243926.90000009537,241527.311,241726.29999995232,241543.92,243743.843,1,40,23,
sequence,flow.Sequence,8_22,2023-11-27T19:39:53.775Z,,,,,,,,,,,2382.9800000953546,completion,,,,,,,low,low,,,,,,,false,,,,,true,243927.5,243926.90000009537,241527.311,241726.29999995232,241543.92,243743.843,1,40,,
trial,html.Screen,8_23_0,2023-11-27T19:39:55.351Z,,,,2,-0.0050679133050021,0.0009714874637896,,0.05,false,hl,1758.756999904639,response,1.331700944308701,1.15,-1.15,-0.9395196143259436,1.0748792114149792,-0.8475217488219484,high,low,,ISIC_9848743.JPG,,ISIC_1668831.JPG,33,26,false,0.20000000000000007,ll,keypress(f),0,true,245502.90000009537,245502.59999990463,243727.304,243927.59999990463,243743.843,245310.459,1,40,24,
sequence,flow.Sequence,8_23,2023-11-27T19:39:55.351Z,,,,,,,,,,,1758.756999904639,completion,,,,,,,high,low,,,,,,,false,,,,,true,245503.29999995232,245502.59999990463,243727.304,243927.59999990463,243743.843,245310.459,1,40,,
trial,html.Screen,8_24_0,2023-11-27T19:39:56.727Z,,,,2,-0.0069555338059566,0.0310100918136373,,0.05,true,ll,1568.2410000476812,response,-1.2224926568544014,1.15,-1.15,-0.8545830630627537,1.0748792114149792,-0.8194228429938288,low,low,,ISIC_0011177.JPG,,ISIC_4118762.JPG,33,30,false,0.1,ll,keypress(f),0,true,246878.90000009537,246878.70000004768,245293.797,245503.5,245310.459,246710.477,1,40,25,
sequence,flow.Sequence,8_24,2023-11-27T19:39:56.727Z,,,,,,,,,,,1568.2410000476812,completion,,,,,,,low,low,,,,,,,false,,,,,true,246879.29999995232,246878.70000004768,245293.797,245503.29999995232,245310.459,246710.477,1,40,,
trial,html.Screen,8_25_0,2023-11-27T19:39:58.280Z,,,,2,-0.0050679133050021,0.0009714874637896,,0.05,false,lh,1721.0229999999865,response,-0.8816288864119318,1.15,-1.15,0.801867301188093,1.0748792114149792,-0.8194228429938288,low,high,,ISIC_9848743.JPG,,ISIC_9196783.JPG,33,26,false,0.3600000000000002,ll,keypress(f),0,true,248431.79999995232,248431.5,246677.384,246879.5,246710.477,248243.807,1,40,26,
sequence,flow.Sequence,8_25,2023-11-27T19:39:58.280Z,,,,,,,,,,,1721.0229999999865,completion,,,,,,,low,high,,,,,,,false,,,,,true,248432.09999990463,248431.5,246677.384,246879.40000009537,246710.477,248243.807,1,40,,
trial,html.Screen,8_26_0,2023-11-27T19:40:00.174Z,,,,2,-0.0107854985447517,-0.0478010417136109,,0.05,true,lh,2081.6929999999993,response,-0.6159110752639473,1.15,-0.8181059747373427,0.9608461034527604,1.1248792114149793,-0.8194228429938288,low,high,,ISIC_0010500.JPG,,ISIC_0025215.JPG,33,26,false,0.21000000000000008,lh,keypress(e),0,true,250325.5,250325.5,248227.274,248432.29999995232,248243.807,250144.347,1,40,27,
sequence,flow.Sequence,8_26,2023-11-27T19:40:00.174Z,,,,,,,,,,,2081.6929999999993,completion,,,,,,,low,high,,,,,,,false,,,,,true,250325.70000004768,250325.5,248227.274,248432.29999995232,248243.807,250144.347,1,40,,
trial,html.Screen,8_27_0,2023-11-27T19:40:02.246Z,,,,2,-0.007397293189458,-0.0174716772037504,,0.05,false,lh,2253.853000047675,response,-0.6455395030138186,1.15,-0.8181059747373427,1.3091676741424545,1.1248792114149793,-0.8194228429938288,low,high,,ISIC_0056226.JPG,,ISIC_0028285.JPG,33,26,false,0.21000000000000008,ll,keypress(f),0,true,252398.5,252398.20000004768,250110.659,250325.70000004768,250144.347,252210.621,1,40,28,
sequence,flow.Sequence,8_27,2023-11-27T19:40:02.247Z,,,,,,,,,,,2253.853000047675,completion,,,,,,,low,high,,,,,,,false,,,,,true,252398.79999995232,252398.20000004768,250110.659,250325.70000004768,250144.347,252210.621,1,40,,
trial,html.Screen,8_28_0,2023-11-27T19:40:04.847Z,,,,2,0.0051189696037511,-0.0396625911332438,,0.05,true,ll,2787.7790000953537,response,-0.7667223565323059,1.15,-0.7681059747373427,-0.7525280650246937,1.1748792114149793,-0.8194228429938288,low,low,,ISIC_9742891.JPG,,ISIC_0031397.JPG,33,53,false,0.1,ll,keypress(f),0,true,254998.59999990463,254998.40000009537,252193.776,252399,252210.621,254810.525,1,40,29,
sequence,flow.Sequence,8_28,2023-11-27T19:40:04.847Z,,,,,,,,,,,2787.7790000953537,completion,,,,,,,low,low,,,,,,,false,,,,,true,254998.79999995232,254998.40000009537,252193.776,252399,252210.621,254810.525,1,40,,
trial,html.Screen,8_29_0,2023-11-27T19:40:06.422Z,,,,2,0.0409338693593207,-0.0072462710499874,,0.05,false,hh,1762.8750000953733,response,1.1642596483638106,1.15,-0.7681059747373427,1.109799097093339,1.1748792114149793,-0.7096252107784997,high,high,,ISIC_3608788.JPG,,ISIC_0765584.JPG,33,25,false,0.13,hl,keypress(j),0,true,256573.5,256573.40000009537,254793.99,254999,254810.525,256377.098,1,40,30,
sequence,flow.Sequence,8_29,2023-11-27T19:40:06.422Z,,,,,,,,,,,1762.8750000953733,completion,,,,,,,high,high,,,,,,,false,,,,,true,256573.70000004768,256573.40000009537,254793.99,254999,254810.525,256377.098,1,40,,
trial,html.Screen,8_30_0,2023-11-27T19:40:07.702Z,,,,2,0.0348234368746005,-0.0236866303880924,,0.05,true,hh,1476.6020000476856,response,1.0789197754694622,1.15,-0.7681059747373427,1.1654690806750023,1.1748792114149793,-0.7096252107784997,high,high,,ISIC_0011099.JPG,,ISIC_1576437.JPG,33,25,false,0.13,hh,keypress(i),0,true,257853.70000004768,257853.70000004768,256360.619,256573.79999995232,256377.098,257660.393,1,40,31,
sequence,flow.Sequence,8_30,2023-11-27T19:40:07.703Z,,,,,,,,,,,1476.6020000476856,completion,,,,,,,high,high,,,,,,,false,,,,,true,257853.90000009537,257853.70000004768,256360.619,256573.79999995232,256377.098,257660.393,1,40,,
trial,html.Screen,8_31_0,2023-11-27T19:40:09.576Z,,,,2,0.000047919190197942736,0.0462652940855003,,0.05,true,lh,2066.4069999523053,response,-0.8655167308525522,1.0721944280722322,-0.7681059747373427,0.9298580423306444,1.1748792114149793,-0.7096252107784997,low,high,,ISIC_0011507.JPG,,ISIC_4603706.JPG,33,28,false,0.2500000000000001,lh,keypress(e),0,true,259727,259726.79999995232,257644.017,257854,257660.393,259543.924,1,40,32,
sequence,flow.Sequence,8_31,2023-11-27T19:40:09.576Z,,,,,,,,,,,2066.4069999523053,completion,,,,,,,low,high,,,,,,,false,,,,,true,259727.29999995232,259726.79999995232,257644.017,257854,257660.393,259543.924,1,40,,
trial,html.Screen,8_32_0,2023-11-27T19:40:11.432Z,,,,2,0.0102460616775615,-0.0309670599545429,,0.05,false,lh,2038.7760000476846,response,-0.7870237732709365,1.0721944280722322,-0.7181059747373426,0.9172955251119376,0.9976635615028233,-0.7096252107784997,low,high,,ISIC_0072041.JPG,,ISIC_0057716.JPG,33,26,false,0.16000000000000003,ll,keypress(f),0,true,261583,261582.70000004768,259527.222,259727.59999990463,259543.924,261393.775,1,40,33,
sequence,flow.Sequence,8_32,2023-11-27T19:40:11.432Z,,,,,,,,,,,2038.7760000476846,completion,,,,,,,low,high,,,,,,,false,,,,,true,261583.40000009537,261582.70000004768,259527.222,259727.5,259543.924,261393.775,1,40,,
trial,html.Screen,8_33_0,2023-11-27T19:40:12.904Z,,,,2,-0.0324770283903853,-0.0249968632204382,,0.05,false,hl,1661.7250000000058,response,0.939746579680342,1.0721944280722322,-0.7181059747373426,-0.5357950249064664,1.0476635615028234,-0.7096252107784997,high,low,,ISIC_7266462.JPG,,ISIC_9521776.JPG,33,28,false,0.18000000000000005,hh,keypress(i),0,true,263055.7000000477,263055.5,261377.329,261583.5,261393.775,262860.493,1,40,34,
sequence,flow.Sequence,8_33,2023-11-27T19:40:12.905Z,,,,,,,,,,,1661.7250000000058,completion,,,,,,,high,low,,,,,,,false,,,,,true,263056.09999990463,263055.5,261377.329,261583.5,261393.775,262860.493,1,40,,
trial,html.Screen,8_34_0,2023-11-27T19:40:14.182Z,,,,2,0.0245376145053177,-0.0436993426328401,,0.05,false,ll,1473.207000047667,response,-0.6541875895526068,1.0721944280722322,-0.7181059747373426,-0.8392703619497953,1.0476635615028234,-0.7596252107784998,low,low,,ISIC_0056444.JPG,,ISIC_0060893.JPG,33,65,false,0.1,hh,keypress(i),0,true,264333.7999999523,264333.7000000477,262843.955,263056.2999999523,262860.493,264143.837,1,40,35,
sequence,flow.Sequence,8_34,2023-11-27T19:40:14.183Z,,,,,,,,,,,1473.207000047667,completion,,,,,,,low,low,,,,,,,false,,,,,true,264333.90000009537,264333.7000000477,262843.955,263056.2999999523,262860.493,264143.837,1,40,,
trial,html.Screen,8_35_0,2023-11-27T19:40:15.407Z,,,,2,-0.0085520978188085,0.0464691161264081,,0.05,true,ll,1414.3630000476842,response,-0.7139211990648348,1.0721944280722322,-0.7681059747373427,-0.7358892067715522,1.0476635615028234,-0.8096252107784998,low,low,,ISIC_0758797.JPG,,ISIC_0030943.JPG,33,55,false,0.1,ll,keypress(f),0,true,265558.2999999523,265558.2000000477,264127.226,264334,264143.837,265377.445,1,40,36,
sequence,flow.Sequence,8_35,2023-11-27T19:40:15.407Z,,,,,,,,,,,1414.3630000476842,completion,,,,,,,low,low,,,,,,,false,,,,,true,265558.2999999523,265558.2000000477,264127.226,264334,264143.837,265377.445,1,40,,
trial,html.Screen,8_36_0,2023-11-27T19:40:16.631Z,,,,2,-0.0217698886732706,0.0410870915161425,,0.05,false,hl,1404.7550000476767,response,1.0706588446368888,1.0721944280722322,-0.7681059747373427,-0.6941525005619681,1.0476635615028234,-0.8096252107784998,high,low,,ISIC_0072173.JPG,,ISIC_8855790.JPG,33,27,false,0.19000000000000006,lh,keypress(e),0,true,266782.40000009537,266782.2000000477,265344.018,265558.40000009537,265377.445,266593.766,1,40,37,
sequence,flow.Sequence,8_36,2023-11-27T19:40:16.631Z,,,,,,,,,,,1404.7550000476767,completion,,,,,,,high,low,,,,,,,false,,,,,true,266782.7999999523,266782.2000000477,265344.018,265558.40000009537,265377.445,266593.766,1,40,,
trial,html.Screen,8_37_0,2023-11-27T19:40:17.823Z,,,,2,0.0348234368746005,-0.0236866303880924,,0.05,false,ll,1380.7339999999967,response,-0.7315234283270932,1.1221944280722322,-0.7681059747373427,-0.8515003193470463,1.0476635615028234,-0.8596252107784998,low,low,,ISIC_0011099.JPG,,ISIC_0010416.JPG,33,52,false,0.1,hl,keypress(j),0,true,267974.7999999523,267974.5,266577.196,266783,266593.766,267794.188,1,40,38,
sequence,flow.Sequence,8_37,2023-11-27T19:40:17.824Z,,,,,,,,,,,1380.7339999999967,completion,,,,,,,low,low,,,,,,,false,,,,,true,267975.2000000477,267974.5,266577.196,266783,266593.766,267794.188,1,40,,
trial,html.Screen,8_38_0,2023-11-27T19:40:20.263Z,,,,2,-0.0389988030702649,-0.0143212271490256,,0.05,true,hh,2620.1119999522925,response,1.037577073517966,1.1221944280722322,-0.8181059747373427,1.027048110709042,1.0476635615028234,-0.8596252107784998,high,high,,ISIC_0064669.JPG,,ISIC_0004932.JPG,33,29,false,0.11,hh,keypress(i),0,true,270414.5,270414.2999999523,267760.651,267975.2999999523,267794.188,270227.236,1,40,39,
sequence,flow.Sequence,8_38,2023-11-27T19:40:20.264Z,,,,,,,,,,,2620.1119999522925,completion,,,,,,,high,high,,,,,,,false,,,,,true,270414.90000009537,270414.2999999523,267760.651,267975.2999999523,267794.188,270227.236,1,40,,
trial,html.Screen,8_39_0,2023-11-27T19:40:21.895Z,,,,2,0.013431314305098,-0.0140597582944232,,0.05,true,hh,1819.2640000000247,response,1.0909285203537074,1.1221944280722322,-0.8181059747373427,1.013890238726642,1.0476635615028234,-0.8596252107784998,high,high,,ISIC_0069617.JPG,,ISIC_0033799.JPG,33,29,false,0.11,hh,keypress(i),0,true,272046.7000000477,272046.5,270210.571,270415,270227.236,271860.418,1,40,40,
sequence,flow.Sequence,8_39,2023-11-27T19:40:21.896Z,,,,,,,,,,,1819.2640000000247,completion,,,,,,,high,high,,,,,,,false,,,,,true,272047.2000000477,272046.5,270210.571,270415,270227.236,271860.418,1,40,,
stair_loop,flow.Loop,8,2023-11-27T19:40:21.896Z,,,,,,,,,,,113402.448,completion,,,,,,,,,,,,,,,false,,,,,true,272047.5,272046.5,158627.533,158837.20000004768,158644.052,271860.418,1,40,,
exp_instructions,html.Screen,9,2023-11-27T19:40:24.527Z,,,,,,,,,,,2817.1819999046274,response,,,,,,,,,,,,,,,,,continue,keypress(Space),,,274678.2999999523,274677.59999990463,271843.88,272047.59999990463,271860.418,274493.726,,,,
trial,html.Screen,10_0_0,2023-11-27T19:40:26.576Z,,,,1,0.013431314305098,-0.0140597582944232,,0.05,false,hl,2233.174000095343,response,1.27543269240326,1.1224874926325046,-0.8851741823161398,-0.80839597388021,1.0940050303086186,-0.7971539264410217,high,low,,ISIC_0069617.JPG,9,ISIC_3296136.JPG,33,27,false,0.18000000000000005,hh,keypress(i),0,false,276727.2000000477,276726.90000009537,274477.169,274678.7000000477,274493.726,276543.982,5,600,1,
break,html.Screen,10_0_1,2023-11-27T19:40:26.577Z,,,,,,,,,,,NaN,,,,,,,,high,low,,,,,,,false,,,,,false,276728.2999999523,276727.90000009537,,276727.5,,276543.982,5,600,,
break_continue,html.Screen,10_0_2,2023-11-27T19:40:26.578Z,,,,,,,,,,,NaN,,,,,,,,high,low,,,,,,,false,,,,,false,276729,276728.7000000477,,276728.5,,276543.982,5,600,,
sequence,flow.Sequence,10_0,2023-11-27T19:40:26.578Z,,,,,,,,,,,2234.9740000476595,completion,,,,,,,high,low,,,,,,,false,,,,,false,276729.2999999523,276728.7000000477,274477.169,274678.59999990463,274493.726,276543.982,5,600,,
trial,html.Screen,10_1_0,2023-11-27T19:40:28.272Z,,,,1,0.0348234368746005,-0.0236866303880924,,0.05,false,hh,1878.6179999046144,response,1.0959058628476686,1.1224874926325046,-0.8851741823161398,1.1684835186766898,1.0940050303086186,-0.7971539264410217,high,high,,ISIC_0011099.JPG,9,ISIC_5920470.JPG,33,26,false,0.1,hl,keypress(j),0,false,278422.90000009537,278422.59999990463,276526.975,276729.5,276543.982,278227.12,5,600,2,
break,html.Screen,10_1_1,2023-11-27T19:40:28.272Z,,,,,,,,,,,NaN,,,,,,,,high,high,,,,,,,false,,,,,false,278423.7000000477,278423.5,,278423.09999990463,,278227.12,5,600,,
break_continue,html.Screen,10_1_2,2023-11-27T19:40:28.273Z,,,,,,,,,,,NaN,,,,,,,,high,high,,,,,,,false,,,,,false,278424.2999999523,278424.2000000477,,278423.90000009537,,278227.12,5,600,,
sequence,flow.Sequence,10_1,2023-11-27T19:40:28.273Z,,,,,,,,,,,1880.2180000476656,completion,,,,,,,high,high,,,,,,,false,,,,,false,278424.5,278424.2000000477,276526.975,276729.5,276543.982,278227.12,5,600,,
trial,html.Screen,10_2_0,2023-11-27T19:40:30.031Z,,,,1,0.013431314305098,-0.0140597582944232,,0.05,false,lh,1955.179999952321,response,-1.0213365328004047,1.1224874926325046,-0.8851741823161398,1.088524359911891,1.0940050303086186,-0.7971539264410217,low,high,,ISIC_0069617.JPG,8,ISIC_5434229.JPG,33,25,false,0.2400000000000001,ll,keypress(f),0,false,280182.5,280182.2999999523,278210.578,278424.7000000477,278227.12,279993.71,5,600,3,
break,html.Screen,10_2_1,2023-11-27T19:40:30.032Z,,,,,,,,,,,NaN,,,,,,,,low,high,,,,,,,false,,,,,false,280183.5,280183.2999999523,,280182.90000009537,,279993.71,5,600,,
break_continue,html.Screen,10_2_2,2023-11-27T19:40:30.033Z,,,,,,,,,,,NaN,,,,,,,,low,high,,,,,,,false,,,,,false,280184.09999990463,280183.7999999523,,280183.59999990463,,279993.71,5,600,,
sequence,flow.Sequence,10_2,2023-11-27T19:40:30.033Z,,,,,,,,,,,1956.679999952321,completion,,,,,,,low,high,,,,,,,false,,,,,false,280184.2000000477,280183.7999999523,278210.578,278424.7000000477,278227.12,279993.71,5,600,,
trial,html.Screen,10_3_0,2023-11-27T19:40:31.998Z,,,,1,-0.0324770283903853,-0.0249968632204382,,0.05,false,ll,2155.9900000476628,response,-0.8054611183301272,1.1224874926325046,-0.8851741823161398,-0.7124666707726539,1.0940050303086186,-0.7971539264410217,low,low,,ISIC_7266462.JPG,8,ISIC_0072377.JPG,33,55,false,0.1,lh,keypress(e),0,false,282149.7999999523,282149.7000000477,279977.074,280184.40000009537,279993.71,281960.412,5,600,4,
break,html.Screen,10_3_1,2023-11-27T19:40:31.999Z,,,,,,,,,,,NaN,,,,,,,,low,low,,,,,,,false,,,,,false,282150.5,282150.2999999523,,282150,,281960.412,5,600,,
break_continue,html.Screen,10_3_2,2023-11-27T19:40:32.000Z,,,,,,,,,,,NaN,,,,,,,,low,low,,,,,,,false,,,,,false,282150.7999999523,282150.7000000477,,282150.59999990463,,281960.412,5,600,,
sequence,flow.Sequence,10_3,2023-11-27T19:40:32.000Z,,,,,,,,,,,2156.9900000476628,completion,,,,,,,low,low,,,,,,,false,,,,,false,282151,282150.7000000477,279977.074,280184.2999999523,279993.71,281960.412,5,600,,
trial,html.Screen,10_4_0,2023-11-27T19:40:33.712Z,,,,1,-0.0456515796420274,0.0273567130070961,,0.05,false,lh,1902.2880000476725,response,-0.948927472020595,1.1224874926325046,-0.8851741823161398,1.0660437155921598,1.0940050303086186,-0.7971539264410217,low,high,,ISIC_0068610.JPG,9,ISIC_5808758.JPG,33,25,false,0.2400000000000001,hh,keypress(i),0,false,283862.90000009537,283862.7000000477,281943.893,282151.09999990463,281960.412,283677.044,5,600,5,
break,html.Screen,10_4_1,2023-11-27T19:40:33.712Z,,,,,,,,,,,NaN,,,,,,,,low,high,,,,,,,false,,,,,false,283863.7000000477,283863.5,,283863.2000000477,,283677.044,5,600,,
break_continue,html.Screen,10_4_2,2023-11-27T19:40:33.713Z,,,,,,,,,,,NaN,,,,,,,,low,high,,,,,,,false,,,,,false,283864.2000000477,283864,,283863.90000009537,,283677.044,5,600,,
sequence,flow.Sequence,10_4,2023-11-27T19:40:33.713Z,,,,,,,,,,,1903.5879999999888,completion,,,,,,,low,high,,,,,,,false,,,,,false,283864.40000009537,283864,281943.893,282151.09999990463,281960.412,283677.044,5,600,,
trial,html.Screen,10_5_0,2023-11-27T19:40:35.214Z,,,,1,-0.0217698886732706,0.0410870915161425,,0.05,false,ll,1688.4560000000056,response,-0.9433684832198558,1.1224874926325046,-0.8851741823161398,-0.7286833194521627,1.0940050303086186,-0.7971539264410217,low,low,,ISIC_0072173.JPG,8,ISIC_0069189.JPG,33,55,false,0.1,hl,keypress(j),0,false,285365.7000000477,285365.5,283660.432,283864.59999990463,283677.044,285177.023,5,600,6,
break,html.Screen,10_5_1,2023-11-27T19:40:35.215Z,,,,,,,,,,,NaN,,,,,,,,low,low,,,,,,,false,,,,,false,285366.59999990463,285366.5,,285366,,285177.023,5,600,,
break_continue,html.Screen,10_5_2,2023-11-27T19:40:35.216Z,,,,,,,,,,,NaN,,,,,,,,low,low,,,,,,,false,,,,,false,285367.2999999523,285367.09999990463,,285366.90000009537,,285177.023,5,600,,
sequence,flow.Sequence,10_5,2023-11-27T19:40:35.216Z,,,,,,,,,,,1690.0559999046382,completion,,,,,,,low,low,,,,,,,false,,,,,false,285367.5,285367.09999990463,283660.432,283864.5,283677.044,285177.023,5,600,,
trial,html.Screen,10_6_0,2023-11-27T19:40:37.055Z,,,,1,-0.0057914759495055,-0.0074667911845194,,0.05,false,lh,2029.076999904646,response,-0.658450997652008,1.1224874926325046,-0.8851741823161398,0.8660404645096786,1.0940050303086186,-0.7971539264410217,low,high,,ISIC_0058723.JPG,9,ISIC_6515546.JPG,33,25,false,0.2400000000000001,hl,keypress(j),0,false,287206.40000009537,287206.09999990463,285160.445,285367.7999999523,285177.023,287010.411,5,600,7,
break,html.Screen,10_6_1,2023-11-27T19:40:37.056Z,,,,,,,,,,,NaN,,,,,,,,low,high,,,,,,,false,,,,,false,287207.2999999523,287207.09999990463,,287206.7000000477,,287010.411,5,600,,
break_continue,html.Screen,10_6_2,2023-11-27T19:40:37.056Z,,,,,,,,,,,NaN,,,,,,,,low,high,,,,,,,false,,,,,false,287207.7999999523,287207.59999990463,,287207.5,,287010.411,5,600,,
sequence,flow.Sequence,10_6,2023-11-27T19:40:37.057Z,,,,,,,,,,,2030.576999904646,completion,,,,,,,low,high,,,,,,,false,,,,,false,287208,287207.59999990463,285160.445,285367.7000000477,285177.023,287010.411,5,600,,
trial,html.Screen,10_7_0,2023-11-27T19:40:38.376Z,,,,1,0.0245376145053177,-0.0436993426328401,,0.05,false,hl,1516.4890000953455,response,0.969947771489652,1.1224874926325046,-0.8851741823161398,-0.6651811306243314,1.0940050303086186,-0.7971539264410217,high,low,,ISIC_0056444.JPG,9,ISIC_7254389.JPG,33,27,false,0.18000000000000005,ll,keypress(f),0,false,288527.09999990463,288526.90000009537,286993.666,287208.09999990463,287010.411,288343.717,5,600,8,
break,html.Screen,10_7_1,2023-11-27T19:40:38.377Z,,,,,,,,,,,NaN,,,,,,,,high,low,,,,,,,false,,,,,false,288527.90000009537,288527.7000000477,,288527.2999999523,,288343.717,5,600,,
break_continue,html.Screen,10_7_2,2023-11-27T19:40:38.377Z,,,,,,,,,,,NaN,,,,,,,,high,low,,,,,,,false,,,,,false,288528.40000009537,288528.2999999523,,288528.09999990463,,288343.717,5,600,,
sequence,flow.Sequence,10_7,2023-11-27T19:40:38.377Z,,,,,,,,,,,1517.8889999522944,completion,,,,,,,high,low,,,,,,,false,,,,,false,288528.7000000477,288528.2999999523,286993.666,287208,287010.411,288343.717,5,600,,
trial,html.Screen,10_8_0,2023-11-27T19:40:39.694Z,,,,1,-0.0363437082783146,-0.0333332186217051,,0.05,true,hl,1501.6830000953632,response,1.2364994561934892,1.1224874926325046,-0.8851741823161398,-0.9174173651516624,1.0940050303086186,-0.7971539264410217,high,low,,ISIC_3314555.JPG,9,ISIC_3481133.JPG,33,27,false,0.18000000000000005,hl,keypress(j),0,false,289845.5,289845.40000009537,288327.165,288528.7999999523,288343.717,289660.503,5,600,9,
break,html.Screen,10_8_1,2023-11-27T19:40:39.694Z,,,,,,,,,,,NaN,,,,,,,,high,low,,,,,,,false,,,,,false,289845.7000000477,289845.7000000477,,289845.59999990463,,289660.503,5,600,,
break_continue,html.Screen,10_8_2,2023-11-27T19:40:39.695Z,,,,,,,,,,,NaN,,,,,,,,high,low,,,,,,,false,,,,,false,289845.7999999523,289845.7999999523,,289845.7999999523,,289660.503,5,600,,
sequence,flow.Sequence,10_8,2023-11-27T19:40:39.695Z,,,,,,,,,,,1502.082999952312,completion,,,,,,,high,low,,,,,,,false,,,,,false,289845.90000009537,289845.7999999523,288327.165,288528.7000000477,288343.717,289660.503,5,600,,
trial,html.Screen,10_9_0,2023-11-27T19:40:41.064Z,,,,1,-0.0217698886732706,0.0410870915161425,,0.05,false,lh,1554.7969999522902,response,-0.8092423703106274,1.1224874926325046,-0.8851741823161398,1.1870093485714288,1.0940050303086186,-0.7971539264410217,low,high,,ISIC_0072173.JPG,8,ISIC_8592235.JPG,33,25,false,0.2400000000000001,hh,keypress(i),0,false,291215.59999990463,291215.2999999523,289643.882,289846,289660.503,291027.034,5,600,10,
break,html.Screen,10_9_1,2023-11-27T19:40:41.065Z,,,,,,,,,,,NaN,,,,,,,,low,high,,,,,,,false,,,,,false,291216.40000009537,291216.2000000477,,291215.7999999523,,291027.034,5,600,,
break_continue,html.Screen,10_9_2,2023-11-27T19:40:41.066Z,,,,,,,,,,,NaN,,,,,,,,low,high,,,,,,,false,,,,,false,291217,291216.7000000477,,291216.5,,291027.034,5,600,,
sequence,flow.Sequence,10_9,2023-11-27T19:40:41.066Z,,,,,,,,,,,1556.1970000476576,completion,,,,,,,low,high,,,,,,,false,,,,,false,291217.09999990463,291216.7000000477,289643.882,289846,289660.503,291027.034,5,600,,
trial,html.Screen,10_10_0,2023-11-27T19:40:42.502Z,,,,1,-0.0363437082783146,-0.0333332186217051,,0.05,false,hh,1626.5659999046475,response,1.0789197754694622,1.1224874926325046,-0.8851741823161398,1.1654690806750023,1.0940050303086186,-0.7971539264410217,high,high,,ISIC_3314555.JPG,9,ISIC_1576437.JPG,33,26,false,0.1,lh,keypress(e),0,false,292653.59999990463,292653.59999990463,291010.378,291217.2000000477,291027.034,292460.346,5,600,11,
break,html.Screen,10_10_1,2023-11-27T19:40:42.503Z,,,,,,,,,,,NaN,,,,,,,,high,high,,,,,,,false,,,,,false,292653.90000009537,292653.90000009537,,292653.7000000477,,292460.346,5,600,,
break_continue,html.Screen,10_10_2,2023-11-27T19:40:42.503Z,,,,,,,,,,,NaN,,,,,,,,high,high,,,,,,,false,,,,,false,292654.09999990463,292654.09999990463,,292654,,292460.346,5,600,,
sequence,flow.Sequence,10_10,2023-11-27T19:40:42.503Z,,,,,,,,,,,1627.0659999046475,completion,,,,,,,high,high,,,,,,,false,,,,,false,292654.2000000477,292654.09999990463,291010.378,291217.2000000477,291027.034,292460.346,5,600,,
trial,html.Screen,10_11_0,2023-11-27T19:40:43.871Z,,,,1,0.013431314305098,-0.0140597582944232,,0.05,false,lh,1562.1539999999804,response,-1.0264463986917702,1.1224874926325046,-0.8851741823161398,1.2804054832904397,1.0940050303086186,-0.7971539264410217,low,high,,ISIC_0069617.JPG,8,ISIC_7889838.JPG,33,25,false,0.2400000000000001,hl,keypress(j),0,false,294022.7000000477,294022.5,292443.712,292654.2000000477,292460.346,293827.069,5,600,12,
break,html.Screen,10_11_1,2023-11-27T19:40:43.872Z,,,,,,,,,,,NaN,,,,,,,,low,high,,,,,,,false,,,,,false,294023.7000000477,294023.5,,294023,,293827.069,5,600,,
break_continue,html.Screen,10_11_2,2023-11-27T19:40:43.873Z,,,,,,,,,,,NaN,,,,,,,,low,high,,,,,,,false,,,,,false,294024.2000000477,294024,,294023.7999999523,,293827.069,5,600,,
sequence,flow.Sequence,10_11,2023-11-27T19:40:43.873Z,,,,,,,,,,,1563.6539999999804,completion,,,,,,,low,high,,,,,,,false,,,,,false,294024.40000009537,294024,292443.712,292654.2000000477,292460.346,293827.069,5,600,,
trial,html.Screen,10_12_0,2023-11-27T19:40:45.294Z,,,,1,-0.0085520978188085,0.0464691161264081,,0.05,false,lh,1618.3310000953497,response,-0.809764442462202,1.1224874926325046,-0.8851741823161398,1.005337148078696,1.0940050303086186,-0.7971539264410217,low,high,,ISIC_0758797.JPG,9,ISIC_2379379.JPG,33,25,false,0.2400000000000001,hh,keypress(i),0,false,295445.5,295445.40000009537,293810.475,294024.5,293827.069,295260.386,5,600,13,
break,html.Screen,10_12_1,2023-11-27T19:40:45.294Z,,,,,,,,,,,NaN,,,,,,,,low,high,,,,,,,false,,,,,false,295445.7999999523,295445.7000000477,,295445.59999990463,,295260.386,5,600,,
break_continue,html.Screen,10_12_2,2023-11-27T19:40:45.295Z,,,,,,,,,,,NaN,,,,,,,,low,high,,,,,,,false,,,,,false,295445.90000009537,295445.90000009537,,295445.7999999523,,295260.386,5,600,,
sequence,flow.Sequence,10_12,2023-11-27T19:40:45.295Z,,,,,,,,,,,1618.8310000953497,completion,,,,,,,low,high,,,,,,,false,,,,,false,295446,295445.90000009537,293810.475,294024.5,293827.069,295260.386,5,600,,
trial,html.Screen,10_13_0,2023-11-27T19:40:46.951Z,,,,1,-0.0456515796420274,0.0273567130070961,,0.05,false,lh,1841.814000047685,response,-1.0264463986917702,1.1224874926325046,-0.8851741823161398,1.2804054832904397,1.0940050303086186,-0.7971539264410217,low,high,,ISIC_0068610.JPG,8,ISIC_7889838.JPG,33,25,false,0.2400000000000001,hh,keypress(i),0,false,297102.5,297102.2000000477,295243.813,295446.09999990463,295260.386,296910.353,5,600,14,
break,html.Screen,10_13_1,2023-11-27T19:40:46.952Z,,,,,,,,,,,NaN,,,,,,,,low,high,,,,,,,false,,,,,false,297103.7000000477,297103.40000009537,,297103,,296910.353,5,600,,
break_continue,html.Screen,10_13_2,2023-11-27T19:40:46.953Z,,,,,,,,,,,NaN,,,,,,,,low,high,,,,,,,false,,,,,false,297104.2999999523,297104.09999990463,,297103.90000009537,,296910.353,5,600,,
sequence,flow.Sequence,10_13,2023-11-27T19:40:46.953Z,,,,,,,,,,,1843.713999904634,completion,,,,,,,low,high,,,,,,,false,,,,,false,297104.5,297104.09999990463,295243.813,295446,295260.386,296910.353,5,600,,
trial,html.Screen,10_14_0,2023-11-27T19:40:48.359Z,,,,1,-0.0057914759495055,-0.0074667911845194,,0.05,false,hh,1600.0470000953646,response,1.0858641668099058,1.1224874926325046,-0.8851741823161398,1.1638942560200525,1.0940050303086186,-0.7971539264410217,high,high,,ISIC_0058723.JPG,9,ISIC_5439597.JPG,33,26,false,0.1,ll,keypress(f),0,false,298510.7000000477,298510.40000009537,296893.9,297104.7000000477,296910.353,298327.02,5,600,15,
break,html.Screen,10_14_1,2023-11-27T19:40:48.360Z,,,,,,,,,,,NaN,,,,,,,,high,high,,,,,,,false,,,,,false,298511.7000000477,298511.40000009537,,298511,,298327.02,5,600,,
break_continue,html.Screen,10_14_2,2023-11-27T19:40:48.361Z,,,,,,,,,,,NaN,,,,,,,,high,high,,,,,,,false,,,,,false,298512.2999999523,298512,,298511.90000009537,,298327.02,5,600,,
sequence,flow.Sequence,10_14,2023-11-27T19:40:48.361Z,,,,,,,,,,,1601.6469999999972,completion,,,,,,,high,high,,,,,,,false,,,,,false,298512.5,298512,296893.9,297104.59999990463,296910.353,298327.02,5,600,,
trial,html.Screen,10_15_0,2023-11-27T19:40:49.694Z,,,,1,0.0113873532168551,0.0054999201556291,,0.05,false,hl,1518.4799999999814,response,1.084404366274825,1.1224874926325046,-0.8851741823161398,-0.6211476071518608,1.0940050303086186,-0.7971539264410217,high,low,,ISIC_8812621.JPG,9,ISIC_3530422.JPG,33,27,false,0.18000000000000005,hh,keypress(i),0,false,299845.5,299845.5,298310.42,298512.59999990463,298327.02,299660.337,5,600,16,
break,html.Screen,10_15_1,2023-11-27T19:40:49.694Z,,,,,,,,,,,NaN,,,,,,,,high,low,,,,,,,false,,,,,false,299845.7999999523,299845.7000000477,,299845.59999990463,,299660.337,5,600,,
break_continue,html.Screen,10_15_2,2023-11-27T19:40:49.695Z,,,,,,,,,,,NaN,,,,,,,,high,low,,,,,,,false,,,,,false,299845.90000009537,299845.90000009537,,299845.7999999523,,299660.337,5,600,,
sequence,flow.Sequence,10_15,2023-11-27T19:40:49.695Z,,,,,,,,,,,1518.8800000953488,completion,,,,,,,high,low,,,,,,,false,,,,,false,299846,299845.90000009537,298310.42,298512.59999990463,298327.02,299660.337,5,600,,
trial,html.Screen,10_16_0,2023-11-27T19:40:50.966Z,,,,1,-0.0363437082783146,-0.0333332186217051,,0.05,false,hl,1457.063000095368,response,1.0396927560986136,1.1224874926325046,-0.8851741823161398,-0.6700895381759688,1.0940050303086186,-0.7971539264410217,high,low,,ISIC_3314555.JPG,9,ISIC_0066149.JPG,33,27,false,0.18000000000000005,ll,keypress(f),0,false,301117.5,301117.40000009537,299643.893,299846.09999990463,299660.337,300926.995,5,600,17,
break,html.Screen,10_16_1,2023-11-27T19:40:50.966Z,,,,,,,,,,,NaN,,,,,,,,high,low,,,,,,,false,,,,,false,301117.90000009537,301117.7000000477,,301117.59999990463,,300926.995,5,600,,
break_continue,html.Screen,10_16_2,2023-11-27T19:40:50.967Z,,,,,,,,,,,NaN,,,,,,,,high,low,,,,,,,false,,,,,false,301118,301117.90000009537,,301117.90000009537,,300926.995,5,600,,
sequence,flow.Sequence,10_16,2023-11-27T19:40:50.967Z,,,,,,,,,,,1457.563000095368,completion,,,,,,,high,low,,,,,,,false,,,,,false,301118.09999990463,301117.90000009537,299643.893,299846.09999990463,299660.337,300926.995,5,600,,
trial,html.Screen,10_17_0,2023-11-27T19:40:52.623Z,,,,1,-0.0456515796420274,0.0273567130070961,,0.05,false,lh,1846.905000095372,response,-0.7998855902596425,1.1224874926325046,-0.8851741823161398,1.1518579145663017,1.0940050303086186,-0.7971539264410217,low,high,,ISIC_0068610.JPG,9,ISIC_0025061.JPG,33,25,false,0.2400000000000001,ll,keypress(f),0,false,302774.09999990463,302773.90000009537,300910.437,301118.09999990463,300926.995,302577.062,5,600,18,
break,html.Screen,10_17_1,2023-11-27T19:40:52.624Z,,,,,,,,,,,NaN,,,,,,,,low,high,,,,,,,false,,,,,false,302774.90000009537,302774.7000000477,,302774.2999999523,,302577.062,5,600,,
break_continue,html.Screen,10_17_2,2023-11-27T19:40:52.624Z,,,,,,,,,,,NaN,,,,,,,,low,high,,,,,,,false,,,,,false,302775.2999999523,302775.2000000477,,302775,,302577.062,5,600,,
sequence,flow.Sequence,10_17,2023-11-27T19:40:52.624Z,,,,,,,,,,,1848.2050000476884,completion,,,,,,,low,high,,,,,,,false,,,,,false,302775.5,302775.2000000477,300910.437,301118.09999990463,300926.995,302577.062,5,600,,
trial,html.Screen,10_18_0,2023-11-27T19:40:54.046Z,,,,1,0.0409338693593207,-0.0072462710499874,,0.05,false,ll,1620.5379999046563,response,-0.800868140103716,1.1224874926325046,-0.8851741823161398,-0.7039283466543492,1.0940050303086186,-0.7971539264410217,low,low,,ISIC_3608788.JPG,8,ISIC_0033787.JPG,33,55,false,0.1,hh,keypress(i),0,false,304197.59999990463,304197.59999990463,302560.518,302775.7000000477,302577.062,304010.351,5,600,19,
break,html.Screen,10_18_1,2023-11-27T19:40:54.047Z,,,,,,,,,,,NaN,,,,,,,,low,low,,,,,,,false,,,,,false,304197.90000009537,304197.7999999523,,304197.7999999523,,304010.351,5,600,,
break_continue,html.Screen,10_18_2,2023-11-27T19:40:54.047Z,,,,,,,,,,,NaN,,,,,,,,low,low,,,,,,,false,,,,,false,304198.09999990463,304198.09999990463,,304198,,304010.351,5,600,,
sequence,flow.Sequence,10_18,2023-11-27T19:40:54.047Z,,,,,,,,,,,1621.0379999046563,completion,,,,,,,low,low,,,,,,,false,,,,,false,304198.09999990463,304198.09999990463,302560.518,302775.7000000477,302577.062,304010.351,5,600,,
trial,html.Screen,10_19_0,2023-11-27T19:40:55.624Z,,,,1,-0.007397293189458,-0.0174716772037504,,0.05,true,hh,1765.0490000953432,response,1.072671714258808,1.1224874926325046,-0.8851741823161398,1.0208498389771272,1.0940050303086186,-0.7971539264410217,high,high,,ISIC_0056226.JPG,9,ISIC_5218773.JPG,33,26,false,0.1,hh,keypress(i),0,false,305775.59999990463,305775.40000009537,303993.66,304198.2000000477,304010.351,305593.724,5,600,20,
break,html.Screen,10_19_1,2023-11-27T19:40:55.625Z,,,,,,,,,,,NaN,,,,,,,,high,high,,,,,,,false,,,,,false,305776.7000000477,305776.40000009537,,305776,,305593.724,5,600,,
break_continue,html.Screen,10_19_2,2023-11-27T19:40:55.626Z,,,,,,,,,,,NaN,,,,,,,,high,high,,,,,,,false,,,,,false,305777.2000000477,305777,,305776.7999999523,,305593.724,5,600,,
sequence,flow.Sequence,10_19,2023-11-27T19:40:55.626Z,,,,,,,,,,,1766.6489999999758,completion,,,,,,,high,high,,,,,,,false,,,,,false,305777.5,305777,303993.66,304198.2000000477,304010.351,305593.724,5,600,,
trial,html.Screen,10_20_0,2023-11-27T19:40:56.848Z,,,,1,-0.0389988030702649,-0.0143212271490256,,0.05,false,lh,1405.67600009538,response,-0.8655167308525522,1.1224874926325046,-0.8851741823161398,0.9298580423306444,1.0940050303086186,-0.7971539264410217,low,high,,ISIC_0064669.JPG,10,ISIC_4603706.JPG,33,25,false,0.2400000000000001,hl,keypress(j),0,false,306999.59999990463,306999.40000009537,305577.017,305777.59999990463,305593.724,306810.378,5,600,21,
break,html.Screen,10_20_1,2023-11-27T19:40:56.849Z,,,,,,,,,,,NaN,,,,,,,,low,high,,,,,,,false,,,,,false,307000.59999990463,307000.40000009537,,306999.90000009537,,306810.378,5,600,,
break_continue,html.Screen,10_20_2,2023-11-27T19:40:56.850Z,,,,,,,,,,,NaN,,,,,,,,low,high,,,,,,,false,,,,,false,307001.2999999523,307001.09999990463,,307000.7999999523,,306810.378,5,600,,
sequence,flow.Sequence,10_20,2023-11-27T19:40:56.850Z,,,,,,,,,,,1407.3759999046451,completion,,,,,,,low,high,,,,,,,false,,,,,false,307001.5,307001.09999990463,305577.017,305777.5,305593.724,306810.378,5,600,,
trial,html.Screen,10_21_0,2023-11-27T19:40:58.815Z,,,,1,-0.0116094682222121,0.0258434522530318,,0.05,false,lh,2156.121999999974,response,-0.6455395030138186,1.1224874926325046,-0.8851741823161398,1.3091676741424545,1.0940050303086186,-0.7971539264410217,low,high,,ISIC_9239632.JPG,9,ISIC_0028285.JPG,33,25,false,0.2400000000000001,hh,keypress(i),0,false,308966.7999999523,308966.5,306793.765,307001.7000000477,306810.378,308777.022,5,600,22,
break,html.Screen,10_21_1,2023-11-27T19:40:58.816Z,,,,,,,,,,,NaN,,,,,,,,low,high,,,,,,,false,,,,,false,308967.59999990463,308967.5,,308967,,308777.022,5,600,,
break_continue,html.Screen,10_21_2,2023-11-27T19:40:58.817Z,,,,,,,,,,,NaN,,,,,,,,low,high,,,,,,,false,,,,,false,308968.09999990463,308967.90000009537,,308967.7000000477,,308777.022,5,600,,
sequence,flow.Sequence,10_21,2023-11-27T19:40:58.817Z,,,,,,,,,,,2157.5220000953414,completion,,,,,,,low,high,,,,,,,false,,,,,false,308968.2999999523,308967.90000009537,306793.765,307001.7000000477,306810.378,308777.022,5,600,,
trial,html.Screen,10_22_0,2023-11-27T19:41:14.615Z,,,,1,0.0409338693593207,-0.0072462710499874,,0.05,,,15799.900000000023,timeout,1.200284020742371,1.1224874926325046,-0.8851741823161398,1.0002918079433898,1.0940050303086186,-0.7971539264410217,high,high,,ISIC_3608788.JPG,9,ISIC_0678758.JPG,33,26,false,0.1,,,0,false,324765.40000009537,324765.2000000477,308760.486,308968.5,308777.022,324576.922,5,600,23,
break,html.Screen,10_22_1,2023-11-27T19:41:14.616Z,,,,,,,,,,,NaN,,,,,,,,high,high,,,,,,,false,,,,,false,324766.40000009537,324766.09999990463,,324765.7999999523,,324576.922,5,600,,
break_continue,html.Screen,10_22_2,2023-11-27T19:41:14.616Z,,,,,,,,,,,NaN,,,,,,,,high,high,,,,,,,false,,,,,false,324766.90000009537,324766.7000000477,,324766.5,,324576.922,5,600,,
sequence,flow.Sequence,10_22,2023-11-27T19:41:14.616Z,,,,,,,,,,,15989.678000047687,completion,,,,,,,high,high,,,,,,,false,,,,,false,324767.09999990463,324766.7000000477,308760.486,308968.40000009537,308777.022,324576.922,5,600,,
trial,html.Screen,10_23_0,2023-11-27T19:41:16.976Z,,,,1,0.0348234368746005,-0.0236866303880924,,0.05,false,lh,2549.5779999999795,response,-0.7870237732709365,1.1224874926325046,-0.8851741823161398,0.9172955251119376,1.0940050303086186,-0.7971539264410217,low,high,,ISIC_0011099.JPG,9,ISIC_0057716.JPG,33,25,false,0.2400000000000001,hh,keypress(i),0,false,327126.7999999523,327126.5,324560.391,324767.2999999523,324576.922,326943.606,5,600,24,
break,html.Screen,10_23_1,2023-11-27T19:41:16.977Z,,,,,,,,,,,NaN,,,,,,,,low,high,,,,,,,false,,,,,false,327127.7999999523,327127.59999990463,,327127.09999990463,,326943.606,5,600,,
break_continue,html.Screen,10_23_2,2023-11-27T19:41:16.978Z,,,,,,,,,,,NaN,,,,,,,,low,high,,,,,,,false,,,,,false,327128.2999999523,327128.2000000477,,327127.90000009537,,326943.606,5,600,,
sequence,flow.Sequence,10_23,2023-11-27T19:41:16.978Z,,,,,,,,,,,2551.278000047663,completion,,,,,,,low,high,,,,,,,false,,,,,false,327128.59999990463,327128.2000000477,324560.391,324767.2999999523,324576.922,326943.606,5,600,,
trial,html.Screen,10_24_0,2023-11-27T19:41:18.865Z,,,,1,-0.0329095507339554,0.0382899749693245,,0.05,false,ll,2071.6939999522874,response,-0.838482148534353,1.1224874926325046,-0.8851741823161398,-0.8179691667073062,1.0940050303086186,-0.7971539264410217,low,low,,ISIC_8812781.JPG,9,ISIC_0055079.JPG,33,55,false,0.1,hh,keypress(i),0,false,329015.7000000477,329015.2999999523,326927.027,327128.7000000477,326943.606,328826.915,5,600,25,
break,html.Screen,10_24_1,2023-11-27T19:41:18.866Z,,,,,,,,,,,NaN,,,,,,,,low,low,,,,,,,false,,,,,false,329016.59999990463,329016.2999999523,,329015.90000009537,,328826.915,5,600,,
break_continue,html.Screen,10_24_2,2023-11-27T19:41:18.866Z,,,,,,,,,,,NaN,,,,,,,,low,low,,,,,,,false,,,,,false,329017.2000000477,329017,,329016.7999999523,,328826.915,5,600,,
sequence,flow.Sequence,10_24,2023-11-27T19:41:18.867Z,,,,,,,,,,,2073.393999999971,completion,,,,,,,low,low,,,,,,,false,,,,,false,329017.40000009537,329017,326927.027,327128.7000000477,326943.606,328826.915,5,600,,
trial,html.Screen,10_25_0,2023-11-27T19:41:20.441Z,,,,1,0.013431314305098,-0.0140597582944232,,0.05,true,hl,1764.2850000477047,response,1.2331439637486756,1.1224874926325046,-0.8851741823161398,-0.9691143900156988,1.0940050303086186,-0.7971539264410217,high,low,,ISIC_0069617.JPG,8,ISIC_7877488.JPG,33,27,false,0.18000000000000005,hl,keypress(j),0,false,330591.5,330591.2000000477,328810.38,329017.7000000477,328826.915,330411.265,5,600,26,
break,html.Screen,10_25_1,2023-11-27T19:41:20.442Z,,,,,,,,,,,NaN,,,,,,,,high,low,,,,,,,false,,,,,false,330592.40000009537,330592.2000000477,,330591.7999999523,,330411.265,5,600,,
break_continue,html.Screen,10_25_2,2023-11-27T19:41:20.442Z,,,,,,,,,,,NaN,,,,,,,,high,low,,,,,,,false,,,,,false,330593.09999990463,330592.90000009537,,330592.59999990463,,330411.265,5,600,,
sequence,flow.Sequence,10_25,2023-11-27T19:41:20.443Z,,,,,,,,,,,1765.9850000953884,completion,,,,,,,high,low,,,,,,,false,,,,,false,330593.2999999523,330592.90000009537,328810.38,329017.59999990463,328826.915,330411.265,5,600,,
trial,html.Screen,10_26_0,2023-11-27T19:41:21.929Z,,,,1,-0.0389988030702649,-0.0143212271490256,,0.05,false,hl,1668.234999999986,response,1.2331439637486756,1.1224874926325046,-0.8851741823161398,-0.9691143900156988,1.0940050303086186,-0.7971539264410217,high,low,,ISIC_0064669.JPG,8,ISIC_7877488.JPG,33,27,false,0.18000000000000005,hh,keypress(i),0,false,332079.7000000477,332079.5,330376.966,330593.40000009537,330411.265,331893.551,5,600,27,
break,html.Screen,10_26_1,2023-11-27T19:41:21.930Z,,,,,,,,,,,NaN,,,,,,,,high,low,,,,,,,false,,,,,false,332080.59999990463,332080.5,,332080.09999990463,,331893.551,5,600,,
break_continue,html.Screen,10_26_2,2023-11-27T19:41:21.930Z,,,,,,,,,,,NaN,,,,,,,,high,low,,,,,,,false,,,,,false,332081.2000000477,332081,,332080.90000009537,,331893.551,5,600,,
sequence,flow.Sequence,10_26,2023-11-27T19:41:21.931Z,,,,,,,,,,,1669.734999999986,completion,,,,,,,high,low,,,,,,,false,,,,,false,332081.5,332081,330376.966,330593.40000009537,330411.265,331893.551,5,600,,
trial,html.Screen,10_27_0,2023-11-27T19:41:23.512Z,,,,1,-0.0324770283903853,-0.0249968632204382,,0.05,false,lh,1768.548999904655,response,-0.6714344890480403,1.1224874926325046,-0.8851741823161398,0.9362962536620838,1.0940050303086186,-0.7971539264410217,low,high,,ISIC_7266462.JPG,8,ISIC_3691320.JPG,33,25,false,0.2400000000000001,ll,keypress(f),0,false,333662.2999999523,333662.09999990463,331877.01,332081.59999990463,331893.551,333476.948,5,600,28,
break,html.Screen,10_27_1,2023-11-27T19:41:23.513Z,,,,,,,,,,,NaN,,,,,,,,low,high,,,,,,,false,,,,,false,333663.2999999523,333663.09999990463,,333662.7000000477,,333476.948,5,600,,
break_continue,html.Screen,10_27_2,2023-11-27T19:41:23.513Z,,,,,,,,,,,NaN,,,,,,,,low,high,,,,,,,false,,,,,false,333663.7999999523,333663.59999990463,,333663.40000009537,,333476.948,5,600,,
sequence,flow.Sequence,10_27,2023-11-27T19:41:23.513Z,,,,,,,,,,,1770.048999904655,completion,,,,,,,low,high,,,,,,,false,,,,,false,333664,333663.59999990463,331877.01,332081.59999990463,331893.551,333476.948,5,600,,
trial,html.Screen,10_28_0,2023-11-27T19:41:25.071Z,,,,1,-0.0329095507339554,0.0382899749693245,,0.05,false,ll,1744.7520000477089,response,-0.9693644437173125,1.1224874926325046,-0.8851741823161398,-0.7001417721559454,1.0940050303086186,-0.7971539264410217,low,low,,ISIC_8812781.JPG,8,ISIC_0014795.JPG,33,55,false,0.1,lh,keypress(e),0,false,335221.7000000477,335221.7000000477,333460.537,333664.2000000477,333476.948,335026.869,5,600,29,
break,html.Screen,10_28_1,2023-11-27T19:41:25.071Z,,,,,,,,,,,NaN,,,,,,,,low,low,,,,,,,false,,,,,false,335222.09999990463,335222,,335221.90000009537,,335026.869,5,600,,
break_continue,html.Screen,10_28_2,2023-11-27T19:41:25.071Z,,,,,,,,,,,NaN,,,,,,,,low,low,,,,,,,false,,,,,false,335222.2000000477,335222.09999990463,,335222.09999990463,,335026.869,5,600,,
sequence,flow.Sequence,10_28,2023-11-27T19:41:25.072Z,,,,,,,,,,,1745.1519999046577,completion,,,,,,,low,low,,,,,,,false,,,,,false,335222.2999999523,335222.09999990463,333460.537,333664.09999990463,333476.948,335026.869,5,600,,
trial,html.Screen,10_29_0,2023-11-27T19:41:26.585Z,,,,1,-0.0363437082783146,-0.0333332186217051,,0.05,false,hl,1708.4309999523102,response,1.0706588446368888,1.1224874926325046,-0.8851741823161398,-0.6941525005619681,1.0940050303086186,-0.7971539264410217,high,low,,ISIC_3314555.JPG,9,ISIC_8855790.JPG,33,27,false,0.18000000000000005,lh,keypress(e),0,false,336735.5,336735.2999999523,335010.281,335222.40000009537,335026.869,336543.543,5,600,30,
break,html.Screen,10_29_1,2023-11-27T19:41:26.586Z,,,,,,,,,,,NaN,,,,,,,,high,low,,,,,,,false,,,,,false,336736.40000009537,336736.2999999523,,336735.7999999523,,336543.543,5,600,,
break_continue,html.Screen,10_29_2,2023-11-27T19:41:26.586Z,,,,,,,,,,,NaN,,,,,,,,high,low,,,,,,,false,,,,,false,336736.90000009537,336736.7999999523,,336736.59999990463,,336543.543,5,600,,
sequence,flow.Sequence,10_29,2023-11-27T19:41:26.586Z,,,,,,,,,,,1709.9309999523102,completion,,,,,,,high,low,,,,,,,false,,,,,false,336737.2000000477,336736.7999999523,335010.281,335222.2999999523,335026.869,336543.543,5,600,,
trial,html.Screen,10_30_0,2023-11-27T19:41:30.103Z,,,,1,0.0134764727102299,0.0033499036460912,,0.05,false,lh,3709.756999952311,response,-1.0264463986917702,1.1224874926325046,-0.8851741823161398,1.2804054832904397,1.0940050303086186,-0.7971539264410217,low,high,,ISIC_0009998.JPG,9,ISIC_7889838.JPG,33,25,false,0.2400000000000001,ll,keypress(f),0,false,340253.40000009537,340253.2999999523,336526.911,336737.2999999523,336543.543,340077.097,5,600,31,
break,html.Screen,10_30_1,2023-11-27T19:41:30.103Z,,,,,,,,,,,NaN,,,,,,,,low,high,,,,,,,false,,,,,false,340253.7999999523,340253.7000000477,,340253.5,,340077.097,5,600,,
break_continue,html.Screen,10_30_2,2023-11-27T19:41:30.103Z,,,,,,,,,,,NaN,,,,,,,,low,high,,,,,,,false,,,,,false,340254,340254,,340253.7999999523,,340077.097,5,600,,
sequence,flow.Sequence,10_30,2023-11-27T19:41:30.103Z,,,,,,,,,,,3710.456999999995,completion,,,,,,,low,high,,,,,,,false,,,,,false,340254.2000000477,340254,336526.911,336737.2000000477,336543.543,340077.097,5,600,,
trial,html.Screen,10_31_0,2023-11-27T19:41:31.504Z,,,,1,-0.0069555338059566,0.0310100918136373,,0.05,false,hl,1577.6030000476749,response,1.2331439637486756,1.1224874926325046,-0.8851741823161398,-0.9691143900156988,1.0940050303086186,-0.7971539264410217,high,low,,ISIC_0011177.JPG,8,ISIC_7877488.JPG,33,27,false,0.18000000000000005,hh,keypress(i),0,false,341655,341654.7000000477,340060.218,340254.2000000477,340077.097,341460.186,5,600,32,
break,html.Screen,10_31_1,2023-11-27T19:41:31.505Z,,,,,,,,,,,NaN,,,,,,,,high,low,,,,,,,false,,,,,false,341655.7999999523,341655.59999990463,,341655.2999999523,,341460.186,5,600,,
break_continue,html.Screen,10_31_2,2023-11-27T19:41:31.506Z,,,,,,,,,,,NaN,,,,,,,,high,low,,,,,,,false,,,,,false,341656.2999999523,341656.09999990463,,341655.90000009537,,341460.186,5,600,,
sequence,flow.Sequence,10_31,2023-11-27T19:41:31.506Z,,,,,,,,,,,1579.0029999046237,completion,,,,,,,high,low,,,,,,,false,,,,,false,341656.5,341656.09999990463,340060.218,340254.2000000477,340077.097,341460.186,5,600,,
trial,html.Screen,10_32_0,2023-11-27T19:41:32.920Z,,,,1,-0.0389988030702649,-0.0143212271490256,,0.05,false,lh,1610.2140000953805,response,-0.705042352333099,1.1224874926325046,-0.8851741823161398,0.9127244278050396,1.0940050303086186,-0.7971539264410217,low,high,,ISIC_0064669.JPG,10,ISIC_0787229.JPG,33,25,false,0.2400000000000001,hl,keypress(j),0,false,343070.7000000477,343070.40000009537,341443.537,341656.7000000477,341460.186,342893.579,5,600,33,
break,html.Screen,10_32_1,2023-11-27T19:41:32.921Z,,,,,,,,,,,NaN,,,,,,,,low,high,,,,,,,false,,,,,false,343071.7000000477,343071.5,,343071.09999990463,,342893.579,5,600,,
break_continue,html.Screen,10_32_2,2023-11-27T19:41:32.921Z,,,,,,,,,,,NaN,,,,,,,,low,high,,,,,,,false,,,,,false,343072.2000000477,343072.09999990463,,343071.90000009537,,342893.579,5,600,,
sequence,flow.Sequence,10_32,2023-11-27T19:41:32.922Z,,,,,,,,,,,1611.9139999046456,completion,,,,,,,low,high,,,,,,,false,,,,,false,343072.5,343072.09999990463,341443.537,341656.7000000477,341460.186,342893.579,5,600,,
trial,html.Screen,10_33_0,2023-11-27T19:41:34.320Z,,,,1,0.0097091270150747,-0.0417921315885292,,0.05,false,hl,1576.7209999522893,response,1.11969546505004,1.1224874926325046,-0.8851741823161398,-0.7169584869657797,1.0940050303086186,-0.7971539264410217,high,low,,ISIC_3967213.JPG,9,ISIC_0033967.JPG,33,27,false,0.18000000000000005,hh,keypress(i),0,false,344470.59999990463,344470.2999999523,342860.218,343072.7000000477,342893.579,344276.846,5,600,34,
break,html.Screen,10_33_1,2023-11-27T19:41:34.321Z,,,,,,,,,,,NaN,,,,,,,,high,low,,,,,,,false,,,,,false,344471.5,344471.2999999523,,344470.90000009537,,344276.846,5,600,,
break_continue,html.Screen,10_33_2,2023-11-27T19:41:34.321Z,,,,,,,,,,,NaN,,,,,,,,high,low,,,,,,,false,,,,,false,344472.09999990463,344471.90000009537,,344471.7000000477,,344276.846,5,600,,
sequence,flow.Sequence,10_33,2023-11-27T19:41:34.322Z,,,,,,,,,,,1578.3210000953404,completion,,,,,,,high,low,,,,,,,false,,,,,false,344472.2999999523,344471.90000009537,342860.218,343072.59999990463,342893.579,344276.846,5,600,,
trial,html.Screen,10_34_0,2023-11-27T19:41:35.736Z,,,,1,-0.0324770283903853,-0.0249968632204382,,0.05,false,hl,1609.753999904613,response,1.011737552725394,1.1224874926325046,-0.8851741823161398,-0.8500530224490773,1.0940050303086186,-0.7971539264410217,high,low,,ISIC_7266462.JPG,9,ISIC_2998367.JPG,33,27,false,0.18000000000000005,hh,keypress(i),0,false,345886.90000009537,345886.59999990463,344260.381,344472.59999990463,344276.846,345693.51,5,600,35,
break,html.Screen,10_34_1,2023-11-27T19:41:35.737Z,,,,,,,,,,,NaN,,,,,,,,high,low,,,,,,,false,,,,,false,345887.7999999523,345887.59999990463,,345887.2000000477,,345693.51,5,600,,
break_continue,html.Screen,10_34_2,2023-11-27T19:41:35.738Z,,,,,,,,,,,NaN,,,,,,,,high,low,,,,,,,false,,,,,false,345888.5,345888.2999999523,,345888,,345693.51,5,600,,
sequence,flow.Sequence,10_34,2023-11-27T19:41:35.738Z,,,,,,,,,,,1611.4539999522967,completion,,,,,,,high,low,,,,,,,false,,,,,false,345888.59999990463,345888.2999999523,344260.381,344472.5,344276.846,345693.51,5,600,,
trial,html.Screen,10_35_0,2023-11-27T19:41:37.862Z,,,,1,-0.0324770283903853,-0.0249968632204382,,0.05,true,hh,2318.9899999999907,response,1.057008495826831,1.1224874926325046,-0.8851741823161398,1.1278122585028287,1.0940050303086186,-0.7971539264410217,high,high,,ISIC_7266462.JPG,9,ISIC_2819798.JPG,33,26,false,0.1,hh,keypress(i),0,false,348012.59999990463,348012.5,345676.949,345888.90000009537,345693.51,347826.872,5,600,36,
break,html.Screen,10_35_1,2023-11-27T19:41:37.862Z,,,,,,,,,,,NaN,,,,,,,,high,high,,,,,,,false,,,,,false,348012.90000009537,348012.90000009537,,348012.7999999523,,347826.872,5,600,,
break_continue,html.Screen,10_35_2,2023-11-27T19:41:37.862Z,,,,,,,,,,,NaN,,,,,,,,high,high,,,,,,,false,,,,,false,348013.09999990463,348013.09999990463,,348013,,347826.872,5,600,,
sequence,flow.Sequence,10_35,2023-11-27T19:41:37.862Z,,,,,,,,,,,2319.5899999046233,completion,,,,,,,high,high,,,,,,,false,,,,,false,348013.2000000477,348013.09999990463,345676.949,345888.7000000477,345693.51,347826.872,5,600,,
trial,html.Screen,10_36_0,2023-11-27T19:41:38.952Z,,,,1,0.013431314305098,-0.0140597582944232,,0.05,false,lh,1275.3280000477098,response,-0.809764442462202,1.1224874926325046,-0.8851741823161398,1.005337148078696,1.0940050303086186,-0.7971539264410217,low,high,,ISIC_0069617.JPG,9,ISIC_2379379.JPG,33,25,false,0.2400000000000001,hh,keypress(i),0,false,349102.40000009537,349102.2000000477,347810.282,348013.2000000477,347826.872,348910.261,5,600,37,
break,html.Screen,10_36_1,2023-11-27T19:41:38.953Z,,,,,,,,,,,NaN,,,,,,,,low,high,,,,,,,false,,,,,false,349103.5,349103.2000000477,,349102.7000000477,,348910.261,5,600,,
break_continue,html.Screen,10_36_2,2023-11-27T19:41:38.953Z,,,,,,,,,,,NaN,,,,,,,,low,high,,,,,,,false,,,,,false,349104,349103.7999999523,,349103.59999990463,,348910.261,5,600,,
sequence,flow.Sequence,10_36,2023-11-27T19:41:38.953Z,,,,,,,,,,,1276.9279999523424,completion,,,,,,,low,high,,,,,,,false,,,,,false,349104.2000000477,349103.7999999523,347810.282,348013.2000000477,347826.872,348910.261,5,600,,
trial,html.Screen,10_37_0,2023-11-27T19:41:40.703Z,,,,1,0.0113873532168551,0.0054999201556291,,0.05,false,hl,1943.439000047685,response,0.991282840649944,1.1224874926325046,-0.8851741823161398,-0.9397921099839784,1.0940050303086186,-0.7971539264410217,high,low,,ISIC_8812621.JPG,9,ISIC_0000463.JPG,33,27,false,0.18000000000000005,hh,keypress(i),0,false,350853.7000000477,350853.7000000477,348893.654,349104.40000009537,348910.261,350660.195,5,600,38,
break,html.Screen,10_37_1,2023-11-27T19:41:40.703Z,,,,,,,,,,,NaN,,,,,,,,high,low,,,,,,,false,,,,,false,350854,350854,,350853.7999999523,,350660.195,5,600,,
break_continue,html.Screen,10_37_2,2023-11-27T19:41:40.703Z,,,,,,,,,,,NaN,,,,,,,,high,low,,,,,,,false,,,,,false,350854.2000000477,350854.09999990463,,350854.09999990463,,350660.195,5,600,,
sequence,flow.Sequence,10_37,2023-11-27T19:41:40.703Z,,,,,,,,,,,1943.838999904634,completion,,,,,,,high,low,,,,,,,false,,,,,false,350854.2999999523,350854.09999990463,348893.654,349104.2999999523,348910.261,350660.195,5,600,,
trial,html.Screen,10_38_0,2023-11-27T19:41:41.864Z,,,,1,-0.0027483411352856,-0.0100996915276271,,0.05,true,ll,1354.2050000953604,response,-0.8543323078107433,1.1224874926325046,-0.8851741823161398,-0.7461766562126003,1.0940050303086186,-0.7971539264410217,low,low,,ISIC_7364041.JPG,10,ISIC_0012070.JPG,33,55,false,0.1,ll,keypress(f),0,false,352014.7999999523,352014.40000009537,350643.595,350854.2999999523,350660.195,351826.913,5,600,39,
break,html.Screen,10_38_1,2023-11-27T19:41:41.865Z,,,,,,,,,,,NaN,,,,,,,,low,low,,,,,,,false,,,,,false,352015.7000000477,352015.5,,352015,,351826.913,5,600,,
