sender,sender_type,sender_id,timestamp,meta,,age,blockNo,c1,c2,condition,control_tolerance,correct,correctResponse,duration,ended_on,f1,f1_high,f1_low,f2,f2_high,f2_low,feature_level1,feature_level2,gender,img_left,img_reveal,img_right,n_control_images,n_target_images,practice,range_tolerance,response,response_action,selection_duration,staircase,time_commit,time_end,time_render,time_run,time_show,time_switch,total_blocks,total_trials,trialNo,url
informed_consent,html.Screen,0,2023-11-30T18:50:51.723Z,"{""labjs_version"":""20.2.4"",""labjs_build"":{""flavor"":""development"",""commit"":""f5b4a49f956347addd546a832a3327688c2c0fef""},""location"":""https://labjs.felixhenninger.com/api/labjs_preview/index.html"",""userAgent"":""Mozilla/5.0 (Windows NT 10.0; Win64; x64) AppleWebKit/537.36 (KHTML, like Gecko) Chrome/119.0.0.0 Safari/537.36"",""platform"":""Win32"",""language"":""en-US"",""locale"":""en-US"",""timeZone"":""America/Chicago"",""timezoneOffset"":360,""screen_width"":1920,""screen_height"":1080,""scroll_width"":945,""scroll_height"":918,""window_innerWidth"":945,""window_innerHeight"":966,""devicePixelRatio"":1}",,,,,,,,,,39142.104999809264,response,,,,,,,,,,,,,,,,,consent,click button,,,39838,39829.199999809265,670.479,867.0999999046326,687.095,39637.023,,,,{}
Demography form,html.Form,1,2023-11-30T18:50:57.540Z,,,18,,,,,,,,6017.276999952315,form submission,,,,,,,,,female,,,,,,,,,,,,45654.5,45654.299999952316,39620.599,39838.199999809265,39637.023,45470.542,,,,
Welcome,html.Screen,2,2023-11-30T18:51:37.100Z,,,,,,,"[""asym"",""col""]",,,,39742.257999952315,response,,,,,,,,,,,,,,,,,continue,click button,,,85213.29999995232,85212.79999995232,45453.662,45654.59999990463,45470.542,85036.879,,,,
demo_instructions,html.Screen,3,2023-11-30T18:52:02.732Z,,,,,,,,,,,25808.22099990463,response,,,,,,,,,,,,,,,,,continue,click button,,,110845.5,110845.09999990463,85020.228,85213.39999985695,85036.879,110653.482,,,,
trial,html.Screen,4_0_0,2023-11-30T18:52:14.546Z,,,,0,-1.1407514641016443,-1.280017651202714,,,true,hh,12005.317999952313,response,1.1727618800748076,1.2,-1.2,1.0636787813411093,1.2,-1.2,high,high,,ISIC_0072507.JPG,,ISIC_9690371.JPG,,25,true,0.15000000000000002,hh,keypress(i),100,false,122659.29999995232,122658.79999995232,110637.058,110845.59999990463,110653.482,122486.797,1,16,1,
sequence,flow.Sequence,4_0,2023-11-30T18:52:14.568Z,,,,,,,,,,,12005.317999952313,completion,,,,,,,high,high,,,,,,,true,,,,,false,122680.79999995232,122658.79999995232,110637.058,110845.59999990463,110653.482,122486.797,1,16,,
trial,html.Screen,4_1_0,2023-11-30T18:52:20.114Z,,,,0,-1.2289750544294995,-1.3003764624334877,,,true,hh,5739.702999999994,response,1.073296525451802,1.2,-1.2,1.3454282740421717,1.2,-1.2,high,high,,ISIC_0054167.JPG,,ISIC_5787312.JPG,,25,true,0.15000000000000002,hh,keypress(i),100,false,128226.69999980927,128226.5,122470.186,122680.89999985695,122486.797,128053.416,1,16,2,
sequence,flow.Sequence,4_1,2023-11-30T18:52:20.114Z,,,,,,,,,,,5739.702999999994,completion,,,,,,,high,high,,,,,,,true,,,,,false,128227.09999990463,128226.5,122470.186,122680.79999995232,122486.797,128053.416,1,16,,
trial,html.Screen,4_2_0,2023-11-30T18:52:22.508Z,,,,0,-1.1227373144244253,-1.1886610799377713,,,true,hh,2567.383999952319,response,1.2200968917423711,1.2,-1.2,1.3183466064109373,1.2,-1.2,high,high,,ISIC_0059506.JPG,,ISIC_3624318.JPG,,25,true,0.15000000000000002,hh,keypress(i),100,false,130621.29999995232,130620.79999995232,128036.813,128227.29999995232,128053.416,130436.771,1,16,3,
sequence,flow.Sequence,4_2,2023-11-30T18:52:22.509Z,,,,,,,,,,,2567.383999952319,completion,,,,,,,high,high,,,,,,,true,,,,,false,130622,130620.79999995232,128036.813,128227.19999980927,128053.416,130436.771,1,16,,
trial,html.Screen,4_3_0,2023-11-30T18:52:27.934Z,,,,0,-1.2315945866020412,-1.13226141421557,,,true,hh,5609.729000000007,response,1.1638334638021437,1.2,-1.2,1.0846635401396965,1.2,-1.2,high,high,,ISIC_0033595.JPG,,ISIC_4718313.JPG,,25,true,0.15000000000000002,hh,keypress(i),100,false,136047.09999990463,136046.5,130420.161,130622.29999995232,130436.771,135870.209,1,16,4,
sequence,flow.Sequence,4_3,2023-11-30T18:52:27.935Z,,,,,,,,,,,5609.729000000007,completion,,,,,,,high,high,,,,,,,true,,,,,false,136047.69999980927,136046.5,130420.161,130622.19999980927,130436.771,135870.209,1,16,,
trial,html.Screen,4_4_0,2023-11-30T18:52:34.560Z,,,,0,1.053007132776416,1.341217082060068,,,true,ll,6801.89099990463,response,-1.1126049058422398,1.2,-1.2,-1.2305421124063929,1.2,-1.2,low,low,,ISIC_0024208.JPG,,ISIC_0071536.JPG,,27,true,0.12,ll,keypress(f),100,false,142672.59999990463,142672.09999990463,135853.504,136048,135870.209,142486.757,1,16,5,
sequence,flow.Sequence,4_4,2023-11-30T18:52:34.560Z,,,,,,,,,,,6801.89099990463,completion,,,,,,,low,low,,,,,,,true,,,,,false,142673.29999995232,142672.09999990463,135853.504,136047.79999995232,135870.209,142486.757,1,16,,
trial,html.Screen,4_5_0,2023-11-30T18:52:36.899Z,,,,0,1.1510001454240106,1.132540312667795,,,true,ll,2524.3429999046202,response,-1.3271122559811526,1.2,-1.2,-1.292001792497521,1.2,-1.2,low,low,,ISIC_0009959.JPG,,ISIC_0065181.JPG,,41,true,0.15000000000000002,ll,keypress(f),100,false,145011.5,145011.09999990463,142470.159,142673.5,142486.757,144836.794,1,16,6,
sequence,flow.Sequence,4_5,2023-11-30T18:52:36.899Z,,,,,,,,,,,2524.3429999046202,completion,,,,,,,low,low,,,,,,,true,,,,,false,145011.89999985695,145011.09999990463,142470.159,142673.5,142486.757,144836.794,1,16,,
trial,html.Screen,4_6_0,2023-11-30T18:52:39.203Z,,,,0,1.204229955025689,1.0874249761617445,,,true,ll,2478.7060000000056,response,-1.3271122559811526,1.2,-1.2,-1.292001792497521,1.2,-1.2,low,low,,ISIC_0056930.JPG,,ISIC_0065181.JPG,,41,true,0.15000000000000002,ll,keypress(f),100,false,147315.89999985695,147315.5,144820.166,145012.09999990463,144836.794,147136.851,1,16,7,
sequence,flow.Sequence,4_6,2023-11-30T18:52:39.204Z,,,,,,,,,,,2478.7060000000056,completion,,,,,,,low,low,,,,,,,true,,,,,false,147316.5,147315.5,144820.166,145012,144836.794,147136.851,1,16,,
trial,html.Screen,4_7_0,2023-11-30T18:52:41.619Z,,,,0,1.1638334638021437,1.0846635401396965,,,true,ll,2594.7489999046375,response,-1.2232482867978696,1.2,-1.2,-1.2451219760556858,1.2,-1.2,low,low,,ISIC_4718313.JPG,,ISIC_0030889.JPG,,41,true,0.15000000000000002,ll,keypress(f),100,false,149731.89999985695,149731.59999990463,147120.113,147316.69999980927,147136.851,149553.348,1,16,8,
sequence,flow.Sequence,4_7,2023-11-30T18:52:41.619Z,,,,,,,,,,,2594.7489999046375,completion,,,,,,,low,low,,,,,,,true,,,,,false,149732.39999985695,149731.59999990463,147120.113,147316.59999990463,147136.851,149553.348,1,16,,
trial,html.Screen,4_8_0,2023-11-30T18:52:45.830Z,,,,0,1.2615315960773072,-1.194084675079932,,,true,lh,4389.351999809267,response,-1.2704198237183777,1.2,-1.2,1.138121072015301,1.2,-1.2,low,high,,ISIC_0010044.JPG,,ISIC_0501843.JPG,,26,true,0.3300000000000002,lh,keypress(e),100,false,153942.89999985695,153942.69999980927,149536.788,149732.5,149553.348,153770.207,1,16,9,
sequence,flow.Sequence,4_8,2023-11-30T18:52:45.830Z,,,,,,,,,,,4389.351999809267,completion,,,,,,,low,high,,,,,,,true,,,,,false,153943.09999990463,153942.69999980927,149536.788,149732.5,149553.348,153770.207,1,16,,
trial,html.Screen,4_9_0,2023-11-30T18:52:49.073Z,,,,0,0.8779374983479176,-0.9745548032823428,,,true,lh,3415.0929999523214,response,-0.8407642478899736,1.2,-1.2,0.9542322753334054,1.2,-1.2,low,high,,ISIC_2991354.JPG,,ISIC_9090822.JPG,,33,true,0.3600000000000002,lh,keypress(e),100,false,157185.59999990463,157185.29999995232,153753.56,153943.19999980927,153770.207,157003.62,1,16,10,
sequence,flow.Sequence,4_9,2023-11-30T18:52:49.073Z,,,,,,,,,,,3415.0929999523214,completion,,,,,,,low,high,,,,,,,true,,,,,false,157186,157185.29999995232,153753.56,153943.19999980927,153770.207,157003.62,1,16,,
trial,html.Screen,4_10_0,2023-11-30T18:53:11.487Z,,,,0,0.9039158082670506,-1.0517562064343149,,,true,lh,22595.279999856954,response,-1.1547137855907486,1.2,-1.2,1.0185275168641534,1.2,-1.2,low,high,,ISIC_0015411.JPG,,ISIC_7604870.JPG,,33,true,0.3600000000000002,lh,keypress(e),100,false,179599.29999995232,179598.89999985695,156986.704,157186.19999980927,157003.62,179420.035,1,16,11,
sequence,flow.Sequence,4_10,2023-11-30T18:53:11.488Z,,,,,,,,,,,22595.279999856954,completion,,,,,,,low,high,,,,,,,true,,,,,false,179599.69999980927,179598.89999985695,156986.704,157186.09999990463,157003.62,179420.035,1,16,,
trial,html.Screen,4_11_0,2023-11-30T18:53:14.164Z,,,,0,1.4748095371445096,-0.9579010801034902,,,true,lh,2855.9649999999965,response,-1.2463522959513311,1.2,-1.2,0.8691422647859491,1.2,-1.2,low,high,,ISIC_0033216.JPG,,ISIC_0057192.JPG,,33,true,0.3600000000000002,lh,keypress(e),100,false,182276.39999985695,182276,179403.342,179600,179420.035,182103.267,1,16,12,
sequence,flow.Sequence,4_11,2023-11-30T18:53:14.165Z,,,,,,,,,,,2855.9649999999965,completion,,,,,,,low,high,,,,,,,true,,,,,false,182277,182276,179403.342,179600,179420.035,182103.267,1,16,,
trial,html.Screen,4_12_0,2023-11-30T18:53:29.473Z,,,,0,-1.2609895831255231,1.0687377724194886,,,true,hl,15481.532999952324,response,1.11329866545753,1.2,-1.2,-1.2155631217348757,1.2,-1.2,high,low,,ISIC_1367610.JPG,,ISIC_0032610.JPG,,29,true,0.3600000000000002,hl,keypress(j),100,false,197585.19999980927,197584.79999995232,182086.645,182277.19999980927,182103.267,197403.225,1,16,13,
sequence,flow.Sequence,4_12,2023-11-30T18:53:29.474Z,,,,,,,,,,,15481.532999952324,completion,,,,,,,high,low,,,,,,,true,,,,,false,197585.79999995232,197584.79999995232,182086.645,182277.19999980927,182103.267,197403.225,1,16,,
trial,html.Screen,4_13_0,2023-11-30T18:53:34.533Z,,,,0,-0.9212323139676136,0.9882196642247332,,,true,hl,5241.5749999523105,response,0.9013888878932071,1.2,-1.2,-0.9328095253308732,1.2,-1.2,high,low,,ISIC_0014255.JPG,,ISIC_0068259.JPG,,29,true,0.3600000000000002,hl,keypress(j),100,false,202645.09999990463,202644.79999995232,197386.625,197586,197403.225,202469.93,1,16,14,
sequence,flow.Sequence,4_13,2023-11-30T18:53:34.534Z,,,,,,,,,,,5241.5749999523105,completion,,,,,,,high,low,,,,,,,true,,,,,false,202645.69999980927,202644.79999995232,197386.625,197586,197403.225,202469.93,1,16,,
trial,html.Screen,4_14_0,2023-11-30T18:53:37.974Z,,,,0,-0.8787496315223856,1.3680901203013998,,,true,hl,3616.269999809272,response,1.1890109863264902,1.2,-1.2,-0.8867825318561365,1.2,-1.2,high,low,,ISIC_0023811.JPG,,ISIC_0072576.JPG,,29,true,0.3600000000000002,hl,keypress(j),100,false,206086.29999995232,206086.19999980927,202453.31,202645.89999985695,202469.93,205903.477,1,16,15,
sequence,flow.Sequence,4_14,2023-11-30T18:53:37.975Z,,,,,,,,,,,3616.269999809272,completion,,,,,,,high,low,,,,,,,true,,,,,false,206086.59999990463,206086.19999980927,202453.31,202645.79999995232,202469.93,205903.477,1,16,,
trial,html.Screen,4_15_0,2023-11-30T18:53:41.686Z,,,,0,-0.8709576717420565,1.2795156779072283,,,true,hl,3894.0229999999865,response,0.8591294258188253,1.2,-1.2,-0.870797302150167,1.2,-1.2,high,low,,ISIC_1925632.JPG,,ISIC_0055841.JPG,,29,true,0.3600000000000002,hl,keypress(j),100,false,209797.79999995232,209797.5,205886.542,206086.69999980927,205903.477,209619.888,1,16,16,
sequence,flow.Sequence,4_15,2023-11-30T18:53:41.686Z,,,,,,,,,,,3894.0229999999865,completion,,,,,,,high,low,,,,,,,true,,,,,false,209798.29999995232,209797.5,205886.542,206086.69999980927,205903.477,209619.888,1,16,,
demonstration_loop,flow.Loop,4,2023-11-30T18:53:41.687Z,,,,,,,,,,,99144.018,completion,,,,,,,,,,,,,,,true,,,,,false,209798.59999990463,209797.5,110637.058,110845.59999990463,110653.482,209619.888,1,16,,
practice_instructions,html.Screen,5,2023-11-30T18:54:30.462Z,,,,,,,,,,,48944.711999904626,response,,,,,,,,,,,,,,,,,continue,click button,,,258573.09999990463,258564.59999990463,209603.311,209798.79999995232,209619.888,258386.412,,,,
trial,html.Screen,6_0_0,2023-11-30T18:54:46.286Z,,,,1,1.3559315773956395,-0.924768326187701,,,,,15816.599999999977,timeout,-1.0748728054622358,1.2,-1.2,1.2840853987892311,1.2,-1.2,low,high,,ISIC_5101111.JPG,,ISIC_0059219.JPG,,26,true,0.3300000000000002,,,0,false,274397.2999999523,274397.19999980927,258353.113,258573.19999980927,258386.412,274203.012,1,40,1,
sequence,flow.Sequence,6_0,2023-11-30T18:54:46.287Z,,,,,,,,,,,16010.787999809254,completion,,,,,,,low,high,,,,,,,true,,,,,false,274397.5,274397.19999980927,258353.113,258573.19999980927,258386.412,274203.012,1,40,,
trial,html.Screen,6_1_0,2023-11-30T18:54:52.550Z,,,,1,-1.155796217969438,1.1646564121743912,,,true,hl,6457.988000000012,response,0.9039158082670506,1.2,-1.2,-1.0517562064343149,1.2,-1.2,high,low,,ISIC_2685523.JPG,,ISIC_0015411.JPG,,29,true,0.3600000000000002,hl,keypress(j),0,false,280661.09999990463,280661,274186.582,274397.5,274203.012,280486.423,1,40,2,
sequence,flow.Sequence,6_1,2023-11-30T18:54:52.550Z,,,,,,,,,,,6457.988000000012,completion,,,,,,,high,low,,,,,,,true,,,,,false,280661.19999980927,280661,274186.582,274397.5,274203.012,280486.423,1,40,,
trial,html.Screen,6_2_0,2023-11-30T18:54:56.600Z,,,,1,-1.1715181192107684,-1.2251845559044463,,,true,hh,4223.8769999523065,response,1.0008138976134489,1.2,-1.2,1.292636741787064,1.2,-1.2,high,high,,ISIC_0011957.JPG,,ISIC_6000407.JPG,,127,true,0.3300000000000002,hh,keypress(i),0,false,284710.5,284710.2999999523,280470.25,280661.2999999523,280486.423,284519.665,1,40,3,
sequence,flow.Sequence,6_2,2023-11-30T18:54:56.600Z,,,,,,,,,,,4223.8769999523065,completion,,,,,,,high,high,,,,,,,true,,,,,false,284710.89999985695,284710.2999999523,280470.25,280661.2999999523,280486.423,284519.665,1,40,,
trial,html.Screen,6_3_0,2023-11-30T18:55:00.055Z,,,,1,-1.2609895831255231,1.0687377724194886,,,true,hl,3645.73499985697,response,0.8534691366511764,1.2,-1.2,-1.276663727068437,1.2,-1.2,high,low,,ISIC_1367610.JPG,,ISIC_0056788.JPG,,29,true,0.3600000000000002,hl,keypress(j),0,false,288165.39999985695,288165.39999985695,284503.019,284711.19999980927,284519.665,287969.639,1,40,4,
sequence,flow.Sequence,6_3,2023-11-30T18:55:00.055Z,,,,,,,,,,,3645.73499985697,completion,,,,,,,high,low,,,,,,,true,,,,,false,288165.5,288165.39999985695,284503.019,284711.19999980927,284519.665,287969.639,1,40,,
trial,html.Screen,6_4_0,2023-11-30T18:55:05.985Z,,,,1,1.3411487193830047,-1.198640448317381,,,true,lh,6125.860999999975,response,-0.8787496315223856,1.2,-1.2,1.3680901203013998,1.2,-1.2,low,high,,ISIC_3093026.JPG,,ISIC_0023811.JPG,,26,true,0.3300000000000002,lh,keypress(e),0,false,294095.7999999523,294095.5,287953.092,288165.5,287969.639,293902.975,1,40,5,
sequence,flow.Sequence,6_4,2023-11-30T18:55:05.985Z,,,,,,,,,,,6125.860999999975,completion,,,,,,,low,high,,,,,,,true,,,,,false,294096.19999980927,294095.5,287953.092,288165.5,287969.639,293902.975,1,40,,
trial,html.Screen,6_5_0,2023-11-30T18:55:10.937Z,,,,1,-1.2704198237183777,1.138121072015301,,,true,hl,5144.624999904656,response,1.064425982109969,1.2,-1.2,-0.958564243697126,1.2,-1.2,high,low,,ISIC_0501843.JPG,,ISIC_3203344.JPG,,29,true,0.3600000000000002,hl,keypress(j),0,false,299047.7999999523,299047.59999990463,293886.216,294096.39999985695,293902.975,298853.035,1,40,6,
sequence,flow.Sequence,6_5,2023-11-30T18:55:10.937Z,,,,,,,,,,,5144.624999904656,completion,,,,,,,high,low,,,,,,,true,,,,,false,299048.2999999523,299047.59999990463,293886.216,294096.39999985695,293902.975,298853.035,1,40,,
trial,html.Screen,6_6_0,2023-11-30T18:55:16.336Z,,,,1,0.9385447468573198,-1.2289860846064424,,,true,lh,5593.764999952342,response,-0.9670240379618178,1.2,-1.2,1.1806404773220665,1.2,-1.2,low,high,,ISIC_0032780.JPG,,ISIC_0002288.JPG,,26,true,0.3300000000000002,lh,keypress(e),0,false,304447.09999990463,304446.7999999523,298836.421,299048.39999985695,298853.035,304252.902,1,40,7,
sequence,flow.Sequence,6_6,2023-11-30T18:55:16.337Z,,,,,,,,,,,5593.764999952342,completion,,,,,,,low,high,,,,,,,true,,,,,false,304447.39999985695,304446.7999999523,298836.421,299048.39999985695,298853.035,304252.902,1,40,,
trial,html.Screen,6_7_0,2023-11-30T18:55:22.145Z,,,,1,-1.1392234684115472,-1.3198277407683998,,,true,hh,6002.597999999998,response,0.9112756881807856,1.2,-1.2,0.87743267531148,1.2,-1.2,high,high,,ISIC_0071875.JPG,,ISIC_0000387.JPG,,157,true,0.3600000000000002,hh,keypress(i),0,false,310255.7999999523,310255.5,304236.365,304447.59999990463,304252.902,310069.601,1,40,8,
sequence,flow.Sequence,6_7,2023-11-30T18:55:22.145Z,,,,,,,,,,,6002.597999999998,completion,,,,,,,high,high,,,,,,,true,,,,,false,310256.19999980927,310255.5,304236.365,304447.59999990463,304252.902,310069.601,1,40,,
trial,html.Screen,6_8_0,2023-11-30T18:55:29.527Z,,,,1,1.1890109863264902,-0.8867825318561365,,,true,lh,7568.098999809241,response,-1.2609895831255231,1.2,-1.2,1.0687377724194886,1.2,-1.2,low,high,,ISIC_0072576.JPG,,ISIC_1367610.JPG,,26,true,0.3300000000000002,lh,keypress(e),0,false,317637.89999985695,317637.69999980927,310052.996,310256.2999999523,310069.601,317453.355,1,40,9,
sequence,flow.Sequence,6_8,2023-11-30T18:55:29.527Z,,,,,,,,,,,7568.098999809241,completion,,,,,,,low,high,,,,,,,true,,,,,false,317638,317637.69999980927,310052.996,310256.2999999523,310069.601,317453.355,1,40,,
trial,html.Screen,6_9_0,2023-11-30T18:55:33.441Z,,,,1,-1.2872758518949912,-1.313723254903214,,,true,hh,4097.244999904651,response,1.527180138517639,1.2,-1.2,1.3543995271489262,1.2,-1.2,high,high,,ISIC_0064376.JPG,,ISIC_3190566.JPG,,157,true,0.3600000000000002,hh,keypress(i),0,false,321550.89999985695,321550.59999990463,317419.579,317638,317453.355,321369.567,1,40,10,
sequence,flow.Sequence,6_9,2023-11-30T18:55:33.441Z,,,,,,,,,,,4097.244999904651,completion,,,,,,,high,high,,,,,,,true,,,,,false,321551.2999999523,321550.59999990463,317419.579,317638,317453.355,321369.567,1,40,,
trial,html.Screen,6_10_0,2023-11-30T18:55:40.089Z,,,,1,1.411763789273233,-1.0057734478347988,,,true,lh,6829.232999952335,response,-1.2609895831255231,1.2,-1.2,1.0687377724194886,1.2,-1.2,low,high,,ISIC_0027235.JPG,,ISIC_1367610.JPG,,26,true,0.3300000000000002,lh,keypress(e),0,false,328199,328198.7999999523,321336.376,321551.59999990463,321369.567,328002.881,1,40,11,
sequence,flow.Sequence,6_10,2023-11-30T18:55:40.089Z,,,,,,,,,,,6829.232999952335,completion,,,,,,,low,high,,,,,,,true,,,,,false,328199.39999985695,328198.7999999523,321336.376,321551.5,321369.567,328002.881,1,40,,
trial,html.Screen,6_11_0,2023-11-30T18:55:47.578Z,,,,1,1.1604734171556077,1.0789312625280616,,,true,ll,7684.818999809271,response,-0.8471355550006346,1.2,-1.2,-0.9005344308932209,1.2,-1.2,low,low,,ISIC_3950753.JPG,,ISIC_0025744.JPG,,249,true,0.3600000000000002,ll,keypress(f),0,false,335687.89999985695,335687.69999980927,327986.302,328199.59999990463,328002.881,335502.838,1,40,12,
sequence,flow.Sequence,6_11,2023-11-30T18:55:47.578Z,,,,,,,,,,,7684.818999809271,completion,,,,,,,low,low,,,,,,,true,,,,,false,335688.2999999523,335687.69999980927,327986.302,328199.59999990463,328002.881,335502.838,1,40,,
trial,html.Screen,6_12_0,2023-11-30T18:55:52.135Z,,,,1,-1.0700930503975157,0.923753102263735,,,true,hl,4742.261999904644,response,0.8779374983479176,1.2,-1.2,-0.9745548032823428,1.2,-1.2,high,low,,ISIC_0000022.JPG,,ISIC_2991354.JPG,,29,true,0.3600000000000002,hl,keypress(j),0,false,340245.2999999523,340245.09999990463,335485.944,335688.69999980927,335502.838,340052.867,1,40,13,
sequence,flow.Sequence,6_12,2023-11-30T18:55:52.135Z,,,,,,,,,,,4742.261999904644,completion,,,,,,,high,low,,,,,,,true,,,,,false,340245.39999985695,340245.09999990463,335485.944,335688.69999980927,335502.838,340052.867,1,40,,
trial,html.Screen,6_13_0,2023-11-30T18:55:57.178Z,,,,1,-1.0748728054622358,1.2840853987892311,,,true,hl,5234.6329999999725,response,1.4727776799485246,1.2,-1.2,-0.8779113138076752,1.2,-1.2,high,low,,ISIC_0059219.JPG,,ISIC_0033074.JPG,,29,true,0.3600000000000002,hl,keypress(j),0,false,345287.69999980927,345287.5,340036.32,340245.5,340052.867,345102.849,1,40,14,
sequence,flow.Sequence,6_13,2023-11-30T18:55:57.178Z,,,,,,,,,,,5234.6329999999725,completion,,,,,,,high,low,,,,,,,true,,,,,false,345288.19999980927,345287.5,340036.32,340245.5,340052.867,345102.849,1,40,,
trial,html.Screen,6_14_0,2023-11-30T18:56:01.881Z,,,,1,1.3559315773956395,-0.924768326187701,,,true,lh,4887.550999856961,response,-1.0961318727760048,1.2,-1.2,1.2134960228256146,1.2,-1.2,low,high,,ISIC_5101111.JPG,,ISIC_9768421.JPG,,26,true,0.3300000000000002,lh,keypress(e),0,false,349990.59999990463,349990.39999985695,345086.019,345288.2999999523,345102.849,349802.836,1,40,15,
sequence,flow.Sequence,6_14,2023-11-30T18:56:01.881Z,,,,,,,,,,,4887.550999856961,completion,,,,,,,low,high,,,,,,,true,,,,,false,349991.09999990463,349990.39999985695,345086.019,345288.2999999523,345102.849,349802.836,1,40,,
trial,html.Screen,6_15_0,2023-11-30T18:56:05.778Z,,,,1,0.9013888878932071,-0.9328095253308732,,,true,lh,4084.7639999046223,response,-1.0822170028935367,1.2,-1.2,1.1654796154432183,1.2,-1.2,low,high,,ISIC_0068259.JPG,,ISIC_7288818.JPG,,33,true,0.3600000000000002,lh,keypress(e),0,false,353887.89999985695,353887.59999990463,349786.266,349991.19999980927,349802.836,353702.995,1,40,16,
sequence,flow.Sequence,6_15,2023-11-30T18:56:05.778Z,,,,,,,,,,,4084.7639999046223,completion,,,,,,,low,high,,,,,,,true,,,,,false,353888.2999999523,353887.59999990463,349786.266,349991.19999980927,349802.836,353702.995,1,40,,
trial,html.Screen,6_16_0,2023-11-30T18:56:10.745Z,,,,1,1.1363600109870835,1.295816345369928,,,true,ll,5151.604999904637,response,-1.109729032348591,1.2,-1.2,-0.9587230726994566,1.2,-1.2,low,low,,ISIC_0026141.JPG,,ISIC_0055289.JPG,,249,true,0.3600000000000002,ll,keypress(f),0,false,358854.89999985695,358854.59999990463,353686.221,353888.39999985695,353702.995,358669.709,1,40,17,
sequence,flow.Sequence,6_16,2023-11-30T18:56:10.745Z,,,,,,,,,,,5151.604999904637,completion,,,,,,,low,low,,,,,,,true,,,,,false,358855.2999999523,358854.59999990463,353686.221,353888.39999985695,353702.995,358669.709,1,40,,
trial,html.Screen,6_17_0,2023-11-30T18:56:16.921Z,,,,1,-1.152619213055059,-1.2957497771092716,,,true,hh,6361.190999856975,response,1.294521945180264,1.2,-1.2,1.3078626540563885,1.2,-1.2,high,high,,ISIC_0061915.JPG,,ISIC_3601224.JPG,,25,true,0.15000000000000002,hh,keypress(i),0,false,365031.09999990463,365030.89999985695,358652.93,358855.5,358669.709,364836.114,1,40,18,
sequence,flow.Sequence,6_17,2023-11-30T18:56:16.921Z,,,,,,,,,,,6361.190999856975,completion,,,,,,,high,high,,,,,,,true,,,,,false,365031.19999980927,365030.89999985695,358652.93,358855.39999985695,358669.709,364836.114,1,40,,
trial,html.Screen,6_18_0,2023-11-30T18:56:21.849Z,,,,1,1.1604734171556077,1.0789312625280616,,,true,ll,5122.685999952315,response,-1.152619213055059,1.2,-1.2,-1.2957497771092716,1.2,-1.2,low,low,,ISIC_3950753.JPG,,ISIC_0061915.JPG,,27,true,0.12,ll,keypress(f),0,false,369959.09999990463,369958.7999999523,364819.487,365031.19999980927,364836.114,369769.615,1,40,19,
sequence,flow.Sequence,6_18,2023-11-30T18:56:21.849Z,,,,,,,,,,,5122.685999952315,completion,,,,,,,low,low,,,,,,,true,,,,,false,369959.5,369958.7999999523,364819.487,365031.19999980927,364836.114,369769.615,1,40,,
trial,html.Screen,6_19_0,2023-11-30T18:56:26.031Z,,,,1,1.0959058628476686,1.2921331918483707,,,true,ll,4371.584999809274,response,-1.1407514641016443,1.2,-1.2,-1.280017651202714,1.2,-1.2,low,low,,ISIC_5920470.JPG,,ISIC_0072507.JPG,,41,true,0.15000000000000002,ll,keypress(f),0,false,374141.2999999523,374141.19999980927,369752.878,369959.69999980927,369769.615,373952.784,1,40,20,
sequence,flow.Sequence,6_19,2023-11-30T18:56:26.031Z,,,,,,,,,,,4371.584999809274,completion,,,,,,,low,low,,,,,,,true,,,,,false,374141.39999985695,374141.19999980927,369752.878,369959.59999990463,369769.615,373952.784,1,40,,
trial,html.Screen,6_20_0,2023-11-30T18:56:30.538Z,,,,1,1.3471772753257971,1.055978100098093,,,true,ll,4693.8159999046475,response,-1.2872758518949912,1.2,-1.2,-1.313723254903214,1.2,-1.2,low,low,,ISIC_2077116.JPG,,ISIC_0064376.JPG,,41,true,0.15000000000000002,ll,keypress(f),0,false,378647,378646.59999990463,373935.949,374141.5,373952.784,378452.749,1,40,21,
sequence,flow.Sequence,6_20,2023-11-30T18:56:30.538Z,,,,,,,,,,,4693.8159999046475,completion,,,,,,,low,low,,,,,,,true,,,,,false,378647.39999985695,378646.59999990463,373935.949,374141.5,373952.784,378452.749,1,40,,
trial,html.Screen,6_21_0,2023-11-30T18:56:34.890Z,,,,1,-1.2055236989581275,-1.1960893075698802,,,true,hh,4545.650999856938,response,1.0581281450494728,1.2,-1.2,1.133169116569424,1.2,-1.2,high,high,,ISIC_0072393.JPG,,ISIC_5490352.JPG,,25,true,0.15000000000000002,hh,keypress(i),0,false,382998.69999980927,382998.39999985695,378436.053,378647.59999990463,378452.749,382819.384,1,40,22,
sequence,flow.Sequence,6_21,2023-11-30T18:56:34.890Z,,,,,,,,,,,4545.650999856938,completion,,,,,,,high,high,,,,,,,true,,,,,false,382999.19999980927,382998.39999985695,378436.053,378647.5,378452.749,382819.384,1,40,,
trial,html.Screen,6_22_0,2023-11-30T18:56:39.466Z,,,,1,-0.8709576717420565,1.2795156779072283,,,true,hl,4755.11599999998,response,1.1890109863264902,1.2,-1.2,-0.8867825318561365,1.2,-1.2,high,low,,ISIC_1925632.JPG,,ISIC_0072576.JPG,,29,true,0.3600000000000002,hl,keypress(j),0,false,387574.7999999523,387574.5,382785.987,382999.5,382819.384,387386.093,1,40,23,
sequence,flow.Sequence,6_22,2023-11-30T18:56:39.466Z,,,,,,,,,,,4755.11599999998,completion,,,,,,,high,low,,,,,,,true,,,,,false,387575.19999980927,387574.5,382785.987,382999.5,382819.384,387386.093,1,40,,
trial,html.Screen,6_23_0,2023-11-30T18:56:45.273Z,,,,1,0.8779374983479176,-0.9745548032823428,,,true,lh,5995.606999809272,response,-1.0345332538240786,1.2,-1.2,1.4719115945084815,1.2,-1.2,low,high,,ISIC_2991354.JPG,,ISIC_0192490.JPG,,26,true,0.3300000000000002,lh,keypress(e),0,false,393381.89999985695,393381.69999980927,387369.473,387575.2999999523,387386.093,393186.045,1,40,24,
sequence,flow.Sequence,6_23,2023-11-30T18:56:45.273Z,,,,,,,,,,,5995.606999809272,completion,,,,,,,low,high,,,,,,,true,,,,,false,393382.19999980927,393381.69999980927,387369.473,387575.2999999523,387386.093,393186.045,1,40,,
trial,html.Screen,6_24_0,2023-11-30T18:56:51.241Z,,,,1,-1.2704198237183777,1.138121072015301,,,true,hl,6164.254999952333,response,0.8479396253253069,1.2,-1.2,-1.011054319516718,1.2,-1.2,high,low,,ISIC_0501843.JPG,,ISIC_0063521.JPG,,29,true,0.3600000000000002,hl,keypress(j),0,false,399350.5,399350.2999999523,393169.2,393382.2999999523,393186.045,399152.66,1,40,25,
sequence,flow.Sequence,6_24,2023-11-30T18:56:51.242Z,,,,,,,,,,,6164.254999952333,completion,,,,,,,high,low,,,,,,,true,,,,,false,399351,399350.2999999523,393169.2,393382.2999999523,393186.045,399152.66,1,40,,
trial,html.Screen,6_25_0,2023-11-30T18:56:55.435Z,,,,1,-0.8787496315223856,1.3680901203013998,,,true,hl,4390.840000000026,response,0.8534691366511764,1.2,-1.2,-1.276663727068437,1.2,-1.2,high,low,,ISIC_0023811.JPG,,ISIC_0056788.JPG,,29,true,0.3600000000000002,hl,keypress(j),0,false,403543.7999999523,403543.5,399136.046,399351.09999990463,399152.66,403352.644,1,40,26,
sequence,flow.Sequence,6_25,2023-11-30T18:56:55.435Z,,,,,,,,,,,4390.840000000026,completion,,,,,,,high,low,,,,,,,true,,,,,false,403544.19999980927,403543.5,399136.046,399351,399152.66,403352.644,1,40,,
trial,html.Screen,6_26_0,2023-11-30T18:57:00.768Z,,,,1,-1.2974483548597415,-1.2071506593281005,,,true,hh,5524.856000000029,response,1.337727324390105,1.2,-1.2,0.991130212635482,1.2,-1.2,high,high,,ISIC_0011007.JPG,,ISIC_9596388.JPG,,127,true,0.3300000000000002,hh,keypress(i),0,false,408877.5,408877.5,403336.108,403544.2999999523,403352.644,408686.016,1,40,27,
sequence,flow.Sequence,6_26,2023-11-30T18:57:00.769Z,,,,,,,,,,,5524.856000000029,completion,,,,,,,high,high,,,,,,,true,,,,,false,408877.69999980927,408877.5,403336.108,403544.2999999523,403352.644,408686.016,1,40,,
trial,html.Screen,6_27_0,2023-11-30T18:57:05.880Z,,,,1,1.1510001454240106,1.132540312667795,,,true,ll,5303.283999952313,response,-1.1474466950560966,1.2,-1.2,-1.173734476257662,1.2,-1.2,low,low,,ISIC_0009959.JPG,,ISIC_5216586.JPG,,27,true,0.12,ll,keypress(f),0,false,413989.39999985695,413989.2999999523,408669.337,408877.7999999523,408686.016,413802.689,1,40,28,
sequence,flow.Sequence,6_27,2023-11-30T18:57:05.880Z,,,,,,,,,,,5303.283999952313,completion,,,,,,,low,low,,,,,,,true,,,,,false,413989.59999990463,413989.2999999523,408669.337,408877.69999980927,408686.016,413802.689,1,40,,
trial,html.Screen,6_28_0,2023-11-30T18:57:10.546Z,,,,1,-1.1894733304494307,-1.1169761866204877,,,true,hh,4852.610999952303,response,1.073296525451802,1.2,-1.2,1.3454282740421717,1.2,-1.2,high,high,,ISIC_0033813.JPG,,ISIC_5787312.JPG,,25,true,0.15000000000000002,hh,keypress(i),0,false,418655.59999990463,418655.2999999523,413786.071,413989.59999990463,413802.689,418469.305,1,40,29,
sequence,flow.Sequence,6_28,2023-11-30T18:57:10.547Z,,,,,,,,,,,4852.610999952303,completion,,,,,,,high,high,,,,,,,true,,,,,false,418656,418655.2999999523,413786.071,413989.59999990463,413802.689,418469.305,1,40,,
trial,html.Screen,6_29_0,2023-11-30T18:57:16.554Z,,,,1,0.9039158082670506,-1.0517562064343149,,,true,lh,6193.994999952323,response,-0.8709576717420565,1.2,-1.2,1.2795156779072283,1.2,-1.2,low,high,,ISIC_0015411.JPG,,ISIC_1925632.JPG,,26,true,0.3300000000000002,lh,keypress(e),0,false,424663.5,424663.2999999523,418452.745,418656.2999999523,418469.305,424469.258,1,40,30,
sequence,flow.Sequence,6_29,2023-11-30T18:57:16.555Z,,,,,,,,,,,6193.994999952323,completion,,,,,,,low,high,,,,,,,true,,,,,false,424663.89999985695,424663.2999999523,418452.745,418656.19999980927,418469.305,424469.258,1,40,,
trial,html.Screen,6_30_0,2023-11-30T18:57:21.058Z,,,,1,1.3411487193830047,-1.198640448317381,,,true,lh,4697.041999952344,response,-1.2609895831255231,1.2,-1.2,1.0687377724194886,1.2,-1.2,low,high,,ISIC_3093026.JPG,,ISIC_1367610.JPG,,33,true,0.3600000000000002,lh,keypress(e),0,false,429166.69999980927,429166.2999999523,424452.651,424664.09999990463,424469.258,428969.272,1,40,31,
sequence,flow.Sequence,6_30,2023-11-30T18:57:21.058Z,,,,,,,,,,,4697.041999952344,completion,,,,,,,low,high,,,,,,,true,,,,,false,429167,429166.2999999523,424452.651,424664.09999990463,424469.258,428969.272,1,40,,
trial,html.Screen,6_31_0,2023-11-30T18:57:24.002Z,,,,1,-1.1407514641016443,-1.280017651202714,,,false,hh,3141.728000000003,response,0.8479744227240601,1.2,-1.2,1.0203856528186417,1.2,-1.2,high,high,,ISIC_0072507.JPG,,ISIC_3392451.JPG,,157,true,0.3600000000000002,lh,keypress(e),0,false,432111.19999980927,432111,428952.71,429167.19999980927,428969.272,431919.329,1,40,32,
sequence,flow.Sequence,6_31,2023-11-30T18:57:24.003Z,,,,,,,,,,,3141.728000000003,completion,,,,,,,high,high,,,,,,,true,,,,,false,432111.59999990463,432111,428952.71,429167.09999990463,428969.272,431919.329,1,40,,
trial,html.Screen,6_32_0,2023-11-30T18:57:30.250Z,,,,1,1.1363600109870835,1.295816345369928,,,true,ll,6438.970999952289,response,-1.2232482867978696,1.2,-1.2,-1.2451219760556858,1.2,-1.2,low,low,,ISIC_0026141.JPG,,ISIC_0030889.JPG,,27,true,0.12,ll,keypress(f),0,false,438358.59999990463,438358.2999999523,431902.569,432111.7999999523,431919.329,438169.404,1,40,33,
sequence,flow.Sequence,6_32,2023-11-30T18:57:30.251Z,,,,,,,,,,,6438.970999952289,completion,,,,,,,low,low,,,,,,,true,,,,,false,438359,438358.2999999523,431902.569,432111.69999980927,431919.329,438169.404,1,40,,
trial,html.Screen,6_33_0,2023-11-30T18:57:35.369Z,,,,1,-1.2055236989581275,-1.1960893075698802,,,true,hh,5307.59600000002,response,1.1217390688497193,1.2,-1.2,1.2276600934505035,1.2,-1.2,high,high,,ISIC_0072393.JPG,,ISIC_0026344.JPG,,25,true,0.15000000000000002,hh,keypress(i),0,false,443477.09999990463,443477,438152.402,438359.19999980927,438169.404,443285.881,1,40,34,
sequence,flow.Sequence,6_33,2023-11-30T18:57:35.369Z,,,,,,,,,,,5307.59600000002,completion,,,,,,,high,high,,,,,,,true,,,,,false,443477.19999980927,443477,438152.402,438359.09999990463,438169.404,443285.881,1,40,,
trial,html.Screen,6_34_0,2023-11-30T18:57:40.499Z,,,,1,-1.0748728054622358,1.2840853987892311,,,true,hl,5321.619000000006,response,0.8494721812820843,1.2,-1.2,-1.3435429139974266,1.2,-1.2,high,low,,ISIC_0059219.JPG,,ISIC_0033585.JPG,,29,true,0.3600000000000002,hl,keypress(j),0,false,448607.69999980927,448607.5,443269.108,443477.2999999523,443285.881,448419.395,1,40,35,
sequence,flow.Sequence,6_34,2023-11-30T18:57:40.500Z,,,,,,,,,,,5321.619000000006,completion,,,,,,,high,low,,,,,,,true,,,,,false,448608.09999990463,448607.5,443269.108,443477.19999980927,443285.881,448419.395,1,40,,
trial,html.Screen,6_35_0,2023-11-30T18:57:45.659Z,,,,1,1.1655508270784471,1.1162776063248168,,,true,ll,5347.904999952298,response,-1.042500842905652,1.2,-1.2,-1.083053464502593,1.2,-1.2,low,low,,ISIC_5509946.JPG,,ISIC_0071135.JPG,,211,true,0.3300000000000002,ll,keypress(f),0,false,453767.59999990463,453767.2999999523,448402.615,448608.2999999523,448419.395,453569.204,1,40,36,
sequence,flow.Sequence,6_35,2023-11-30T18:57:45.660Z,,,,,,,,,,,5347.904999952298,completion,,,,,,,low,low,,,,,,,true,,,,,false,453768.09999990463,453767.2999999523,448402.615,448608.19999980927,448419.395,453569.204,1,40,,
trial,html.Screen,6_36_0,2023-11-30T18:57:49.899Z,,,,1,-1.1474466950560966,-1.173734476257662,,,true,hh,4437.895999904606,response,1.1655508270784471,1.2,-1.2,1.1162776063248168,1.2,-1.2,high,high,,ISIC_5216586.JPG,,ISIC_5509946.JPG,,25,true,0.15000000000000002,hh,keypress(i),0,false,458007.39999985695,458007.09999990463,453552.377,453768.2999999523,453569.204,457819.238,1,40,37,
sequence,flow.Sequence,6_36,2023-11-30T18:57:49.900Z,,,,,,,,,,,4437.895999904606,completion,,,,,,,high,high,,,,,,,true,,,,,false,458007.7999999523,458007.09999990463,453552.377,453768.19999980927,453569.204,457819.238,1,40,,
trial,html.Screen,6_37_0,2023-11-30T18:57:54.770Z,,,,1,1.1305948371148624,1.2802709447034604,,,true,ll,5058.8619999046205,response,-1.1392234684115472,1.2,-1.2,-1.3198277407683998,1.2,-1.2,low,low,,ISIC_5648111.JPG,,ISIC_0071875.JPG,,27,true,0.12,ll,keypress(f),0,false,462878.2999999523,462878.09999990463,457802.633,458008,457819.238,462685.846,1,40,38,
sequence,flow.Sequence,6_37,2023-11-30T18:57:54.770Z,,,,,,,,,,,5058.8619999046205,completion,,,,,,,low,low,,,,,,,true,,,,,false,462878.59999990463,462878.09999990463,457802.633,458007.89999985695,457819.238,462685.846,1,40,,
trial,html.Screen,6_38_0,2023-11-30T18:57:58.682Z,,,,1,-1.0822170028935367,1.1654796154432183,,,true,hl,4104.053999856929,response,1.3559315773956395,1.2,-1.2,-0.924768326187701,1.2,-1.2,high,low,,ISIC_7288818.JPG,,ISIC_5101111.JPG,,29,true,0.3600000000000002,hl,keypress(j),0,false,466790.09999990463,466789.89999985695,462669.302,462878.7999999523,462685.846,466602.53,1,40,39,
sequence,flow.Sequence,6_38,2023-11-30T18:57:58.682Z,,,,,,,,,,,4104.053999856929,completion,,,,,,,high,low,,,,,,,true,,,,,false,466790.39999985695,466789.89999985695,462669.302,462878.7999999523,462685.846,466602.53,1,40,,
trial,html.Screen,6_39_0,2023-11-30T18:58:02.433Z,,,,1,1.0885984639975343,1.2042618719491294,,,true,ll,3938.7699999522883,response,-0.985420189652684,1.2,-1.2,-0.8921028806662099,1.2,-1.2,low,low,,ISIC_0012740.JPG,,ISIC_0014982.JPG,,211,true,0.3300000000000002,ll,keypress(f),0,false,470541.39999985695,470541.2999999523,466585.962,466790.59999990463,466602.53,470352.564,1,40,40,
sequence,flow.Sequence,6_39,2023-11-30T18:58:02.433Z,,,,,,,,,,,3938.7699999522883,completion,,,,,,,low,low,,,,,,,true,,,,,false,470541.5,470541.2999999523,466585.962,466790.59999990463,466602.53,470352.564,1,40,,
practice_loop,flow.Loop,6,2023-11-30T18:58:02.433Z,,,,,,,,,,,212154.8879999523,completion,,,,,,,,,,,,,,,true,,,,,false,470541.59999990463,470541.2999999523,258353.113,258573.19999980927,258386.412,470352.564,1,40,,
stair_instructions,html.Screen,7,2023-11-30T18:58:05.448Z,,,,,,,,,,,3203.635999809252,response,,,,,,,,,,,,,,,,,continue,click button,,,473556.59999990463,473556.19999980927,470335.985,470541.59999990463,470352.564,473369.415,,,,
trial,html.Screen,8_0_0,2023-11-30T18:58:09.397Z,,,,2,-0.0023664502831079,-0.0252784582169994,,0.04,true,hh,4135.585000000021,response,1.053007132776416,1.2,-1.2,1.341217082060068,1.2,-1.2,high,high,,ISIC_4156010.JPG,,ISIC_0024208.JPG,28,25,false,0.15000000000000002,hh,keypress(i),0,true,477505.2999999523,477505,473352.567,473556.7999999523,473369.415,477319.157,1,40,1,
sequence,flow.Sequence,8_0,2023-11-30T18:58:09.398Z,,,,,,,,,,,4135.585000000021,completion,,,,,,,high,high,,,,,,,false,,,,,true,477505.69999980927,477505,473352.567,473556.69999980927,473369.415,477319.157,1,40,,
trial,html.Screen,8_1_0,2023-11-30T18:58:15.530Z,,,,2,0.0199897690678184,0.0312486875504497,,0.04,false,lh,6319.14299995231,response,-0.9046170303418553,1.15,-1.15,1.0063426986460375,1.15,-1.15,low,high,,ISIC_5482426.JPG,,ISIC_0055759.JPG,28,25,false,0.28000000000000014,ll,keypress(f),0,true,483638.59999990463,483638.2999999523,477302.528,477506,477319.157,483452.599,1,40,2,
sequence,flow.Sequence,8_1,2023-11-30T18:58:15.531Z,,,,,,,,,,,6319.14299995231,completion,,,,,,,low,high,,,,,,,false,,,,,true,483639,483638.2999999523,477302.528,477505.89999985695,477319.157,483452.599,1,40,,
trial,html.Screen,8_2_0,2023-11-30T18:58:22.673Z,,,,2,0.0086413421586899,0.0360184993500958,,0.04,true,hh,7329.100999809278,response,1.1604734171556077,1.15,-1.15,1.0789312625280616,1.15,-1.15,high,high,,ISIC_0010767.JPG,,ISIC_3950753.JPG,28,26,false,0.14,hh,keypress(i),0,true,490781.69999980927,490781.69999980927,483435.733,483639.09999990463,483452.599,490585.762,1,40,3,
sequence,flow.Sequence,8_2,2023-11-30T18:58:22.674Z,,,,,,,,,,,7329.100999809278,completion,,,,,,,high,high,,,,,,,false,,,,,true,490781.89999985695,490781.69999980927,483435.733,483639.09999990463,483452.599,490585.762,1,40,,
trial,html.Screen,8_3_0,2023-11-30T18:58:28.260Z,,,,2,-0.00126575685933,-0.0325046559638838,,0.04,true,ll,5781.837999904645,response,-1.0570280672376675,1.0697023398418346,-1.15,-1.0932046580095067,1.15,-1.15,low,low,,ISIC_5682259.JPG,,ISIC_0061320.JPG,28,25,false,0.11,ll,keypress(f),0,true,496367.7999999523,496367.59999990463,490569.111,490781.89999985695,490585.762,496169.165,1,40,4,
sequence,flow.Sequence,8_3,2023-11-30T18:58:28.260Z,,,,,,,,,,,5781.837999904645,completion,,,,,,,low,low,,,,,,,false,,,,,true,496368.19999980927,496367.59999990463,490569.111,490781.89999985695,490585.762,496169.165,1,40,,
trial,html.Screen,8_4_0,2023-11-30T18:58:34.817Z,,,,2,0.0361875505619981,-0.0291457404567876,,0.04,true,hl,6755.534999809286,response,1.0003671514840182,1.0697023398418346,-1.025116362623587,-0.8992716557663581,1.15,-1.15,high,low,,ISIC_0027480.JPG,,ISIC_0061749.JPG,28,26,false,0.29000000000000015,hl,keypress(j),0,true,502924.7999999523,502924.69999980927,496152.394,496368.5,496169.165,502735.745,1,40,5,
sequence,flow.Sequence,8_4,2023-11-30T18:58:34.818Z,,,,,,,,,,,6755.534999809286,completion,,,,,,,high,low,,,,,,,false,,,,,true,502925,502924.69999980927,496152.394,496368.2999999523,496169.165,502735.745,1,40,,
trial,html.Screen,8_5_0,2023-11-30T18:58:41.531Z,,,,2,-0.0077673378094614,-0.0021810768579373,,0.04,true,lh,6902.6549998569535,response,-1.2043484010107477,1.0697023398418346,-1.025116362623587,1.2178113180138233,1.15,-1.0999999999999999,low,high,,ISIC_0067621.JPG,,ISIC_0011917.JPG,28,25,false,0.2300000000000001,lh,keypress(e),0,true,509638.69999980927,509638.39999985695,502718.997,502925,502735.745,509452.37,1,40,6,
sequence,flow.Sequence,8_5,2023-11-30T18:58:41.532Z,,,,,,,,,,,6902.6549998569535,completion,,,,,,,low,high,,,,,,,false,,,,,true,509639.09999990463,509638.39999985695,502718.997,502925,502735.745,509452.37,1,40,,
trial,html.Screen,8_6_0,2023-11-30T18:58:50.290Z,,,,2,-0.0050679133050021,-0.0174815595031679,,0.04,false,lh,8944.630000000005,response,-0.8709576717420565,1.0697023398418346,-1.025116362623587,1.2795156779072283,1.0999999999999999,-1.0999999999999999,low,high,,ISIC_9848743.JPG,,ISIC_1925632.JPG,28,25,false,0.2300000000000001,hl,keypress(j),0,true,518397,518397,509435.744,509639.19999980927,509452.37,518202.417,1,40,7,
sequence,flow.Sequence,8_6,2023-11-30T18:58:50.290Z,,,,,,,,,,,8944.630000000005,completion,,,,,,,low,high,,,,,,,false,,,,,true,518397.19999980927,518397,509435.744,509639.19999980927,509452.37,518202.417,1,40,,
trial,html.Screen,8_7_0,2023-11-30T18:58:56.260Z,,,,2,-0.012810673904807,0.00400964452501,,0.04,false,hh,6164.8829999523,response,0.9537595754201148,1.0697023398418346,-1.0751163626235871,1.1342661775432377,1.15,-1.0999999999999999,high,high,,ISIC_0064656.JPG,,ISIC_0741694.JPG,28,30,false,0.13,lh,keypress(e),0,true,524367.6999998093,524367.2999999523,518185.671,518397.19999980927,518202.417,524168.985,1,40,8,
sequence,flow.Sequence,8_7,2023-11-30T18:58:56.261Z,,,,,,,,,,,6164.8829999523,completion,,,,,,,high,high,,,,,,,false,,,,,true,524368,524367.2999999523,518185.671,518397.19999980927,518202.417,524168.985,1,40,,
trial,html.Screen,8_8_0,2023-11-30T18:59:03.971Z,,,,2,-0.0023664502831079,-0.0252784582169994,,0.04,true,hl,7909.1149999046465,response,0.9445114955578736,1.1197023398418346,-1.0751163626235871,-1.0054210059625863,1.15,-1.0999999999999999,high,low,,ISIC_4156010.JPG,,ISIC_0033807.JPG,28,25,false,0.27000000000000013,hl,keypress(j),0,true,532078.399999857,532078.0999999046,524152.397,524368.2999999523,524168.985,531885.717,1,40,9,
sequence,flow.Sequence,8_8,2023-11-30T18:59:03.971Z,,,,,,,,,,,7909.1149999046465,completion,,,,,,,high,low,,,,,,,false,,,,,true,532078.7999999523,532078.0999999046,524152.397,524368.2999999523,524168.985,531885.717,1,40,,
trial,html.Screen,8_9_0,2023-11-30T18:59:13.052Z,,,,2,-0.0071892445601978,0.0246015408628738,,0.04,true,hh,9273.682999857003,response,1.1802887330422154,1.1197023398418346,-1.0751163626235871,1.0224375154810723,1.15,-1.0999999999999999,high,high,,ISIC_0014133.JPG,,ISIC_9225640.JPG,28,27,false,0.13,hh,keypress(i),0,true,541159.6999998093,541159.399999857,531868.882,532079,531885.717,540968.981,1,40,10,
sequence,flow.Sequence,8_9,2023-11-30T18:59:13.053Z,,,,,,,,,,,9273.682999857003,completion,,,,,,,high,high,,,,,,,false,,,,,true,541160,541159.399999857,531868.882,532078.899999857,531885.717,540968.981,1,40,,
trial,html.Screen,8_10_0,2023-11-30T18:59:18.715Z,,,,2,-0.00126575685933,-0.0325046559638838,,0.04,true,ll,5853.218999809236,response,-1.02958055269592,1.0697023398418346,-1.0751163626235871,-1.159278377691306,1.0999999999999999,-1.0999999999999999,low,low,,ISIC_5682259.JPG,,ISIC_0027190.JPG,28,28,false,0.1,ll,keypress(f),0,true,546822.5,546822.1999998093,540952.208,541160.1999998093,540968.981,546635.693,1,40,11,
sequence,flow.Sequence,8_10,2023-11-30T18:59:18.716Z,,,,,,,,,,,5853.218999809236,completion,,,,,,,low,low,,,,,,,false,,,,,true,546823,546822.1999998093,540952.208,541160.1999998093,540968.981,546635.693,1,40,,
trial,html.Screen,8_11_0,2023-11-30T18:59:26.507Z,,,,2,0.0063515208248796,0.0194177605767913,,0.04,false,hh,7978.406999904662,response,0.9537595754201148,1.0697023398418346,-1.0751163626235871,1.1342661775432377,1.0999999999999999,-1.044429465193613,high,high,,ISIC_5281908.JPG,,ISIC_0741694.JPG,28,26,false,0.12,lh,keypress(e),0,true,554614.5,554614.0999999046,546619.02,546823.0999999046,546635.693,554418.926,1,40,12,
sequence,flow.Sequence,8_11,2023-11-30T18:59:26.507Z,,,,,,,,,,,7978.406999904662,completion,,,,,,,high,high,,,,,,,false,,,,,true,554614.899999857,554614.0999999046,546619.02,546823,546635.693,554418.926,1,40,,
trial,html.Screen,8_12_0,2023-11-30T18:59:30.196Z,,,,2,-0.0350697500805515,-0.0166617848231997,,0.04,true,ll,3882.973999856971,response,-1.1671212908494544,1.1197023398418346,-1.0751163626235871,-1.1286681796701683,1.0999999999999999,-1.044429465193613,low,low,,ISIC_0024423.JPG,,ISIC_0065022.JPG,28,30,false,0.1,ll,keypress(f),0,true,558302.1999998093,558301.899999857,554402.153,554615.0999999046,554418.926,558102.301,1,40,13,
sequence,flow.Sequence,8_12,2023-11-30T18:59:30.196Z,,,,,,,,,,,3882.973999856971,completion,,,,,,,low,low,,,,,,,false,,,,,true,558302.5999999046,558301.899999857,554402.153,554615,554418.926,558102.301,1,40,,
trial,html.Screen,8_13_0,2023-11-30T18:59:36.540Z,,,,2,-0.0350697500805515,-0.0166617848231997,,0.04,true,lh,6543.798999904655,response,-1.0700930503975157,1.1197023398418346,-1.0978947352598112,0.923753102263735,1.0999999999999999,-1.044429465193613,low,high,,ISIC_0024423.JPG,,ISIC_0000022.JPG,28,25,false,0.2400000000000001,lh,keypress(e),0,true,564646.399999857,564646.0999999046,558085.703,558302.7999999523,558102.301,564452.226,1,40,14,
sequence,flow.Sequence,8_13,2023-11-30T18:59:36.540Z,,,,,,,,,,,6543.798999904655,completion,,,,,,,low,high,,,,,,,false,,,,,true,564646.7999999523,564646.0999999046,558085.703,558302.7999999523,558102.301,564452.226,1,40,,
trial,html.Screen,8_14_0,2023-11-30T18:59:41.786Z,,,,2,-0.0118555311043871,-0.0087774532070196,,0.04,true,ll,5440.273999999976,response,-1.073353722471336,1.1197023398418346,-1.0978947352598112,-0.9464043043104888,1.0499999999999998,-1.044429465193613,low,low,,ISIC_6488658.JPG,,ISIC_0055293.JPG,28,29,false,0.1,ll,keypress(f),0,true,569892.5,569892.5,564435.371,564646.899999857,564452.226,569702.294,1,40,15,
sequence,flow.Sequence,8_14,2023-11-30T18:59:41.786Z,,,,,,,,,,,5440.273999999976,completion,,,,,,,low,low,,,,,,,false,,,,,true,569892.6999998093,569892.5,564435.371,564646.899999857,564452.226,569702.294,1,40,,
trial,html.Screen,8_15_0,2023-11-30T18:59:46.932Z,,,,2,0.0361875505619981,-0.0291457404567876,,0.04,true,lh,5335.905999809271,response,-0.9225524349657857,1.1197023398418346,-0.9582486773540022,0.929746784178986,1.0499999999999998,-0.9582486773540022,low,high,,ISIC_0027480.JPG,,ISIC_0011077.JPG,28,25,false,0.19000000000000006,lh,keypress(e),0,true,575038.5,575038.1999998093,569685.699,569892.7999999523,569702.294,574852.407,1,40,16,
sequence,flow.Sequence,8_15,2023-11-30T18:59:46.932Z,,,,,,,,,,,5335.905999809271,completion,,,,,,,low,high,,,,,,,false,,,,,true,575038.7999999523,575038.1999998093,569685.699,569892.7999999523,569702.294,574852.407,1,40,,
trial,html.Screen,8_16_0,2023-11-30T18:59:50.484Z,,,,2,-0.0050679133050021,-0.0174815595031679,,0.04,true,ll,3737.8929999523098,response,-0.9926496793263212,1.1197023398418346,-0.9582486773540022,-1.0520809837712837,1.0499999999999998,-0.9582486773540022,low,low,,ISIC_9848743.JPG,,ISIC_0062686.JPG,28,52,false,0.1,ll,keypress(f),0,true,578590.5999999046,578590.2999999523,574835.623,575039,574852.407,578402.26,1,40,17,
sequence,flow.Sequence,8_16,2023-11-30T18:59:50.485Z,,,,,,,,,,,3737.8929999523098,completion,,,,,,,low,low,,,,,,,false,,,,,true,578591,578590.2999999523,574835.623,575039,574852.407,578402.26,1,40,,
trial,html.Screen,8_17_0,2023-11-30T18:59:55.004Z,,,,2,0.0321039635696159,0.020496766286318,,0.04,false,hl,4707.739999999991,response,1.1501717278509027,1.1197023398418346,-0.9723653315488023,-0.8228936373136835,1.0499999999999998,-0.9582486773540022,high,low,,ISIC_0058063.JPG,,ISIC_8398000.JPG,28,28,false,0.2400000000000001,hh,keypress(i),0,true,583110.1999998093,583110,578385.702,578591.1999998093,578402.26,582919.051,1,40,18,
sequence,flow.Sequence,8_17,2023-11-30T18:59:55.004Z,,,,,,,,,,,4707.739999999991,completion,,,,,,,high,low,,,,,,,false,,,,,true,583110.5999999046,583110,578385.702,578591.1999998093,578402.26,582919.051,1,40,,
trial,html.Screen,8_18_0,2023-11-30T18:59:58.901Z,,,,2,0.0051046740562181,-0.0178832721027728,,0.04,true,hh,4087.9490000000224,response,1.0901635293704552,1.1197023398418346,-0.9723653315488023,1.0348352814358883,1.0499999999999998,-1.0082486773540023,high,high,,ISIC_9545819.JPG,,ISIC_7583134.JPG,28,26,false,0.11,hh,keypress(i),0,true,587007.2999999523,587007,582902.138,583110.7999999523,582919.051,586818.849,1,40,19,
sequence,flow.Sequence,8_18,2023-11-30T18:59:58.901Z,,,,,,,,,,,4087.9490000000224,completion,,,,,,,high,high,,,,,,,false,,,,,true,587007.7999999523,587007,582902.138,583110.7999999523,582919.051,586818.849,1,40,,
trial,html.Screen,8_19_0,2023-11-30T19:00:02.532Z,,,,2,0.0051046740562181,-0.0178832721027728,,0.04,false,hl,3819.1509999999544,response,0.9039158082670506,1.0425035046433955,-0.9723653315488023,-1.0517562064343149,1.0425035046433955,-1.0082486773540023,high,low,,ISIC_9545819.JPG,,ISIC_0015411.JPG,28,28,false,0.2300000000000001,hh,keypress(i),0,true,590638.2999999523,590638,586802.32,587007.899999857,586818.849,590452.336,1,40,20,
sequence,flow.Sequence,8_19,2023-11-30T19:00:02.532Z,,,,,,,,,,,3819.1509999999544,completion,,,,,,,high,low,,,,,,,false,,,,,true,590638.5999999046,590638,586802.32,587007.899999857,586818.849,590452.336,1,40,,
trial,html.Screen,8_20_0,2023-11-30T19:00:07.124Z,,,,2,-0.00126575685933,-0.0325046559638838,,0.04,true,hl,4777.963999952306,response,0.9385447468573198,1.0425035046433955,-0.9723653315488023,-1.2289860846064424,1.0425035046433955,-1.0582486773540023,high,low,,ISIC_5682259.JPG,,ISIC_0032780.JPG,28,25,false,0.2300000000000001,hl,keypress(j),0,true,595230.5,595230.2999999523,590435.604,590638.6999998093,590452.336,595035.456,1,40,21,
sequence,flow.Sequence,8_20,2023-11-30T19:00:07.124Z,,,,,,,,,,,4777.963999952306,completion,,,,,,,high,low,,,,,,,false,,,,,true,595230.899999857,595230.2999999523,590435.604,590638.6999998093,590452.336,595035.456,1,40,,
trial,html.Screen,8_21_0,2023-11-30T19:00:11.948Z,,,,2,-0.0377791839943904,0.0227626648172468,,0.04,true,ll,5018.443999856943,response,-1.0053183338862537,0.9925035046433954,-0.9723653315488023,-1.0383223796934642,1.0425035046433955,-1.0582486773540023,low,low,,ISIC_7167479.JPG,,ISIC_0000519.JPG,28,39,false,0.1,ll,keypress(f),0,true,600054.1999998093,600053.899999857,595018.683,595231.1999998093,595035.456,599868.959,1,40,22,
sequence,flow.Sequence,8_21,2023-11-30T19:00:11.948Z,,,,,,,,,,,5018.443999856943,completion,,,,,,,low,low,,,,,,,false,,,,,true,600054.5999999046,600053.899999857,595018.683,595231.0999999046,595035.456,599868.959,1,40,,
trial,html.Screen,8_22_0,2023-11-30T19:00:17.748Z,,,,2,-0.0166849894750452,0.0371614812368835,,0.04,true,lh,5984.940999856917,response,-0.7761549898346118,0.9925035046433954,-0.9723653315488023,1.0995228188562456,1.0425035046433955,-0.9718203567898589,low,high,,ISIC_6231450.JPG,,ISIC_1835041.JPG,28,29,false,0.20000000000000007,lh,keypress(e),0,true,605854.2999999523,605853.899999857,599852.249,600054.6999998093,599868.959,605669.021,1,40,23,
sequence,flow.Sequence,8_22,2023-11-30T19:00:17.748Z,,,,,,,,,,,5984.940999856917,completion,,,,,,,low,high,,,,,,,false,,,,,true,605854.5999999046,605853.899999857,599852.249,600054.5999999046,599868.959,605669.021,1,40,,
trial,html.Screen,8_23_0,2023-11-30T19:00:20.836Z,,,,2,-0.0377791839943904,0.0227626648172468,,0.04,true,ll,3273.6789998093154,response,-1.0088070132449485,0.9925035046433954,-0.9223653315488023,-0.9026684221154396,1.0425035046433955,-0.9718203567898589,low,low,,ISIC_7167479.JPG,,ISIC_0059314.JPG,28,43,false,0.1,ll,keypress(f),0,true,608943,608942.6999998093,605652.191,605854.7999999523,605669.021,608752.087,1,40,24,
sequence,flow.Sequence,8_23,2023-11-30T19:00:20.837Z,,,,,,,,,,,3273.6789998093154,completion,,,,,,,low,low,,,,,,,false,,,,,true,608943.399999857,608942.6999998093,605652.191,605854.7999999523,605669.021,608752.087,1,40,,
trial,html.Screen,8_24_0,2023-11-30T19:00:26.668Z,,,,2,-0.0060934073440827,-0.0279108145883031,,0.04,false,lh,6022.612999809207,response,-1.082730232773217,0.9925035046433954,-0.9223653315488023,0.8833175387485132,1.0425035046433955,-0.9718203567898589,low,high,,ISIC_0032604.JPG,,ISIC_0011933.JPG,28,28,false,0.18000000000000005,ll,keypress(f),0,true,614774.899999857,614774.6999998093,608735.566,608943.5999999046,608752.087,614585.442,1,40,25,
sequence,flow.Sequence,8_24,2023-11-30T19:00:26.669Z,,,,,,,,,,,6022.612999809207,completion,,,,,,,low,high,,,,,,,false,,,,,true,614775.2999999523,614774.6999998093,608735.566,608943.5,608752.087,614585.442,1,40,,
trial,html.Screen,8_25_0,2023-11-30T19:00:30.573Z,,,,2,-0.012020985739544,0.0126097407389903,,0.04,true,ll,4092.6579999045935,response,-0.999840720741648,0.9925035046433954,-0.9426993274443283,-0.9031251164933652,1.0925035046433955,-0.9718203567898589,low,low,,ISIC_0069379.JPG,,ISIC_0058768.JPG,28,49,false,0.1,ll,keypress(f),0,true,618678.2999999523,618678.0999999046,614568.837,614775.399999857,614585.442,618485.393,1,40,26,
sequence,flow.Sequence,8_25,2023-11-30T19:00:30.573Z,,,,,,,,,,,4092.6579999045935,completion,,,,,,,low,low,,,,,,,false,,,,,true,618678.7999999523,618678.0999999046,614568.837,614775.399999857,614585.442,618485.393,1,40,,
trial,html.Screen,8_26_0,2023-11-30T19:00:36.180Z,,,,2,-0.0050679133050021,-0.0174815595031679,,0.04,false,hl,5799.7069999045925,response,0.8591294258188253,0.9925035046433954,-0.9426993274443283,-0.870797302150167,1.0925035046433955,-0.9014829186175066,high,low,,ISIC_9848743.JPG,,ISIC_0055841.JPG,28,26,false,0.18000000000000005,ll,keypress(f),0,true,624285.1999998093,624285.0999999046,618468.916,618679,618485.393,624085.358,1,40,27,
sequence,flow.Sequence,8_26,2023-11-30T19:00:36.180Z,,,,,,,,,,,5799.7069999045925,completion,,,,,,,high,low,,,,,,,false,,,,,true,624285.1999998093,624285.0999999046,618468.916,618678.899999857,618485.393,624085.358,1,40,,
trial,html.Screen,8_27_0,2023-11-30T19:00:40.357Z,,,,2,0.010035581303589,-0.0100711721396864,,0.04,false,hl,4376.841999809258,response,0.9674279172871372,1.0425035046433955,-0.9426993274443283,-0.7134300562904723,1.0925035046433955,-0.9014829186175066,high,low,,ISIC_0030592.JPG,,ISIC_9130157.JPG,28,27,false,0.19000000000000006,hh,keypress(i),0,true,628462.399999857,628462.1999998093,624068.554,624285.2999999523,624085.358,628268.73,1,40,28,
sequence,flow.Sequence,8_27,2023-11-30T19:00:40.357Z,,,,,,,,,,,4376.841999809258,completion,,,,,,,high,low,,,,,,,false,,,,,true,628462.7999999523,628462.1999998093,624068.554,624285.1999998093,624085.358,628268.73,1,40,,
trial,html.Screen,8_28_0,2023-11-30T19:00:45.756Z,,,,2,0.0365981355399771,0.0162670920008846,,0.04,true,ll,5592.969999809284,response,-0.9286162906661966,1.0425035046433955,-0.9426993274443283,-0.8993115431771105,1.0925035046433955,-0.9514829186175067,low,low,,ISIC_0982855.JPG,,ISIC_0011857.JPG,28,51,false,0.1,ll,keypress(f),0,true,633862,633861.6999998093,628252.193,628463,628268.73,633668.698,1,40,29,
sequence,flow.Sequence,8_28,2023-11-30T19:00:45.757Z,,,,,,,,,,,5592.969999809284,completion,,,,,,,low,low,,,,,,,false,,,,,true,633862.399999857,633861.6999998093,628252.193,628462.899999857,628268.73,633668.698,1,40,,
trial,html.Screen,8_29_0,2023-11-30T19:00:51.165Z,,,,2,0.0189295602385628,0.0128812415435153,,0.04,true,lh,5601.401999904658,response,-0.7877592509894734,1.0425035046433955,-0.8639639169216535,1.1264694181779615,1.0925035046433955,-0.9514829186175067,low,high,,ISIC_0010372.JPG,,ISIC_9058340.JPG,28,26,false,0.17000000000000004,lh,keypress(e),0,true,639270.5,639270.0999999046,633651.89,633862.6999998093,633668.698,639085.624,1,40,30,
sequence,flow.Sequence,8_29,2023-11-30T19:00:51.165Z,,,,,,,,,,,5601.401999904658,completion,,,,,,,low,high,,,,,,,false,,,,,true,639270.899999857,639270.0999999046,633651.89,633862.5999999046,633668.698,639085.624,1,40,,
trial,html.Screen,8_30_0,2023-11-30T19:01:01.075Z,,,,2,-0.00126575685933,-0.0325046559638838,,0.04,true,hh,10094.675999952364,response,0.9133847107512522,1.0425035046433955,-0.8639639169216535,1.1467555629414397,1.0925035046433955,-0.9514829186175067,high,high,,ISIC_5682259.JPG,,ISIC_0032171.JPG,28,30,false,0.13,hh,keypress(i),0,true,649180.2999999523,649180.2999999523,639068.524,639271,639085.624,648985.293,1,40,31,
sequence,flow.Sequence,8_30,2023-11-30T19:01:01.075Z,,,,,,,,,,,10094.675999952364,completion,,,,,,,high,high,,,,,,,false,,,,,true,649180.399999857,649180.2999999523,639068.524,639271,639085.624,648985.293,1,40,,
trial,html.Screen,8_31_0,2023-11-30T19:01:04.925Z,,,,2,0.0365981355399771,0.0162670920008846,,0.04,true,ll,4044.8069999046857,response,-0.7916641003387539,1.0866124905597006,-0.8639639169216535,-1.035069030839197,1.0866124905597006,-0.9514829186175067,low,low,,ISIC_0982855.JPG,,ISIC_0069635.JPG,28,47,false,0.1,ll,keypress(f),0,true,653030.399999857,653030.0999999046,648968.54,649180.5,648985.293,652835.3,1,40,32,
sequence,flow.Sequence,8_31,2023-11-30T19:01:04.925Z,,,,,,,,,,,4044.8069999046857,completion,,,,,,,low,low,,,,,,,false,,,,,true,653030.7999999523,653030.0999999046,648968.54,649180.5,648985.293,652835.3,1,40,,
trial,html.Screen,8_32_0,2023-11-30T19:01:12.381Z,,,,2,-0.0023664502831079,-0.0252784582169994,,0.04,false,hl,7650.99999995227,response,0.9039158082670506,1.0866124905597006,-0.8139639169216535,-1.0517562064343149,1.0866124905597006,-0.9014829186175066,high,low,,ISIC_4156010.JPG,,ISIC_0015411.JPG,28,27,false,0.20000000000000007,hh,keypress(i),0,true,660486.5999999046,660486.2999999523,652818.744,653031,652835.3,660302.408,1,40,33,
sequence,flow.Sequence,8_32,2023-11-30T19:01:12.381Z,,,,,,,,,,,7650.99999995227,completion,,,,,,,high,low,,,,,,,false,,,,,true,660486.899999857,660486.2999999523,652818.744,653031,652835.3,660302.408,1,40,,
trial,html.Screen,8_33_0,2023-11-30T19:01:18.861Z,,,,2,-0.012810673904807,0.00400964452501,,0.04,true,hh,6663.591999999946,response,1.1990772227054871,1.0866124905597006,-0.8139639169216535,1.1224329926844498,1.0866124905597006,-0.9514829186175067,high,high,,ISIC_0064656.JPG,,ISIC_3425388.JPG,28,27,false,0.12,hh,keypress(i),0,true,666966.1999998093,666966,660268.664,660487.0999999046,660302.408,666768.616,1,40,34,
sequence,flow.Sequence,8_33,2023-11-30T19:01:18.861Z,,,,,,,,,,,6663.591999999946,completion,,,,,,,high,high,,,,,,,false,,,,,true,666966.6999998093,666966,660268.664,660487.0999999046,660302.408,666768.616,1,40,,
trial,html.Screen,8_34_0,2023-11-30T19:01:34.648Z,,,,2,-0.0050679133050021,-0.0174815595031679,,0.04,,,15783.272999999928,timeout,-0.8620516892494489,1.1107551076949684,-0.8139639169216535,1.1108509340502866,1.0866124905597006,-0.9514829186175067,low,high,,ISIC_9848743.JPG,,ISIC_5557806.JPG,28,25,false,0.15000000000000002,,,0,true,682752.5999999046,682752.5,666751.995,666966.7999999523,666768.616,682551.889,1,40,35,
sequence,flow.Sequence,8_34,2023-11-30T19:01:34.648Z,,,,,,,,,,,15983.883999999962,completion,,,,,,,low,high,,,,,,,false,,,,,true,682752.6999998093,682752.5,666751.995,666966.7999999523,666768.616,682551.889,1,40,,
trial,html.Screen,8_35_0,2023-11-30T19:01:39.206Z,,,,2,-0.0050679133050021,-0.0174815595031679,,0.04,true,hl,4758.1110000000335,response,1.064425982109969,1.1107551076949684,-0.8139639169216535,-0.958564243697126,1.0866124905597006,-0.9514829186175067,high,low,,ISIC_9848743.JPG,,ISIC_3203344.JPG,28,28,false,0.2400000000000001,hl,keypress(j),0,true,687310.1999998093,687310,682535.511,682752.7999999523,682551.889,687118.625,1,40,36,
sequence,flow.Sequence,8_35,2023-11-30T19:01:39.206Z,,,,,,,,,,,4758.1110000000335,completion,,,,,,,high,low,,,,,,,false,,,,,true,687310.5999999046,687310,682535.511,682752.7999999523,682551.889,687118.625,1,40,,
trial,html.Screen,8_36_0,2023-11-30T19:01:43.821Z,,,,2,-0.0071892445601978,0.0246015408628738,,0.04,true,hh,4807.375,response,1.09666761087476,1.1107551076949684,-0.8139639169216535,0.9917482735105084,1.0866124905597006,-0.9514829186175067,high,high,,ISIC_0014133.JPG,,ISIC_0071754.JPG,28,27,false,0.12,hh,keypress(i),0,true,691926.1999998093,691926,687101.975,687310.7999999523,687118.625,691735.285,1,40,37,
sequence,flow.Sequence,8_36,2023-11-30T19:01:43.822Z,,,,,,,,,,,4807.375,completion,,,,,,,high,high,,,,,,,false,,,,,true,691926.5,691926,687101.975,687310.7999999523,687118.625,691735.285,1,40,,
trial,html.Screen,8_37_0,2023-11-30T19:01:48.476Z,,,,2,-0.0060934073440827,-0.0279108145883031,,0.04,true,hl,4845.614999856916,response,1.225025174430573,1.0607551076949684,-0.8139639169216535,-0.8422679054456499,1.0366124905597005,-0.9514829186175067,high,low,,ISIC_0032604.JPG,,ISIC_7503950.JPG,28,26,false,0.22000000000000008,hl,keypress(j),0,true,696581,696580.899999857,691718.553,691926.6999998093,691735.285,696385.22,1,40,38,
sequence,flow.Sequence,8_37,2023-11-30T19:01:48.476Z,,,,,,,,,,,4845.614999856916,completion,,,,,,,high,low,,,,,,,false,,,,,true,696581.1999998093,696580.899999857,691718.553,691926.5999999046,691735.285,696385.22,1,40,,
trial,html.Screen,8_38_0,2023-11-30T19:01:52.685Z,,,,2,-0.0060934073440827,-0.0279108145883031,,0.04,false,hh,4404.679999856977,response,1.0236565951660872,1.0607551076949684,-0.8139639169216535,0.9220772824737548,1.0366124905597005,-0.9014829186175066,high,high,,ISIC_0032604.JPG,,ISIC_3209501.JPG,28,30,false,0.12,hl,keypress(j),0,true,700790.0999999046,700789.899999857,696368.473,696581.1999998093,696385.22,700601.927,1,40,39,
sequence,flow.Sequence,8_38,2023-11-30T19:01:52.686Z,,,,,,,,,,,4404.679999856977,completion,,,,,,,high,high,,,,,,,false,,,,,true,700790.5999999046,700789.899999857,696368.473,696581.1999998093,696385.22,700601.927,1,40,,
trial,html.Screen,8_39_0,2023-11-30T19:01:56.182Z,,,,2,0.0361875505619981,-0.0291457404567876,,0.04,false,lh,3684.872999952291,response,-0.8015753713975186,1.07434088479833,-0.8139639169216535,1.0067065355978264,1.0866124905597006,-0.9014829186175066,low,high,,ISIC_0027480.JPG,,ISIC_0002119.JPG,28,25,false,0.15000000000000002,hh,keypress(i),0,true,704287.0999999046,704286.7999999523,700585.305,700790.7999999523,700601.927,704102.125,1,40,40,
sequence,flow.Sequence,8_39,2023-11-30T19:01:56.183Z,,,,,,,,,,,3684.872999952291,completion,,,,,,,low,high,,,,,,,false,,,,,true,704287.5,704286.7999999523,700585.305,700790.6999998093,700601.927,704102.125,1,40,,
stair_loop,flow.Loop,8,2023-11-30T19:01:56.183Z,,,,,,,,,,,230917.38499995234,completion,,,,,,,,,,,,,,,false,,,,,true,704287.7999999523,704286.7999999523,473352.567,473556.69999980927,473369.415,704102.125,1,40,,
exp_instructions,html.Screen,9,2023-11-30T19:02:06.837Z,,,,,,,,,,,10838.774999856949,response,,,,,,,,,,,,,,,,,continue,keypress(Space),,,714941.5,714940.899999857,704085.257,704288,704102.125,714751.831,,,,
trial,html.Screen,10_0_0,2023-11-30T19:02:10.533Z,,,,1,-0.0118555311043871,-0.0087774532070196,,0.04,true,ll,3885.768999904627,response,-0.9009408285331614,1.0477746223014812,-0.8818113526829761,-0.8985422901220989,1.0723525483057332,-0.9537269821256267,low,low,,ISIC_6488658.JPG,9,ISIC_0033834.JPG,28,44,false,0.1,ll,keypress(f),0,false,718637.899999857,718637.5999999046,714734.956,714941.899999857,714751.831,718451.836,5,600,1,
break,html.Screen,10_0_1,2023-11-30T19:02:10.534Z,,,,,,,,,,,NaN,,,,,,,,low,low,,,,,,,false,,,,,false,718639.0999999046,718638.7999999523,,718638.1999998093,,718451.836,5,600,,
break_continue,html.Screen,10_0_2,2023-11-30T19:02:10.535Z,,,,,,,,,,,NaN,,,,,,,,low,low,,,,,,,false,,,,,false,718640,718639.6999998093,,718639.2999999523,,718451.836,5,600,,
sequence,flow.Sequence,10_0,2023-11-30T19:02:10.536Z,,,,,,,,,,,3887.8689998092595,completion,,,,,,,low,low,,,,,,,false,,,,,false,718640.2999999523,718639.6999998093,714734.956,714941.899999857,714751.831,718451.836,5,600,,
trial,html.Screen,10_1_0,2023-11-30T19:02:14.749Z,,,,1,-0.012020985739544,0.0126097407389903,,0.04,true,ll,4401.763999904622,response,-0.891534074006073,1.0477746223014812,-0.8818113526829761,-0.9584950302233712,1.0723525483057332,-0.9537269821256267,low,low,,ISIC_0069379.JPG,9,ISIC_0060559.JPG,28,44,false,0.1,ll,keypress(f),0,false,722854,722853.5999999046,718435.257,718640.5,718451.836,722668.437,5,600,2,
break,html.Screen,10_1_1,2023-11-30T19:02:14.750Z,,,,,,,,,,,NaN,,,,,,,,low,low,,,,,,,false,,,,,false,722855.0999999046,722854.7999999523,,722854.399999857,,722668.437,5,600,,
break_continue,html.Screen,10_1_2,2023-11-30T19:02:14.751Z,,,,,,,,,,,NaN,,,,,,,,low,low,,,,,,,false,,,,,false,722855.7999999523,722855.5,,722855.2999999523,,722668.437,5,600,,
sequence,flow.Sequence,10_1,2023-11-30T19:02:14.751Z,,,,,,,,,,,4403.66399999999,completion,,,,,,,low,low,,,,,,,false,,,,,false,722856,722855.5,718435.257,718640.399999857,718451.836,722668.437,5,600,,
trial,html.Screen,10_2_0,2023-11-30T19:02:20.781Z,,,,1,0.0321039635696159,0.020496766286318,,0.04,false,hl,6217.162999904598,response,0.8779374983479176,1.0477746223014812,-0.8818113526829761,-0.9745548032823428,1.0723525483057332,-0.9537269821256267,high,low,,ISIC_0058063.JPG,9,ISIC_2991354.JPG,28,25,false,0.21000000000000008,hh,keypress(i),0,false,728886,728885.5999999046,722651.802,722856.0999999046,722668.437,728703.229,5,600,3,
break,html.Screen,10_2_1,2023-11-30T19:02:20.782Z,,,,,,,,,,,NaN,,,,,,,,high,low,,,,,,,false,,,,,false,728887,728886.6999998093,,728886.1999998093,,728703.229,5,600,,
break_continue,html.Screen,10_2_2,2023-11-30T19:02:20.783Z,,,,,,,,,,,NaN,,,,,,,,high,low,,,,,,,false,,,,,false,728887.5,728887.2999999523,,728887.0999999046,,728703.229,5,600,,
sequence,flow.Sequence,10_2,2023-11-30T19:02:20.783Z,,,,,,,,,,,6218.862999952282,completion,,,,,,,high,low,,,,,,,false,,,,,false,728887.7999999523,728887.2999999523,722651.802,722856.0999999046,722668.437,728703.229,5,600,,
trial,html.Screen,10_3_0,2023-11-30T19:02:25.373Z,,,,1,0.0367218428225813,-0.0026956749740767,,0.04,true,ll,4774.570999952266,response,-0.8868080718134892,1.0477746223014812,-0.8818113526829761,-0.8837963869804757,1.0723525483057332,-0.9537269821256267,low,low,,ISIC_7212271.JPG,9,ISIC_0068895.JPG,28,44,false,0.1,ll,keypress(f),0,false,733478,733477.7999999523,728668.583,728887.899999857,728703.229,733285.116,5,600,4,
break,html.Screen,10_3_1,2023-11-30T19:02:25.374Z,,,,,,,,,,,NaN,,,,,,,,low,low,,,,,,,false,,,,,false,733479.0999999046,733478.7999999523,,733478.399999857,,733285.116,5,600,,
break_continue,html.Screen,10_3_2,2023-11-30T19:02:25.375Z,,,,,,,,,,,NaN,,,,,,,,low,low,,,,,,,false,,,,,false,733479.5999999046,733479.399999857,,733479.2999999523,,733285.116,5,600,,
sequence,flow.Sequence,10_3,2023-11-30T19:02:25.375Z,,,,,,,,,,,4776.170999856899,completion,,,,,,,low,low,,,,,,,false,,,,,false,733479.899999857,733479.399999857,728668.583,728887.899999857,728703.229,733285.116,5,600,,
trial,html.Screen,10_4_0,2023-11-30T19:02:29.038Z,,,,1,0.0051046740562181,-0.0178832721027728,,0.04,true,ll,3856.883999999962,response,-0.8984767404401109,1.0477746223014812,-0.8818113526829761,-1.0289479104867394,1.0723525483057332,-0.9537269821256267,low,low,,ISIC_9545819.JPG,9,ISIC_0011458.JPG,28,44,false,0.1,ll,keypress(f),0,false,737142.2999999523,737142,733268.63,733480.0999999046,733285.116,736951.823,5,600,5,
break,html.Screen,10_4_1,2023-11-30T19:02:29.039Z,,,,,,,,,,,NaN,,,,,,,,low,low,,,,,,,false,,,,,false,737143.1999998093,737142.899999857,,737142.5,,736951.823,5,600,,
break_continue,html.Screen,10_4_2,2023-11-30T19:02:29.039Z,,,,,,,,,,,NaN,,,,,,,,low,low,,,,,,,false,,,,,false,737143.899999857,737143.5999999046,,737143.5,,736951.823,5,600,,
sequence,flow.Sequence,10_4,2023-11-30T19:02:29.039Z,,,,,,,,,,,3858.4839999045944,completion,,,,,,,low,low,,,,,,,false,,,,,false,737144.0999999046,737143.5999999046,733268.63,733480,733285.116,736951.823,5,600,,
trial,html.Screen,10_5_0,2023-11-30T19:02:38.751Z,,,,1,-0.0399381815506136,-0.0177751789152893,,0.04,false,hh,9902.976999952341,response,0.9416900312335138,1.0477746223014812,-0.8818113526829761,0.9485840589720004,1.0723525483057332,-0.9537269821256267,high,high,,ISIC_3981425.JPG,11,ISIC_2784686.JPG,28,28,false,0.13,hl,keypress(j),0,false,746855,746854.7999999523,736935.106,737144.1999998093,736951.823,746668.464,5,600,6,
break,html.Screen,10_5_1,2023-11-30T19:02:38.752Z,,,,,,,,,,,NaN,,,,,,,,high,high,,,,,,,false,,,,,false,746856,746855.7999999523,,746855.399999857,,746668.464,5,600,,
break_continue,html.Screen,10_5_2,2023-11-30T19:02:38.753Z,,,,,,,,,,,NaN,,,,,,,,high,high,,,,,,,false,,,,,false,746856.5999999046,746856.399999857,,746856.1999998093,,746668.464,5,600,,
sequence,flow.Sequence,10_5,2023-11-30T19:02:38.753Z,,,,,,,,,,,9904.576999856974,completion,,,,,,,high,high,,,,,,,false,,,,,false,746856.7999999523,746856.399999857,736935.106,737144.1999998093,736951.823,746668.464,5,600,,
trial,html.Screen,10_6_0,2023-11-30T19:02:42.774Z,,,,1,-0.0077673378094614,-0.0021810768579373,,0.04,true,hl,4209.235999809229,response,0.8644465729542988,1.0477746223014812,-0.8818113526829761,-0.8679598285079457,1.0723525483057332,-0.9537269821256267,high,low,,ISIC_0067621.JPG,8,ISIC_6718969.JPG,28,25,false,0.21000000000000008,hl,keypress(j),0,false,750878,750877.6999998093,746651.947,746857,746668.464,750685.115,5,600,7,
break,html.Screen,10_6_1,2023-11-30T19:02:42.775Z,,,,,,,,,,,NaN,,,,,,,,high,low,,,,,,,false,,,,,false,750878.899999857,750878.5999999046,,750878.2999999523,,750685.115,5,600,,
break_continue,html.Screen,10_6_2,2023-11-30T19:02:42.775Z,,,,,,,,,,,NaN,,,,,,,,high,low,,,,,,,false,,,,,false,750879.399999857,750879.1999998093,,750879,,750685.115,5,600,,
sequence,flow.Sequence,10_6,2023-11-30T19:02:42.776Z,,,,,,,,,,,4210.735999809229,completion,,,,,,,high,low,,,,,,,false,,,,,false,750879.6999998093,750879.1999998093,746651.947,746857,746668.464,750685.115,5,600,,
trial,html.Screen,10_7_0,2023-11-30T19:02:45.638Z,,,,1,-0.0060918352854008,0.029032683404407,,0.04,true,ll,3056.3850000000093,response,-0.8125930874051923,1.0477746223014812,-0.8818113526829761,-0.9001696721297474,1.0723525483057332,-0.9537269821256267,low,low,,ISIC_8436194.JPG,9,ISIC_0072748.JPG,28,44,false,0.1,ll,keypress(f),0,false,753741.7999999523,753741.5,750668.449,750879.899999857,750685.115,753551.718,5,600,8,
break,html.Screen,10_7_1,2023-11-30T19:02:45.639Z,,,,,,,,,,,NaN,,,,,,,,low,low,,,,,,,false,,,,,false,753742.6999998093,753742.5,,753742.0999999046,,753551.718,5,600,,
break_continue,html.Screen,10_7_2,2023-11-30T19:02:45.639Z,,,,,,,,,,,NaN,,,,,,,,low,low,,,,,,,false,,,,,false,753743.1999998093,753743,,753742.899999857,,753551.718,5,600,,
sequence,flow.Sequence,10_7,2023-11-30T19:02:45.640Z,,,,,,,,,,,3057.8850000000093,completion,,,,,,,low,low,,,,,,,false,,,,,false,753743.5,753743,750668.449,750879.7999999523,750685.115,753551.718,5,600,,
trial,html.Screen,10_8_0,2023-11-30T19:02:53.030Z,,,,1,-0.0350697500805515,-0.0166617848231997,,0.04,false,hl,7582.181999856955,response,1.00615481805876,1.0477746223014812,-0.8818113526829761,-0.8428903771195875,1.0723525483057332,-0.9537269821256267,high,low,,ISIC_0024423.JPG,9,ISIC_0069970.JPG,28,25,false,0.21000000000000008,ll,keypress(f),0,false,761134.1999998093,761133.899999857,753535.037,753743.5999999046,753551.718,760935.026,5,600,9,
break,html.Screen,10_8_1,2023-11-30T19:02:53.031Z,,,,,,,,,,,NaN,,,,,,,,high,low,,,,,,,false,,,,,false,761135.1999998093,761134.899999857,,761134.399999857,,760935.026,5,600,,
break_continue,html.Screen,10_8_2,2023-11-30T19:02:53.032Z,,,,,,,,,,,NaN,,,,,,,,high,low,,,,,,,false,,,,,false,761135.899999857,761135.5999999046,,761135.399999857,,760935.026,5,600,,
sequence,flow.Sequence,10_8,2023-11-30T19:02:53.032Z,,,,,,,,,,,7583.881999904639,completion,,,,,,,high,low,,,,,,,false,,,,,false,761136.0999999046,761135.5999999046,753535.037,753743.5999999046,753551.718,760935.026,5,600,,
trial,html.Screen,10_9_0,2023-11-30T19:02:59.582Z,,,,1,-0.0350697500805515,-0.0166617848231997,,0.04,true,hh,6750.573999904678,response,1.1642596483638106,1.0477746223014812,-0.8818113526829761,1.091507924157762,1.0723525483057332,-0.9537269821256267,high,high,,ISIC_0024423.JPG,8,ISIC_0765584.JPG,28,28,false,0.13,hh,keypress(i),0,false,767685.7999999523,767685.5999999046,760918.592,761136.2999999523,760935.026,767502.311,5,600,10,
break,html.Screen,10_9_1,2023-11-30T19:02:59.583Z,,,,,,,,,,,NaN,,,,,,,,high,high,,,,,,,false,,,,,false,767687,767686.5999999046,,767686.1999998093,,767502.311,5,600,,
break_continue,html.Screen,10_9_2,2023-11-30T19:02:59.584Z,,,,,,,,,,,NaN,,,,,,,,high,high,,,,,,,false,,,,,false,767687.5999999046,767687.2999999523,,767687.1999998093,,767502.311,5,600,,
sequence,flow.Sequence,10_9,2023-11-30T19:02:59.584Z,,,,,,,,,,,6752.273999952362,completion,,,,,,,high,high,,,,,,,false,,,,,false,767687.899999857,767687.2999999523,760918.592,761136.2999999523,760935.026,767502.311,5,600,,
trial,html.Screen,10_10_0,2023-11-30T19:03:06.830Z,,,,1,0.0086413421586899,0.0360184993500958,,0.04,false,hl,7431.388999809278,response,1.1235224875125256,1.0477746223014812,-0.8818113526829761,-0.8641223012137988,1.0723525483057332,-0.9537269821256267,high,low,,ISIC_0010767.JPG,9,ISIC_0033901.JPG,28,25,false,0.21000000000000008,ll,keypress(f),0,false,774934.0999999046,774933.6999998093,767468.351,767688.0999999046,767502.311,774735.054,5,600,11,
break,html.Screen,10_10_1,2023-11-30T19:03:06.831Z,,,,,,,,,,,NaN,,,,,,,,high,low,,,,,,,false,,,,,false,774935,774934.7999999523,,774934.2999999523,,774735.054,5,600,,
break_continue,html.Screen,10_10_2,2023-11-30T19:03:06.832Z,,,,,,,,,,,NaN,,,,,,,,high,low,,,,,,,false,,,,,false,774935.5999999046,774935.399999857,,774935.1999998093,,774735.054,5,600,,
sequence,flow.Sequence,10_10,2023-11-30T19:03:06.832Z,,,,,,,,,,,7433.088999856962,completion,,,,,,,high,low,,,,,,,false,,,,,false,774935.7999999523,774935.399999857,767468.351,767688,767502.311,774735.054,5,600,,
trial,html.Screen,10_11_0,2023-11-30T19:03:12.126Z,,,,1,0.0189295602385628,0.0128812415435153,,0.04,true,hh,5494.345999856945,response,1.011737552725394,1.0477746223014812,-0.8818113526829761,1.0893360711742854,1.0723525483057332,-0.9537269821256267,high,high,,ISIC_0010372.JPG,9,ISIC_2998367.JPG,28,28,false,0.13,hh,keypress(i),0,false,780229.5999999046,780229.399999857,774718.353,774936,774735.054,780035.039,5,600,12,
break,html.Screen,10_11_1,2023-11-30T19:03:12.127Z,,,,,,,,,,,NaN,,,,,,,,high,high,,,,,,,false,,,,,false,780230.5,780230.2999999523,,780229.899999857,,780035.039,5,600,,
break_continue,html.Screen,10_11_2,2023-11-30T19:03:12.127Z,,,,,,,,,,,NaN,,,,,,,,high,high,,,,,,,false,,,,,false,780231.1999998093,780230.899999857,,780230.7999999523,,780035.039,5,600,,
sequence,flow.Sequence,10_11,2023-11-30T19:03:12.127Z,,,,,,,,,,,5495.845999856945,completion,,,,,,,high,high,,,,,,,false,,,,,false,780231.399999857,780230.899999857,774718.353,774936,774735.054,780035.039,5,600,,
trial,html.Screen,10_12_0,2023-11-30T19:03:19.158Z,,,,1,0.0189295602385628,0.0128812415435153,,0.04,true,hl,7226.860999856959,response,0.9039158082670506,1.0477746223014812,-0.8818113526829761,-1.0517562064343149,1.0723525483057332,-0.9537269821256267,high,low,,ISIC_0010372.JPG,9,ISIC_0015411.JPG,28,25,false,0.21000000000000008,hl,keypress(j),0,false,787262.1999998093,787261.899999857,780018.408,780231.5,780035.039,787068.249,5,600,13,
break,html.Screen,10_12_1,2023-11-30T19:03:19.159Z,,,,,,,,,,,NaN,,,,,,,,high,low,,,,,,,false,,,,,false,787263.1999998093,787262.899999857,,787262.5,,787068.249,5,600,,
break_continue,html.Screen,10_12_2,2023-11-30T19:03:19.160Z,,,,,,,,,,,NaN,,,,,,,,high,low,,,,,,,false,,,,,false,787263.7999999523,787263.5999999046,,787263.399999857,,787068.249,5,600,,
sequence,flow.Sequence,10_12,2023-11-30T19:03:19.160Z,,,,,,,,,,,7228.560999904643,completion,,,,,,,high,low,,,,,,,false,,,,,false,787264.0999999046,787263.5999999046,780018.408,780231.5,780035.039,787068.249,5,600,,
trial,html.Screen,10_13_0,2023-11-30T19:03:22.358Z,,,,1,0.0367218428225813,-0.0026956749740767,,0.04,true,hh,3393.1509998569963,response,1.1638334638021437,1.0477746223014812,-0.8818113526829761,1.0846635401396965,1.0723525483057332,-0.9537269821256267,high,high,,ISIC_7212271.JPG,9,ISIC_4718313.JPG,28,28,false,0.13,hh,keypress(i),0,false,790461.5999999046,790461.399999857,787051.698,787264.1999998093,787068.249,790268.282,5,600,14,
break,html.Screen,10_13_1,2023-11-30T19:03:22.359Z,,,,,,,,,,,NaN,,,,,,,,high,high,,,,,,,false,,,,,false,790462.399999857,790462.2999999523,,790461.899999857,,790268.282,5,600,,
break_continue,html.Screen,10_13_2,2023-11-30T19:03:22.359Z,,,,,,,,,,,NaN,,,,,,,,high,high,,,,,,,false,,,,,false,790463,790462.7999999523,,790462.6999998093,,790268.282,5,600,,
sequence,flow.Sequence,10_13,2023-11-30T19:03:22.359Z,,,,,,,,,,,3394.550999952364,completion,,,,,,,high,high,,,,,,,false,,,,,false,790463.2999999523,790462.7999999523,787051.698,787264.0999999046,787068.249,790268.282,5,600,,
trial,html.Screen,10_14_0,2023-11-30T19:03:27.326Z,,,,1,-0.0377791839943904,0.0227626648172468,,0.04,true,hl,5161.2179999999935,response,1.1162273456306029,1.0477746223014812,-0.8818113526829761,-0.7890271955816722,1.0723525483057332,-0.9537269821256267,high,low,,ISIC_7167479.JPG,9,ISIC_0011564.JPG,28,25,false,0.21000000000000008,hl,keypress(j),0,false,795429.6999998093,795429.5,790251.601,790463.399999857,790268.282,795234.934,5,600,15,
break,html.Screen,10_14_1,2023-11-30T19:03:27.327Z,,,,,,,,,,,NaN,,,,,,,,high,low,,,,,,,false,,,,,false,795430.5999999046,795430.399999857,,795430.0999999046,,795234.934,5,600,,
break_continue,html.Screen,10_14_2,2023-11-30T19:03:27.327Z,,,,,,,,,,,NaN,,,,,,,,high,low,,,,,,,false,,,,,false,795431.0999999046,795431,,795430.7999999523,,795234.934,5,600,,
sequence,flow.Sequence,10_14,2023-11-30T19:03:27.327Z,,,,,,,,,,,5162.7179999999935,completion,,,,,,,high,low,,,,,,,false,,,,,false,795431.399999857,795431,790251.601,790463.399999857,790268.282,795234.934,5,600,,
trial,html.Screen,10_15_0,2023-11-30T19:03:34.189Z,,,,1,-0.012020985739544,0.0126097407389903,,0.04,true,lh,7057.365999952308,response,-0.8561946552009824,1.0477746223014812,-0.8818113526829761,0.9282171889213044,1.0723525483057332,-0.9537269821256267,low,high,,ISIC_0069379.JPG,9,ISIC_3065032.JPG,28,25,false,0.18000000000000005,lh,keypress(e),0,false,802292.2999999523,802292.2999999523,795218.309,795431.5999999046,795234.934,802101.551,5,600,16,
break,html.Screen,10_15_1,2023-11-30T19:03:34.190Z,,,,,,,,,,,NaN,,,,,,,,low,high,,,,,,,false,,,,,false,802292.7999999523,802292.6999998093,,802292.5,,802101.551,5,600,,
break_continue,html.Screen,10_15_2,2023-11-30T19:03:34.190Z,,,,,,,,,,,NaN,,,,,,,,low,high,,,,,,,false,,,,,false,802292.899999857,802292.7999999523,,802292.7999999523,,802101.551,5,600,,
sequence,flow.Sequence,10_15,2023-11-30T19:03:34.190Z,,,,,,,,,,,7057.865999952308,completion,,,,,,,low,high,,,,,,,false,,,,,false,802293,802292.7999999523,795218.309,795431.5,795234.934,802101.551,5,600,,
trial,html.Screen,10_16_0,2023-11-30T19:03:41.319Z,,,,1,-0.0158987717472563,-0.0292472192292015,,0.04,false,hl,7319.848999856971,response,1.0481746483551846,1.0477746223014812,-0.8818113526829761,-0.7465283499508132,1.0723525483057332,-0.9537269821256267,high,low,,ISIC_1366765.JPG,9,ISIC_0031248.JPG,28,25,false,0.21000000000000008,ll,keypress(f),0,false,809421.5,809421.399999857,802084.816,802293,802101.551,809234.985,5,600,17,
break,html.Screen,10_16_1,2023-11-30T19:03:41.319Z,,,,,,,,,,,NaN,,,,,,,,high,low,,,,,,,false,,,,,false,809422.0999999046,809422,,809421.6999998093,,809234.985,5,600,,
break_continue,html.Screen,10_16_2,2023-11-30T19:03:41.320Z,,,,,,,,,,,NaN,,,,,,,,high,low,,,,,,,false,,,,,false,809422.5999999046,809422.399999857,,809422.2999999523,,809234.985,5,600,,
sequence,flow.Sequence,10_16,2023-11-30T19:03:41.320Z,,,,,,,,,,,7320.848999856971,completion,,,,,,,high,low,,,,,,,false,,,,,false,809422.6999998093,809422.399999857,802084.816,802293,802101.551,809234.985,5,600,,
trial,html.Screen,10_17_0,2023-11-30T19:03:45.439Z,,,,1,-0.012020985739544,0.0126097407389903,,0.04,true,hh,4306.81499995233,response,1.004164099430695,1.0477746223014812,-0.8818113526829761,1.0674669038247562,1.0723525483057332,-0.9537269821256267,high,high,,ISIC_0069379.JPG,8,ISIC_0541345.JPG,28,28,false,0.13,hh,keypress(i),0,false,813542.0999999046,813541.7999999523,809218.301,809422.899999857,809234.985,813351.59,5,600,18,
break,html.Screen,10_17_1,2023-11-30T19:03:45.440Z,,,,,,,,,,,NaN,,,,,,,,high,high,,,,,,,false,,,,,false,813543.0999999046,813542.7999999523,,813542.5,,813351.59,5,600,,
break_continue,html.Screen,10_17_2,2023-11-30T19:03:45.441Z,,,,,,,,,,,NaN,,,,,,,,high,high,,,,,,,false,,,,,false,813543.7999999523,813543.5999999046,,813543.2999999523,,813351.59,5,600,,
sequence,flow.Sequence,10_17,2023-11-30T19:03:45.441Z,,,,,,,,,,,4308.6149999046465,completion,,,,,,,high,high,,,,,,,false,,,,,false,813544.0999999046,813543.5999999046,809218.301,809422.899999857,809234.985,813351.59,5,600,,
trial,html.Screen,10_18_0,2023-11-30T19:03:49.253Z,,,,1,-0.0071892445601978,0.0246015408628738,,0.04,true,ll,4004.6099998092977,response,-0.8984767404401109,1.0477746223014812,-0.8818113526829761,-1.0289479104867394,1.0723525483057332,-0.9537269821256267,low,low,,ISIC_0014133.JPG,9,ISIC_0011458.JPG,28,44,false,0.1,ll,keypress(f),0,false,817356.2999999523,817356.1999998093,813335.013,813544.1999998093,813351.59,817168.224,5,600,19,
break,html.Screen,10_18_1,2023-11-30T19:03:49.254Z,,,,,,,,,,,NaN,,,,,,,,low,low,,,,,,,false,,,,,false,817356.5999999046,817356.5,,817356.399999857,,817168.224,5,600,,
break_continue,html.Screen,10_18_2,2023-11-30T19:03:49.254Z,,,,,,,,,,,NaN,,,,,,,,low,low,,,,,,,false,,,,,false,817356.7999999523,817356.6999998093,,817356.6999998093,,817168.224,5,600,,
sequence,flow.Sequence,10_18,2023-11-30T19:03:49.254Z,,,,,,,,,,,4005.1099998092977,completion,,,,,,,low,low,,,,,,,false,,,,,false,817356.899999857,817356.6999998093,813335.013,813544.1999998093,813351.59,817168.224,5,600,,
trial,html.Screen,10_19_0,2023-11-30T19:03:57.175Z,,,,1,-0.0057914759495055,0.018500200317654,,0.04,true,hh,8109.275999999954,response,1.09666761087476,1.0477746223014812,-0.8818113526829761,0.9917482735105084,1.0723525483057332,-0.9537269821256267,high,high,,ISIC_0058723.JPG,9,ISIC_0071754.JPG,28,28,false,0.13,hh,keypress(i),0,false,825277.6999998093,825277.5,817151.706,817356.899999857,817168.224,825084.879,5,600,20,
break,html.Screen,10_19_1,2023-11-30T19:03:57.176Z,,,,,,,,,,,NaN,,,,,,,,high,high,,,,,,,false,,,,,false,825278.6999998093,825278.399999857,,825278,,825084.879,5,600,,
break_continue,html.Screen,10_19_2,2023-11-30T19:03:57.176Z,,,,,,,,,,,NaN,,,,,,,,high,high,,,,,,,false,,,,,false,825279.1999998093,825279,,825278.7999999523,,825084.879,5,600,,
sequence,flow.Sequence,10_19,2023-11-30T19:03:57.176Z,,,,,,,,,,,8110.775999999954,completion,,,,,,,high,high,,,,,,,false,,,,,false,825279.5,825279,817151.706,817356.899999857,817168.224,825084.879,5,600,,
trial,html.Screen,10_20_0,2023-11-30T19:04:00.751Z,,,,1,0.0365981355399771,0.0162670920008846,,0.04,true,hh,3769.0209998569917,response,0.9371720357162444,1.0477746223014812,-0.8818113526829761,0.9507421943628228,1.0723525483057332,-0.9537269821256267,high,high,,ISIC_0982855.JPG,9,ISIC_3730327.JPG,28,28,false,0.13,hh,keypress(i),0,false,828854.1999998093,828853.899999857,825068.243,825279.5999999046,825084.879,828668.172,5,600,21,
break,html.Screen,10_20_1,2023-11-30T19:04:00.752Z,,,,,,,,,,,NaN,,,,,,,,high,high,,,,,,,false,,,,,false,828855.0999999046,828854.899999857,,828854.399999857,,828668.172,5,600,,
break_continue,html.Screen,10_20_2,2023-11-30T19:04:00.753Z,,,,,,,,,,,NaN,,,,,,,,high,high,,,,,,,false,,,,,false,828855.5999999046,828855.399999857,,828855.1999998093,,828668.172,5,600,,
sequence,flow.Sequence,10_20,2023-11-30T19:04:00.753Z,,,,,,,,,,,3770.5209998569917,completion,,,,,,,high,high,,,,,,,false,,,,,false,828855.7999999523,828855.399999857,825068.243,825279.5,825084.879,828668.172,5,600,,
trial,html.Screen,10_21_0,2023-11-30T19:04:07.743Z,,,,1,-0.0158987717472563,-0.0292472192292015,,0.04,false,lh,7177.627999952296,response,-0.7277664800679337,1.0477746223014812,-0.8818113526829761,1.2162806898850131,1.0723525483057332,-0.9537269821256267,low,high,,ISIC_1366765.JPG,10,ISIC_0013777.JPG,28,25,false,0.18000000000000005,hl,keypress(j),0,false,835846,835845.7999999523,828651.685,828856,828668.172,835651.493,5,600,22,
break,html.Screen,10_21_1,2023-11-30T19:04:07.744Z,,,,,,,,,,,NaN,,,,,,,,low,high,,,,,,,false,,,,,false,835847.0999999046,835846.7999999523,,835846.399999857,,835651.493,5,600,,
break_continue,html.Screen,10_21_2,2023-11-30T19:04:07.745Z,,,,,,,,,,,NaN,,,,,,,,low,high,,,,,,,false,,,,,false,835847.6999998093,835847.399999857,,835847.1999998093,,835651.493,5,600,,
sequence,flow.Sequence,10_21,2023-11-30T19:04:07.745Z,,,,,,,,,,,7179.227999856928,completion,,,,,,,low,high,,,,,,,false,,,,,false,835847.7999999523,835847.399999857,828651.685,828855.899999857,828668.172,835651.493,5,600,,
trial,html.Screen,10_22_0,2023-11-30T19:04:12.639Z,,,,1,-0.0166849894750452,0.0371614812368835,,0.04,true,lh,5090.606999904616,response,-0.8015753713975186,1.0477746223014812,-0.8818113526829761,1.0067065355978264,1.0723525483057332,-0.9537269821256267,low,high,,ISIC_6231450.JPG,9,ISIC_0002119.JPG,28,25,false,0.18000000000000005,lh,keypress(e),0,false,840742.399999857,840742.0999999046,835635.072,835848.0999999046,835651.493,840551.482,5,600,23,
break,html.Screen,10_22_1,2023-11-30T19:04:12.640Z,,,,,,,,,,,NaN,,,,,,,,low,high,,,,,,,false,,,,,false,840743.399999857,840743.1999998093,,840742.6999998093,,840551.482,5,600,,
break_continue,html.Screen,10_22_2,2023-11-30T19:04:12.641Z,,,,,,,,,,,NaN,,,,,,,,low,high,,,,,,,false,,,,,false,840744.0999999046,840743.7999999523,,840743.5999999046,,840551.482,5,600,,
sequence,flow.Sequence,10_22,2023-11-30T19:04:12.641Z,,,,,,,,,,,5092.3069999522995,completion,,,,,,,low,high,,,,,,,false,,,,,false,840744.2999999523,840743.7999999523,835635.072,835848,835651.493,840551.482,5,600,,
trial,html.Screen,10_23_0,2023-11-30T19:04:15.821Z,,,,1,-0.0377791839943904,0.0227626648172468,,0.04,false,hl,3372.8179999523563,response,1.1162273456306029,1.0477746223014812,-0.8818113526829761,-0.7890271955816722,1.0723525483057332,-0.9537269821256267,high,low,,ISIC_7167479.JPG,8,ISIC_0011564.JPG,28,25,false,0.21000000000000008,ll,keypress(f),0,false,843924.399999857,843924.2999999523,840535.02,840744.5,840551.482,843734.96,5,600,24,
break,html.Screen,10_23_1,2023-11-30T19:04:15.822Z,,,,,,,,,,,NaN,,,,,,,,high,low,,,,,,,false,,,,,false,843924.6999998093,843924.6999998093,,843924.5999999046,,843734.96,5,600,,
break_continue,html.Screen,10_23_2,2023-11-30T19:04:15.822Z,,,,,,,,,,,NaN,,,,,,,,high,low,,,,,,,false,,,,,false,843924.899999857,843924.7999999523,,843924.7999999523,,843734.96,5,600,,
sequence,flow.Sequence,10_23,2023-11-30T19:04:15.822Z,,,,,,,,,,,3373.3179999523563,completion,,,,,,,high,low,,,,,,,false,,,,,false,843925,843924.7999999523,840535.02,840744.399999857,840551.482,843734.96,5,600,,
trial,html.Screen,10_24_0,2023-11-30T19:04:21.022Z,,,,1,-0.0377791839943904,0.0227626648172468,,0.04,true,hl,5389.540000000037,response,1.1162273456306029,1.0477746223014812,-0.8818113526829761,-0.7890271955816722,1.0723525483057332,-0.9537269821256267,high,low,,ISIC_7167479.JPG,9,ISIC_0011564.JPG,28,25,false,0.21000000000000008,hl,keypress(j),0,false,849124.5999999046,849124.5,843718.289,843925,843734.96,848934.85,5,600,25,
break,html.Screen,10_24_1,2023-11-30T19:04:21.022Z,,,,,,,,,,,NaN,,,,,,,,high,low,,,,,,,false,,,,,false,849125,849124.899999857,,849124.7999999523,,848934.85,5,600,,
break_continue,html.Screen,10_24_2,2023-11-30T19:04:21.022Z,,,,,,,,,,,NaN,,,,,,,,high,low,,,,,,,false,,,,,false,849125.0999999046,849125.0999999046,,849125.0999999046,,848934.85,5,600,,
sequence,flow.Sequence,10_24,2023-11-30T19:04:21.022Z,,,,,,,,,,,5390.13999990467,completion,,,,,,,high,low,,,,,,,false,,,,,false,849125.1999998093,849125.0999999046,843718.289,843925,843734.96,848934.85,5,600,,
trial,html.Screen,10_25_0,2023-11-30T19:04:27.040Z,,,,1,0.0063515208248796,0.0194177605767913,,0.04,true,hl,6207.650000000023,response,1.1235224875125256,1.0477746223014812,-0.8818113526829761,-0.8641223012137988,1.0723525483057332,-0.9537269821256267,high,low,,ISIC_5281908.JPG,9,ISIC_0033901.JPG,28,25,false,0.21000000000000008,hl,keypress(j),0,false,855142.6999998093,855142.5,848918.148,849125.2999999523,848934.85,854951.503,5,600,26,
break,html.Screen,10_25_1,2023-11-30T19:04:27.041Z,,,,,,,,,,,NaN,,,,,,,,high,low,,,,,,,false,,,,,false,855143.5999999046,855143.399999857,,855143,,854951.503,5,600,,
break_continue,html.Screen,10_25_2,2023-11-30T19:04:27.041Z,,,,,,,,,,,NaN,,,,,,,,high,low,,,,,,,false,,,,,false,855144.1999998093,855144,,855143.7999999523,,854951.503,5,600,,
sequence,flow.Sequence,10_25,2023-11-30T19:04:27.041Z,,,,,,,,,,,6209.150000000023,completion,,,,,,,high,low,,,,,,,false,,,,,false,855144.5,855144,848918.148,849125.2999999523,848934.85,854951.503,5,600,,
trial,html.Screen,10_26_0,2023-11-30T19:04:31.313Z,,,,1,-0.012020985739544,0.0126097407389903,,0.04,true,hh,4462.996999999974,response,1.0375203228848855,1.0477746223014812,-0.8818113526829761,1.0256934713188917,1.0723525483057332,-0.9537269821256267,high,high,,ISIC_0069379.JPG,9,ISIC_4264600.JPG,28,28,false,0.13,hh,keypress(i),0,false,859414.7999999523,859414.5,854934.779,855144.6999998093,854951.503,859218.09,5,600,27,
break,html.Screen,10_26_1,2023-11-30T19:04:31.313Z,,,,,,,,,,,NaN,,,,,,,,high,high,,,,,,,false,,,,,false,859415.6999998093,859415.5,,859415.0999999046,,859218.09,5,600,,
break_continue,html.Screen,10_26_2,2023-11-30T19:04:31.314Z,,,,,,,,,,,NaN,,,,,,,,high,high,,,,,,,false,,,,,false,859416.1999998093,859416.0999999046,,859415.899999857,,859218.09,5,600,,
sequence,flow.Sequence,10_26,2023-11-30T19:04:31.314Z,,,,,,,,,,,4464.5969999046065,completion,,,,,,,high,high,,,,,,,false,,,,,false,859416.399999857,859416.0999999046,854934.779,855144.6999998093,854951.503,859218.09,5,600,,
trial,html.Screen,10_27_0,2023-11-30T19:04:33.520Z,,,,1,0.0321039635696159,0.020496766286318,,0.04,true,hh,2404.1099998092977,response,1.1604734171556077,1.0477746223014812,-0.8818113526829761,1.0789312625280616,1.0723525483057332,-0.9537269821256267,high,high,,ISIC_0058063.JPG,9,ISIC_3950753.JPG,28,28,false,0.13,hh,keypress(i),0,false,861622.5,861622.1999998093,859201.674,859416.5999999046,859218.09,861434.763,5,600,28,
break,html.Screen,10_27_1,2023-11-30T19:04:33.521Z,,,,,,,,,,,NaN,,,,,,,,high,high,,,,,,,false,,,,,false,861623.399999857,861623.1999998093,,861622.7999999523,,861434.763,5,600,,
break_continue,html.Screen,10_27_2,2023-11-30T19:04:33.522Z,,,,,,,,,,,NaN,,,,,,,,high,high,,,,,,,false,,,,,false,861624,861623.6999998093,,861623.5,,861434.763,5,600,,
sequence,flow.Sequence,10_27,2023-11-30T19:04:33.522Z,,,,,,,,,,,2405.6099998092977,completion,,,,,,,high,high,,,,,,,false,,,,,false,861624.0999999046,861623.6999998093,859201.674,859416.5999999046,859218.09,861434.763,5,600,,
trial,html.Screen,10_28_0,2023-11-30T19:04:37.680Z,,,,1,-0.0399381815506136,-0.0177751789152893,,0.04,true,hl,4347.336999904597,response,0.9445114955578736,1.0477746223014812,-0.8818113526829761,-1.0054210059625863,1.0723525483057332,-0.9537269821256267,high,low,,ISIC_3981425.JPG,9,ISIC_0033807.JPG,28,25,false,0.21000000000000008,hl,keypress(j),0,false,865782.399999857,865782.0999999046,861418.049,861624.2999999523,861434.763,865584.717,5,600,29,
break,html.Screen,10_28_1,2023-11-30T19:04:37.681Z,,,,,,,,,,,NaN,,,,,,,,high,low,,,,,,,false,,,,,false,865783.2999999523,865783.0999999046,,865782.6999998093,,865584.717,5,600,,
break_continue,html.Screen,10_28_2,2023-11-30T19:04:37.682Z,,,,,,,,,,,NaN,,,,,,,,high,low,,,,,,,false,,,,,false,865783.899999857,865783.6999998093,,865783.5,,865584.717,5,600,,
sequence,flow.Sequence,10_28,2023-11-30T19:04:37.682Z,,,,,,,,,,,4348.93699980923,completion,,,,,,,high,low,,,,,,,false,,,,,false,865784.0999999046,865783.6999998093,861418.049,861624.2999999523,861434.763,865584.717,5,600,,
trial,html.Screen,10_29_0,2023-11-30T19:04:43.583Z,,,,1,-0.0350697500805515,-0.0166617848231997,,0.04,true,hh,6100.682999857003,response,1.1432120973785689,1.0477746223014812,-0.8818113526829761,0.973254467915268,1.0723525483057332,-0.9537269821256267,high,high,,ISIC_0024423.JPG,9,ISIC_2072219.JPG,28,28,false,0.13,hh,keypress(i),0,false,871685.5999999046,871685.399999857,865568.106,865784.2999999523,865584.717,871501.999,5,600,30,
break,html.Screen,10_29_1,2023-11-30T19:04:43.584Z,,,,,,,,,,,NaN,,,,,,,,high,high,,,,,,,false,,,,,false,871686.5,871686.2999999523,,871685.899999857,,871501.999,5,600,,
break_continue,html.Screen,10_29_2,2023-11-30T19:04:43.585Z,,,,,,,,,,,NaN,,,,,,,,high,high,,,,,,,false,,,,,false,871687,871686.899999857,,871686.6999998093,,871501.999,5,600,,
sequence,flow.Sequence,10_29,2023-11-30T19:04:43.585Z,,,,,,,,,,,6102.182999857003,completion,,,,,,,high,high,,,,,,,false,,,,,false,871687.1999998093,871686.899999857,865568.106,865784.2999999523,865584.717,871501.999,5,600,,
trial,html.Screen,10_30_0,2023-11-30T19:04:48.928Z,,,,1,0.0189295602385628,0.0128812415435153,,0.04,true,lh,5528.400999856996,response,-0.7184694103740017,1.0477746223014812,-0.8818113526829761,0.8981519261719684,1.0723525483057332,-0.9537269821256267,low,high,,ISIC_0010372.JPG,8,ISIC_8579259.JPG,28,25,false,0.18000000000000005,lh,keypress(e),0,false,877030.6999998093,877030.399999857,871468.303,871687.399999857,871501.999,876834.714,5,600,31,
break,html.Screen,10_30_1,2023-11-30T19:04:48.929Z,,,,,,,,,,,NaN,,,,,,,,low,high,,,,,,,false,,,,,false,877031.6999998093,877031.399999857,,877031,,876834.714,5,600,,
break_continue,html.Screen,10_30_2,2023-11-30T19:04:48.930Z,,,,,,,,,,,NaN,,,,,,,,low,high,,,,,,,false,,,,,false,877032.2999999523,877032.1999998093,,877031.899999857,,876834.714,5,600,,
sequence,flow.Sequence,10_30,2023-11-30T19:04:48.930Z,,,,,,,,,,,5530.200999809313,completion,,,,,,,low,high,,,,,,,false,,,,,false,877032.5,877032.1999998093,871468.303,871687.399999857,871501.999,876834.714,5,600,,
trial,html.Screen,10_31_0,2023-11-30T19:04:57.160Z,,,,1,0.0051046740562181,-0.0178832721027728,,0.04,true,lh,8426.885999904596,response,-0.7877592509894734,1.0477746223014812,-0.8818113526829761,1.1264694181779615,1.0723525483057332,-0.9537269821256267,low,high,,ISIC_9545819.JPG,9,ISIC_9058340.JPG,28,25,false,0.18000000000000005,lh,keypress(e),0,false,885261.899999857,885261.5999999046,876817.974,877032.6999998093,876834.714,885068.013,5,600,32,
break,html.Screen,10_31_1,2023-11-30T19:04:57.161Z,,,,,,,,,,,NaN,,,,,,,,low,high,,,,,,,false,,,,,false,885262.899999857,885262.5999999046,,885262.1999998093,,885068.013,5,600,,
break_continue,html.Screen,10_31_2,2023-11-30T19:04:57.161Z,,,,,,,,,,,NaN,,,,,,,,low,high,,,,,,,false,,,,,false,885263.399999857,885263.1999998093,,885263,,885068.013,5,600,,
sequence,flow.Sequence,10_31,2023-11-30T19:04:57.161Z,,,,,,,,,,,8428.485999809229,completion,,,,,,,low,high,,,,,,,false,,,,,false,885263.5,885263.1999998093,876817.974,877032.6999998093,876834.714,885068.013,5,600,,
trial,html.Screen,10_32_0,2023-11-30T19:05:02.926Z,,,,1,-0.0060918352854008,0.029032683404407,,0.04,false,hh,5960.286999952281,response,1.1513073368404492,1.0477746223014812,-0.8818113526829761,1.0485268550965705,1.0723525483057332,-0.9537269821256267,high,high,,ISIC_8436194.JPG,9,ISIC_0030666.JPG,28,28,false,0.13,hl,keypress(j),0,false,891028.5,891028.2999999523,885051.42,885263.7999999523,885068.013,890834.664,5,600,33,
break,html.Screen,10_32_1,2023-11-30T19:05:02.926Z,,,,,,,,,,,NaN,,,,,,,,high,high,,,,,,,false,,,,,false,891028.7999999523,891028.6999998093,,891028.5999999046,,890834.664,5,600,,
break_continue,html.Screen,10_32_2,2023-11-30T19:05:02.927Z,,,,,,,,,,,NaN,,,,,,,,high,high,,,,,,,false,,,,,false,891028.899999857,891028.899999857,,891028.7999999523,,890834.664,5,600,,
sequence,flow.Sequence,10_32,2023-11-30T19:05:02.927Z,,,,,,,,,,,5960.8869998569135,completion,,,,,,,high,high,,,,,,,false,,,,,false,891029,891028.899999857,885051.42,885263.7999999523,885068.013,890834.664,5,600,,
trial,html.Screen,10_33_0,2023-11-30T19:05:06.904Z,,,,1,0.0199897690678184,0.0312486875504497,,0.04,true,hh,4170.83600000001,response,0.9371720357162444,1.0477746223014812,-0.8818113526829761,0.9507421943628228,1.0723525483057332,-0.9537269821256267,high,high,,ISIC_5482426.JPG,10,ISIC_3730327.JPG,28,28,false,0.13,hh,keypress(i),0,false,895005.6999998093,895005.5,890818.082,891029,890834.664,894818.069,5,600,34,
break,html.Screen,10_33_1,2023-11-30T19:05:06.904Z,,,,,,,,,,,NaN,,,,,,,,high,high,,,,,,,false,,,,,false,895006.6999998093,895006.5,,895006,,894818.069,5,600,,
break_continue,html.Screen,10_33_2,2023-11-30T19:05:06.905Z,,,,,,,,,,,NaN,,,,,,,,high,high,,,,,,,false,,,,,false,895007.2999999523,895007.0999999046,,895006.7999999523,,894818.069,5,600,,
sequence,flow.Sequence,10_33,2023-11-30T19:05:06.905Z,,,,,,,,,,,4172.435999904643,completion,,,,,,,high,high,,,,,,,false,,,,,false,895007.5999999046,895007.0999999046,890818.082,891029,890834.664,894818.069,5,600,,
trial,html.Screen,10_34_0,2023-11-30T19:05:09.792Z,,,,1,0.0063515208248796,0.0194177605767913,,0.04,true,hh,3075.7309999522986,response,0.9991910338212396,1.0477746223014812,-0.8818113526829761,1.0085499824556403,1.0723525483057332,-0.9537269821256267,high,high,,ISIC_5281908.JPG,9,ISIC_7795549.JPG,28,28,false,0.13,hh,keypress(i),0,false,897894.0999999046,897893.7999999523,894801.575,895007.7999999523,894818.069,897701.473,5,600,35,
break,html.Screen,10_34_1,2023-11-30T19:05:09.793Z,,,,,,,,,,,NaN,,,,,,,,high,high,,,,,,,false,,,,,false,897895,897894.899999857,,897894.399999857,,897701.473,5,600,,
break_continue,html.Screen,10_34_2,2023-11-30T19:05:09.793Z,,,,,,,,,,,NaN,,,,,,,,high,high,,,,,,,false,,,,,false,897895.6999998093,897895.5,,897895.1999998093,,897701.473,5,600,,
sequence,flow.Sequence,10_34,2023-11-30T19:05:09.794Z,,,,,,,,,,,3077.4309999999823,completion,,,,,,,high,high,,,,,,,false,,,,,false,897895.899999857,897895.5,894801.575,895007.6999998093,894818.069,897701.473,5,600,,
trial,html.Screen,10_35_0,2023-11-30T19:05:12.606Z,,,,1,-0.0060934073440827,-0.0279108145883031,,0.04,true,ll,3006.826999952318,response,-0.9293599144917216,1.0477746223014812,-0.8818113526829761,-1.045616100036335,1.0723525483057332,-0.9537269821256267,low,low,,ISIC_0032604.JPG,9,ISIC_0011031.JPG,28,44,false,0.1,ll,keypress(f),0,false,900708.399999857,900708.2999999523,897684.816,897896,897701.473,900534.859,5,600,36,
break,html.Screen,10_35_1,2023-11-30T19:05:12.606Z,,,,,,,,,,,NaN,,,,,,,,low,low,,,,,,,false,,,,,false,900708.6999998093,900708.5999999046,,900708.5,,900534.859,5,600,,
break_continue,html.Screen,10_35_2,2023-11-30T19:05:12.607Z,,,,,,,,,,,NaN,,,,,,,,low,low,,,,,,,false,,,,,false,900708.899999857,900708.6999998093,,900708.6999998093,,900534.859,5,600,,
sequence,flow.Sequence,10_35,2023-11-30T19:05:12.607Z,,,,,,,,,,,3007.226999809267,completion,,,,,,,low,low,,,,,,,false,,,,,false,900708.899999857,900708.6999998093,897684.816,897896,897701.473,900534.859,5,600,,
trial,html.Screen,10_36_0,2023-11-30T19:05:15.103Z,,,,1,0.0367218428225813,-0.0026956749740767,,0.04,true,ll,2670.540999856894,response,-0.8531968652064474,1.0477746223014812,-0.8818113526829761,-1.0402692470955777,1.0723525483057332,-0.9537269821256267,low,low,,ISIC_7212271.JPG,9,ISIC_0056201.JPG,28,44,false,0.1,ll,keypress(f),0,false,903205.6999998093,903205.399999857,900518.176,900708.899999857,900534.859,903018.136,5,600,37,
break,html.Screen,10_36_1,2023-11-30T19:05:15.104Z,,,,,,,,,,,NaN,,,,,,,,low,low,,,,,,,false,,,,,false,903206.5999999046,903206.399999857,,903205.899999857,,903018.136,5,600,,
break_continue,html.Screen,10_36_2,2023-11-30T19:05:15.105Z,,,,,,,,,,,NaN,,,,,,,,low,low,,,,,,,false,,,,,false,903207.0999999046,903206.899999857,,903206.6999998093,,903018.136,5,600,,
sequence,flow.Sequence,10_36,2023-11-30T19:05:15.105Z,,,,,,,,,,,2672.040999856894,completion,,,,,,,low,low,,,,,,,false,,,,,false,903207.2999999523,903206.899999857,900518.176,900708.899999857,900534.859,903018.136,5,600,,
trial,html.Screen,10_37_0,2023-11-30T19:05:20.065Z,,,,1,-0.0377791839943904,0.0227626648172468,,0.04,true,hl,5148.463999904576,response,0.9445114955578736,1.0477746223014812,-0.8818113526829761,-1.0054210059625863,1.0723525483057332,-0.9537269821256267,high,low,,ISIC_7167479.JPG,9,ISIC_0033807.JPG,28,25,false,0.21000000000000008,hl,keypress(j),0,false,908166.899999857,908166.5999999046,903001.417,903207.5,903018.136,907968.019,5,600,38,
break,html.Screen,10_37_1,2023-11-30T19:05:20.066Z,,,,,,,,,,,NaN,,,,,,,,high,low,,,,,,,false,,,,,false,908167.7999999523,908167.5999999046,,908167.1999998093,,907968.019,5,600,,
break_continue,html.Screen,10_37_2,2023-11-30T19:05:20.066Z,,,,,,,,,,,NaN,,,,,,,,high,low,,,,,,,false,,,,,false,908168.399999857,908168.1999998093,,908168,,907968.019,5,600,,
sequence,flow.Sequence,10_37,2023-11-30T19:05:20.066Z,,,,,,,,,,,5150.063999809208,completion,,,,,,,high,low,,,,,,,false,,,,,false,908168.5999999046,908168.1999998093,903001.417,903207.5,903018.136,907968.019,5,600,,
