sender,sender_type,sender_id,timestamp,meta,,age,blockNo,c1,c2,condition,control_tolerance,correct,correctResponse,duration,ended_on,f1,f1_high,f1_low,f2,f2_high,f2_low,feature_level1,feature_level2,gender,img_left,img_reveal,img_right,n_control_images,n_target_images,practice,range_tolerance,response,response_action,selection_duration,staircase,time_commit,time_end,time_render,time_run,time_show,time_switch,total_blocks,total_trials,trialNo,url
informed_consent,html.Screen,0,2024-03-19T19:19:49.976Z,"{""labjs_version"":""20.2.4"",""labjs_build"":{""flavor"":""development"",""commit"":""f5b4a49f956347addd546a832a3327688c2c0fef""},""location"":""https://labjs.felixhenninger.com/api/labjs_preview/index.html"",""userAgent"":""Mozilla/5.0 (Windows NT 10.0; Win64; x64) AppleWebKit/537.36 (KHTML, like Gecko) Chrome/122.0.0.0 Safari/537.36"",""platform"":""Win32"",""language"":""en-US"",""locale"":""en-US"",""timeZone"":""America/Chicago"",""timezoneOffset"":300,""screen_width"":2560,""screen_height"":1440,""scroll_width"":1265,""scroll_height"":1278,""window_innerWidth"":1265,""window_innerHeight"":1326,""devicePixelRatio"":1}",,,,,,,,,,10138.300000047684,response,,,,,,,,,,,,,,,,,consent,click button,,,10698.200000047684,10690.700000047684,536.1,534.8999999761581,552.4,10711,,,,{}
Demography form,html.Form,1,2024-03-19T19:19:59.298Z,,,19,,,,,,,,9308.299999952316,form submission,,,,,,,,,female,,,,,,,,,,,,20019.5,20019.299999952316,10694.532,10698.5,10711,20035.8,,,,
Welcome,html.Screen,2,2024-03-19T19:20:12.650Z,,,,,,,"[""asym"",""col""]",,,,13334.999999952317,response,,,,,,,,,,,,,,,,,continue,click button,,,33371.5,33370.799999952316,20020.264,20019.600000023842,20035.8,33380,,,,
demo_instructions,html.Screen,3,2024-03-19T19:21:09.689Z,,,,,,,,,,,57030.10000002384,response,,,,,,,,,,,,,,,,,continue,click button,,,90410.79999995232,90410.10000002384,33364.6,33371.700000047684,33380,90427,,,,
trial,html.Screen,4_0_0,2024-03-19T19:21:22.248Z,,,,0,-1.1671212908494544,-1.1286681796701683,,,true,hh,12541.700000047684,response,1.1217390688497193,1.2,-1.2,1.2276600934505035,1.2,-1.2,high,high,,ISIC_0065022.JPG,,ISIC_0026344.JPG,,25,true,0.15000000000000002,hh,keypress(i),100,false,102969.20000004768,102968.70000004768,90411.332,90410.89999997616,90427,102988.9,1,16,1,
sequence,flow.Sequence,4_0,2024-03-19T19:21:22.259Z,,,,,,,,,,,12541.700000047684,completion,,,,,,,high,high,,,,,,,true,,,,,false,102980.20000004768,102968.70000004768,90411.332,90410.89999997616,90427,102988.9,1,16,,
trial,html.Screen,4_1_0,2024-03-19T19:21:32.105Z,,,,0,-1.1407514641016443,-1.280017651202714,,,true,hh,9836.700000023848,response,1.1727618800748076,1.2,-1.2,1.0636787813411093,1.2,-1.2,high,high,,ISIC_0072507.JPG,,ISIC_9690371.JPG,,25,true,0.15000000000000002,hh,keypress(i),100,false,112826.10000002384,112825.60000002384,102972.264,102980.39999997616,102988.9,112846.5,1,16,2,
sequence,flow.Sequence,4_1,2024-03-19T19:21:32.105Z,,,,,,,,,,,9836.700000023848,completion,,,,,,,high,high,,,,,,,true,,,,,false,112826.89999997616,112825.60000002384,102972.264,102980.39999997616,102988.9,112846.5,1,16,,
trial,html.Screen,4_2_0,2024-03-19T19:21:34.981Z,,,,0,-1.1711612520017805,-1.191169949562454,,,true,hh,2855.7999999523163,response,1.204229955025689,1.2,-1.2,1.0874249761617445,1.2,-1.2,high,high,,ISIC_0061936.JPG,,ISIC_0056930.JPG,,25,true,0.15000000000000002,hh,keypress(i),100,false,115702.89999997616,115702.29999995232,112830.464,112827.39999997616,112846.5,115732.3,1,16,3,
sequence,flow.Sequence,4_2,2024-03-19T19:21:34.982Z,,,,,,,,,,,2855.7999999523163,completion,,,,,,,high,high,,,,,,,true,,,,,false,115703.70000004768,115702.29999995232,112830.464,112827.20000004768,112846.5,115732.3,1,16,,
trial,html.Screen,4_3_0,2024-03-19T19:21:38.797Z,,,,0,-1.2872758518949912,-1.313723254903214,,,true,hh,3786.0999999761552,response,1.1655508270784471,1.2,-1.2,1.1162776063248168,1.2,-1.2,high,high,,ISIC_0064376.JPG,,ISIC_5509946.JPG,,25,true,0.15000000000000002,hh,keypress(i),100,false,119518.5,119518.39999997616,115716.232,115703.89999997616,115732.3,119551.5,1,16,4,
sequence,flow.Sequence,4_3,2024-03-19T19:21:38.797Z,,,,,,,,,,,3786.0999999761552,completion,,,,,,,high,high,,,,,,,true,,,,,false,119518.70000004768,119518.39999997616,115716.232,115703.89999997616,115732.3,119551.5,1,16,,
trial,html.Screen,4_4_0,2024-03-19T19:21:42.337Z,,,,0,1.1638334638021437,1.0846635401396965,,,true,ll,3506.399999976158,response,-1.1126049058422398,1.2,-1.2,-1.2305421124063929,1.2,-1.2,low,low,,ISIC_4718313.JPG,,ISIC_0071536.JPG,,27,true,0.12,ll,keypress(f),100,false,123058.39999997616,123057.89999997616,119534.9,119518.70000004768,119551.5,123088.4,1,16,5,
sequence,flow.Sequence,4_4,2024-03-19T19:21:42.338Z,,,,,,,,,,,3506.399999976158,completion,,,,,,,low,low,,,,,,,true,,,,,false,123059,123057.89999997616,119534.9,119518.70000004768,119551.5,123088.4,1,16,,
trial,html.Screen,4_5_0,2024-03-19T19:21:48.377Z,,,,0,1.1363600109870835,1.295816345369928,,,true,ll,6009.8000000476895,response,-1.3034518282811869,1.2,-1.2,-1.0897657776277234,1.2,-1.2,low,low,,ISIC_0026141.JPG,,ISIC_0071988.JPG,,41,true,0.15000000000000002,ll,keypress(f),100,false,129098.70000004768,129098.20000004768,123072.1,123059.39999997616,123088.4,129125.9,1,16,6,
sequence,flow.Sequence,4_5,2024-03-19T19:21:48.378Z,,,,,,,,,,,6009.8000000476895,completion,,,,,,,low,low,,,,,,,true,,,,,false,129099.39999997616,129098.20000004768,123072.1,123059.29999995232,123088.4,129125.9,1,16,,
trial,html.Screen,4_6_0,2024-03-19T19:21:52.002Z,,,,0,1.1604734171556077,1.0789312625280616,,,true,ll,3596.600000000006,response,-1.0698162624196283,1.2,-1.2,-1.0648460966097275,1.2,-1.2,low,low,,ISIC_3950753.JPG,,ISIC_0030552.JPG,,41,true,0.15000000000000002,ll,keypress(f),100,false,132723,132722.5,129110.566,129099.60000002384,129125.9,132746.9,1,16,7,
sequence,flow.Sequence,4_6,2024-03-19T19:21:52.002Z,,,,,,,,,,,3596.600000000006,completion,,,,,,,low,low,,,,,,,true,,,,,false,132723.60000002384,132722.5,129110.566,129099.60000002384,129125.9,132746.9,1,16,,
trial,html.Screen,4_7_0,2024-03-19T19:22:00.155Z,,,,0,1.1990772227054871,1.1224329926844498,,,true,ll,8128.899999952322,response,-1.2232482867978696,1.2,-1.2,-1.2451219760556858,1.2,-1.2,low,low,,ISIC_3425388.JPG,,ISIC_0030889.JPG,,41,true,0.15000000000000002,ll,keypress(f),100,false,140876.10000002384,140875.79999995232,132730.132,132723.89999997616,132746.9,140902.8,1,16,8,
sequence,flow.Sequence,4_7,2024-03-19T19:22:00.155Z,,,,,,,,,,,8128.899999952322,completion,,,,,,,low,low,,,,,,,true,,,,,false,140876.60000002384,140875.79999995232,132730.132,132723.79999995232,132746.9,140902.8,1,16,,
trial,html.Screen,4_8_0,2024-03-19T19:22:07.058Z,,,,0,0.849847885203758,-0.973447384095442,,,false,lh,6876.09999997617,response,-1.082730232773217,1.2,-1.2,0.8833175387485132,1.2,-1.2,low,high,,ISIC_9612228.JPG,,ISIC_0011933.JPG,,26,true,0.3300000000000002,ll,keypress(f),100,false,147779.29999995232,147778.89999997616,140886.932,140876.79999995232,140902.8,147809.1,1,16,9,
sequence,flow.Sequence,4_8,2024-03-19T19:22:07.059Z,,,,,,,,,,,6876.09999997617,completion,,,,,,,low,high,,,,,,,true,,,,,false,147779.89999997616,147778.89999997616,140886.932,140876.70000004768,140902.8,147809.1,1,16,,
trial,html.Screen,4_9_0,2024-03-19T19:22:22.338Z,,,,0,0.9039158082670506,-1.0517562064343149,,,true,lh,15249.100000047678,response,-0.9046170303418553,1.2,-1.2,1.0063426986460375,1.2,-1.2,low,high,,ISIC_0015411.JPG,,ISIC_0055759.JPG,,33,true,0.3600000000000002,lh,keypress(e),100,false,163058.70000004768,163058.20000004768,147792.666,147780.29999995232,147809.1,163088.2,1,16,10,
sequence,flow.Sequence,4_9,2024-03-19T19:22:22.339Z,,,,,,,,,,,15249.100000047678,completion,,,,,,,low,high,,,,,,,true,,,,,false,163059.39999997616,163058.20000004768,147792.666,147780.29999995232,147809.1,163088.2,1,16,,
trial,html.Screen,4_10_0,2024-03-19T19:22:27.763Z,,,,0,0.8479396253253069,-1.011054319516718,,,true,lh,5395.099999952305,response,-0.9293545888449,1.2,-1.2,1.551750455622795,1.2,-1.2,low,high,,ISIC_0063521.JPG,,ISIC_7717907.JPG,,33,true,0.3600000000000002,lh,keypress(e),100,false,168483.70000004768,168483.29999995232,163071.966,163059.70000004768,163088.2,168509.2,1,16,11,
sequence,flow.Sequence,4_10,2024-03-19T19:22:27.764Z,,,,,,,,,,,5395.099999952305,completion,,,,,,,low,high,,,,,,,true,,,,,false,168484.39999997616,168483.29999995232,163071.966,163059.60000002384,163088.2,168509.2,1,16,,
trial,html.Screen,4_11_0,2024-03-19T19:22:34.614Z,,,,0,0.8644465729542988,-0.8679598285079457,,,true,lh,6825.40000002383,response,-0.9670240379618178,1.2,-1.2,1.1806404773220665,1.2,-1.2,low,high,,ISIC_6718969.JPG,,ISIC_0002288.JPG,,33,true,0.3600000000000002,lh,keypress(e),100,false,175334.89999997616,175334.60000002384,168492.596,168484.79999995232,168509.2,175364.7,1,16,12,
sequence,flow.Sequence,4_11,2024-03-19T19:22:34.615Z,,,,,,,,,,,6825.40000002383,completion,,,,,,,low,high,,,,,,,true,,,,,false,175335.60000002384,175334.60000002384,168492.596,168484.70000004768,168509.2,175364.7,1,16,,
trial,html.Screen,4_12_0,2024-03-19T19:23:01.864Z,,,,0,-0.9566823908868002,0.9602125665128364,,,true,hl,27219.79999999999,response,1.1890109863264902,1.2,-1.2,-0.8867825318561365,1.2,-1.2,high,low,,ISIC_0056784.JPG,,ISIC_0072576.JPG,,29,true,0.3600000000000002,hl,keypress(j),100,false,202584.70000004768,202584.5,175348.732,175336,175364.7,202603.8,1,16,13,
sequence,flow.Sequence,4_12,2024-03-19T19:23:01.864Z,,,,,,,,,,,27219.79999999999,completion,,,,,,,high,low,,,,,,,true,,,,,false,202584.79999995232,202584.5,175348.732,175335.79999995232,175364.7,202603.8,1,16,,
trial,html.Screen,4_13_0,2024-03-19T19:23:04.712Z,,,,0,-1.052305774554686,1.3940181224717798,,,true,hl,2828.499999952328,response,1.0003671514840182,1.2,-1.2,-0.8992716557663581,1.2,-1.2,high,low,,ISIC_4175400.JPG,,ISIC_0061749.JPG,,29,true,0.3600000000000002,hl,keypress(j),100,false,205432.60000002384,205432.29999995232,202587.966,202584.89999997616,202603.8,205456.7,1,16,14,
sequence,flow.Sequence,4_13,2024-03-19T19:23:04.712Z,,,,,,,,,,,2828.499999952328,completion,,,,,,,high,low,,,,,,,true,,,,,false,205433.10000002384,205432.29999995232,202587.966,202584.79999995232,202603.8,205456.7,1,16,,
trial,html.Screen,4_14_0,2024-03-19T19:23:08.762Z,,,,0,-0.9566823908868002,0.9602125665128364,,,true,hl,4025.0999999523046,response,1.0143509683988825,1.2,-1.2,-1.0281980567462463,1.2,-1.2,high,low,,ISIC_0056784.JPG,,ISIC_0062031.JPG,,29,true,0.3600000000000002,hl,keypress(j),100,false,209482.10000002384,209481.79999995232,205440.232,205433.29999995232,205456.7,209510.1,1,16,15,
sequence,flow.Sequence,4_14,2024-03-19T19:23:08.762Z,,,,,,,,,,,4025.0999999523046,completion,,,,,,,high,low,,,,,,,true,,,,,false,209482.79999995232,209481.79999995232,205440.232,205433.20000004768,205456.7,209510.1,1,16,,
trial,html.Screen,4_15_0,2024-03-19T19:23:16.606Z,,,,0,-1.1592423187534993,1.067128884093211,,,true,hl,7815.799999976152,response,1.3559315773956395,1.2,-1.2,-0.924768326187701,1.2,-1.2,high,low,,ISIC_6854940.JPG,,ISIC_5101111.JPG,,29,true,0.3600000000000002,hl,keypress(j),100,false,217326.29999995232,217325.89999997616,209493.598,209483,209510.1,217349.3,1,16,16,
sequence,flow.Sequence,4_15,2024-03-19T19:23:16.606Z,,,,,,,,,,,7815.799999976152,completion,,,,,,,high,low,,,,,,,true,,,,,false,217327,217325.89999997616,209493.598,209482.89999997616,209510.1,217349.3,1,16,,
demonstration_loop,flow.Loop,4,2024-03-19T19:23:16.607Z,,,,,,,,,,,126898.89999997616,completion,,,,,,,,,,,,,,,true,,,,,false,217327.60000002384,217325.89999997616,90411.332,90410.89999997616,90427,217349.3,1,16,,
practice_instructions,html.Screen,5,2024-03-19T19:23:24.161Z,,,,,,,,,,,7525.8000000238535,response,,,,,,,,,,,,,,,,,continue,click button,,,224881.70000004768,224875.10000002384,217333.366,217327.79999995232,217349.3,224888.998,,,,
trial,html.Screen,6_0_0,2024-03-19T19:23:33.275Z,,,,1,-1.2974483548597415,-1.2071506593281005,,,false,hh,9099.901999976166,response,1.1655508270784471,1.2,-1.2,1.1162776063248168,1.2,-1.2,high,high,,ISIC_0011007.JPG,,ISIC_5509946.JPG,,25,true,0.15000000000000002,hl,keypress(j),0,false,233995.79999995232,233988.89999997616,224888.998,224881.70000004768,224888.998,234013.7,1,40,1,
sequence,flow.Sequence,6_0,2024-03-19T19:23:33.275Z,,,,,,,,,,,9099.901999976166,completion,,,,,,,high,high,,,,,,,true,,,,,false,233996,233988.89999997616,224888.998,224881.70000004768,224888.998,234013.7,1,40,,
trial,html.Screen,6_1_0,2024-03-19T19:23:43.084Z,,,,1,-1.1227373144244253,-1.1886610799377713,,,true,hh,9791.000000047672,response,1.1168199061753437,1.2,-1.2,1.212287319329914,1.2,-1.2,high,high,,ISIC_0059506.JPG,,ISIC_5919355.JPG,,25,true,0.15000000000000002,hh,keypress(i),0,false,243804.89999997616,243804.70000004768,233996.6,233996,234013.7,243821.4,1,40,2,
sequence,flow.Sequence,6_1,2024-03-19T19:23:43.085Z,,,,,,,,,,,9791.000000047672,completion,,,,,,,high,high,,,,,,,true,,,,,false,243805.29999995232,243804.70000004768,233996.6,233996,234013.7,243821.4,1,40,,
trial,html.Screen,6_2_0,2024-03-19T19:23:46.974Z,,,,1,-1.189469386514313,-1.3008582067137853,,,true,hh,3872.7000000238477,response,1.0878102877901663,1.2,-1.2,1.3154097543539391,1.2,-1.2,high,high,,ISIC_0010644.JPG,,ISIC_1413242.JPG,,25,true,0.15000000000000002,hh,keypress(i),0,false,247694.39999997616,247694.10000002384,243814.214,243805.5,243821.4,247722.084,1,40,3,
sequence,flow.Sequence,6_2,2024-03-19T19:23:46.974Z,,,,,,,,,,,3872.7000000238477,completion,,,,,,,high,high,,,,,,,true,,,,,false,247695,247694.10000002384,243814.214,243805.5,243821.4,247722.084,1,40,,
trial,html.Screen,6_3_0,2024-03-19T19:23:54.734Z,,,,1,-1.082730232773217,0.8833175387485132,,,false,hl,7731.815999976156,response,0.8479396253253069,1.2,-1.2,-1.011054319516718,1.2,-1.2,high,low,,ISIC_0011933.JPG,,ISIC_0063521.JPG,,29,true,0.3600000000000002,hh,keypress(i),0,false,255454.29999995232,255453.89999997616,247722.084,247695.20000004768,247722.084,255464.4,1,40,4,
sequence,flow.Sequence,6_3,2024-03-19T19:23:54.734Z,,,,,,,,,,,7731.815999976156,completion,,,,,,,high,low,,,,,,,true,,,,,false,255455,255453.89999997616,247722.084,247695.20000004768,247722.084,255464.4,1,40,,
trial,html.Screen,6_4_0,2024-03-19T19:24:07.838Z,,,,1,1.1655508270784471,1.1162776063248168,,,true,ll,13093.600000000006,response,-1.491871345670082,1.2,-1.2,-0.92354170722443,1.2,-1.2,low,low,,ISIC_5509946.JPG,,ISIC_0054350.JPG,,211,true,0.3300000000000002,ll,keypress(f),0,false,268558.2999999523,268558,255458.864,255455.20000004768,255464.4,268575.4,1,40,5,
sequence,flow.Sequence,6_4,2024-03-19T19:24:07.838Z,,,,,,,,,,,13093.600000000006,completion,,,,,,,low,low,,,,,,,true,,,,,false,268559,268558,255458.864,255455.10000002384,255464.4,268575.4,1,40,,
trial,html.Screen,6_5_0,2024-03-19T19:24:11.101Z,,,,1,-1.1671212908494544,-1.1286681796701683,,,false,hh,3245.899999952293,response,1.1217390688497193,1.2,-1.2,1.2276600934505035,1.2,-1.2,high,high,,ISIC_0065022.JPG,,ISIC_0026344.JPG,,25,true,0.15000000000000002,ll,keypress(f),0,false,271821.7000000477,271821.2999999523,268565.116,268559.2000000477,268575.4,271827.9,1,40,6,
sequence,flow.Sequence,6_5,2024-03-19T19:24:11.102Z,,,,,,,,,,,3245.899999952293,completion,,,,,,,high,high,,,,,,,true,,,,,false,271822.2999999523,271821.2999999523,268565.116,268559.2000000477,268575.4,271827.9,1,40,,
trial,html.Screen,6_6_0,2024-03-19T19:24:21.774Z,,,,1,-1.1407514641016443,-1.280017651202714,,,true,hh,10666.200000023819,response,1.0885984639975343,1.2,-1.2,1.2042618719491294,1.2,-1.2,high,high,,ISIC_0072507.JPG,,ISIC_0012740.JPG,,25,true,0.15000000000000002,hh,keypress(i),0,false,282494.5,282494.10000002384,271826.41,271822.5,271827.9,282503.4,1,40,7,
sequence,flow.Sequence,6_6,2024-03-19T19:24:21.775Z,,,,,,,,,,,10666.200000023819,completion,,,,,,,high,high,,,,,,,true,,,,,false,282495.2000000477,282494.10000002384,271826.41,271822.5,271827.9,282503.4,1,40,,
trial,html.Screen,6_7_0,2024-03-19T19:24:30.027Z,,,,1,1.0581281450494728,1.133169116569424,,,true,ll,8244.200000023819,response,-1.194799101954455,1.2,-1.2,-1.2071632388858642,1.2,-1.2,low,low,,ISIC_5490352.JPG,,ISIC_4347535.JPG,,27,true,0.12,ll,keypress(f),0,false,290747.60000002384,290747.60000002384,282495.48,282495.39999997616,282503.4,290759.9,1,40,8,
sequence,flow.Sequence,6_7,2024-03-19T19:24:30.027Z,,,,,,,,,,,8244.200000023819,completion,,,,,,,low,low,,,,,,,true,,,,,false,290747.7999999523,290747.60000002384,282495.48,282495.2999999523,282503.4,290759.9,1,40,,
trial,html.Screen,6_8_0,2024-03-19T19:24:36.702Z,,,,1,1.0581281450494728,1.133169116569424,,,true,ll,6661.999999976135,response,-1.238264833797662,1.2,-1.2,-1.176099940770289,1.2,-1.2,low,low,,ISIC_5490352.JPG,,ISIC_0032861.JPG,,41,true,0.15000000000000002,ll,keypress(f),0,false,297422.2999999523,297421.89999997616,290743.1,290747.89999997616,290759.9,297448.9,1,40,9,
sequence,flow.Sequence,6_8,2024-03-19T19:24:36.702Z,,,,,,,,,,,6661.999999976135,completion,,,,,,,low,low,,,,,,,true,,,,,false,297422.7999999523,297421.89999997616,290743.1,290747.89999997616,290759.9,297448.9,1,40,,
trial,html.Screen,6_9_0,2024-03-19T19:24:44.077Z,,,,1,-1.155796217969438,1.1646564121743912,,,true,hl,7348.499999976135,response,1.4748095371445096,1.2,-1.2,-0.9579010801034902,1.2,-1.2,high,low,,ISIC_2685523.JPG,,ISIC_0033216.JPG,,29,true,0.3600000000000002,hl,keypress(j),0,false,304797.7999999523,304797.39999997616,297443.662,297423.10000002384,297448.9,304816.812,1,40,10,
sequence,flow.Sequence,6_9,2024-03-19T19:24:44.078Z,,,,,,,,,,,7348.499999976135,completion,,,,,,,high,low,,,,,,,true,,,,,false,304798.2999999523,304797.39999997616,297443.662,297423,297448.9,304816.812,1,40,,
trial,html.Screen,6_10_0,2024-03-19T19:24:53.325Z,,,,1,-0.8709576717420565,1.2795156779072283,,,true,hl,9228.688000000024,response,0.9039158082670506,1.2,-1.2,-1.0517562064343149,1.2,-1.2,high,low,,ISIC_1925632.JPG,,ISIC_0015411.JPG,,29,true,0.3600000000000002,hl,keypress(j),0,false,314045.89999997616,314045.5,304816.812,304798.60000002384,304816.812,314063.4,1,40,11,
sequence,flow.Sequence,6_10,2024-03-19T19:24:53.326Z,,,,,,,,,,,9228.688000000024,completion,,,,,,,high,low,,,,,,,true,,,,,false,314046.5,314045.5,304816.812,304798.39999997616,304816.812,314063.4,1,40,,
trial,html.Screen,6_11_0,2024-03-19T19:25:00.141Z,,,,1,1.1217390688497193,1.2276600934505035,,,true,ll,6798.200000023819,response,-0.8998317940997821,1.2,-1.2,-1.1665943858643009,1.2,-1.2,low,low,,ISIC_0026344.JPG,,ISIC_0071388.JPG,,211,true,0.3300000000000002,ll,keypress(f),0,false,320861.89999997616,320861.60000002384,314045.7,314046.7000000477,314063.4,320868.5,1,40,12,
sequence,flow.Sequence,6_11,2024-03-19T19:25:00.142Z,,,,,,,,,,,6798.200000023819,completion,,,,,,,low,low,,,,,,,true,,,,,false,320862.5,320861.60000002384,314045.7,314046.60000002384,314063.4,320868.5,1,40,,
trial,html.Screen,6_12_0,2024-03-19T19:25:10.429Z,,,,1,1.1642596483638106,1.091507924157762,,,true,ll,10280.799999952316,response,-1.1407514641016443,1.2,-1.2,-1.280017651202714,1.2,-1.2,low,low,,ISIC_0765584.JPG,,ISIC_0072507.JPG,,41,true,0.15000000000000002,ll,keypress(f),0,false,331149.2999999523,331149.2999999523,320863.468,320862.7999999523,320868.5,331159.2,1,40,13,
sequence,flow.Sequence,6_12,2024-03-19T19:25:10.429Z,,,,,,,,,,,10280.799999952316,completion,,,,,,,low,low,,,,,,,true,,,,,false,331149.5,331149.2999999523,320863.468,320862.7000000477,320868.5,331159.2,1,40,,
trial,html.Screen,6_13_0,2024-03-19T19:25:18.846Z,,,,1,-1.1547137855907486,1.0185275168641534,,,true,hl,8406.699999976147,response,1.064425982109969,1.2,-1.2,-0.958564243697126,1.2,-1.2,high,low,,ISIC_7604870.JPG,,ISIC_3203344.JPG,,29,true,0.3600000000000002,hl,keypress(j),0,false,339566.2000000477,339565.89999997616,331152.662,331149.5,331159.2,339583.9,1,40,14,
sequence,flow.Sequence,6_13,2024-03-19T19:25:18.846Z,,,,,,,,,,,8406.699999976147,completion,,,,,,,high,low,,,,,,,true,,,,,false,339566.7999999523,339565.89999997616,331152.662,331149.5,331159.2,339583.9,1,40,,
trial,html.Screen,6_14_0,2024-03-19T19:25:26.078Z,,,,1,1.1890109863264902,-0.8867825318561365,,,true,lh,7213.999999976135,response,-1.055319394932912,1.2,-1.2,1.409116680310466,1.2,-1.2,low,high,,ISIC_0072576.JPG,,ISIC_6398669.JPG,,26,true,0.3300000000000002,lh,keypress(e),0,false,346798.2999999523,346797.89999997616,339577.57,339567.10000002384,339583.9,346806.5,1,40,15,
sequence,flow.Sequence,6_14,2024-03-19T19:25:26.078Z,,,,,,,,,,,7213.999999976135,completion,,,,,,,low,high,,,,,,,true,,,,,false,346798.7999999523,346797.89999997616,339577.57,339567,339583.9,346806.5,1,40,,
trial,html.Screen,6_15_0,2024-03-19T19:25:32.430Z,,,,1,-1.238264833797662,-1.176099940770289,,,true,hh,6343.299999952316,response,1.1655508270784471,1.2,-1.2,1.1162776063248168,1.2,-1.2,high,high,,ISIC_0032861.JPG,,ISIC_5509946.JPG,,157,true,0.3600000000000002,hh,keypress(i),0,false,353150.2000000477,353149.7999999523,346801.618,346799.10000002384,346806.5,353161.8,1,40,16,
sequence,flow.Sequence,6_15,2024-03-19T19:25:32.430Z,,,,,,,,,,,6343.299999952316,completion,,,,,,,high,high,,,,,,,true,,,,,false,353150.7999999523,353149.7999999523,346801.618,346799.10000002384,346806.5,353161.8,1,40,,
trial,html.Screen,6_16_0,2024-03-19T19:25:47.710Z,,,,1,1.2838089642212804,-0.8550527900640753,,,false,lh,15268.700000000012,response,-1.055319394932912,1.2,-1.2,1.409116680310466,1.2,-1.2,low,high,,ISIC_0034187.JPG,,ISIC_6398669.JPG,,26,true,0.3300000000000002,ll,keypress(f),0,false,368431,368430.5,353157.376,353151,353161.8,368444.522,1,40,17,
sequence,flow.Sequence,6_16,2024-03-19T19:25:47.711Z,,,,,,,,,,,15268.700000000012,completion,,,,,,,low,high,,,,,,,true,,,,,false,368431.7999999523,368430.5,353157.376,353150.89999997616,353161.8,368444.522,1,40,,
trial,html.Screen,6_17_0,2024-03-19T19:25:54.463Z,,,,1,0.8591294258188253,-0.870797302150167,,,true,lh,6738.478000000003,response,-0.8620516892494489,1.2,-1.2,1.1108509340502866,1.2,-1.2,low,high,,ISIC_0055841.JPG,,ISIC_5557806.JPG,,33,true,0.3600000000000002,lh,keypress(e),0,false,375183.5,375183,368444.522,368432.10000002384,368444.522,375196.7,1,40,18,
sequence,flow.Sequence,6_17,2024-03-19T19:25:54.464Z,,,,,,,,,,,6738.478000000003,completion,,,,,,,low,high,,,,,,,true,,,,,false,375184.39999997616,375183,368444.522,368432,368444.522,375196.7,1,40,,
trial,html.Screen,6_18_0,2024-03-19T19:25:59.757Z,,,,1,1.1510001454240106,1.132540312667795,,,true,ll,5281.000000047672,response,-0.9887623775450108,1.2,-1.2,-1.3267926876268592,1.2,-1.2,low,low,,ISIC_0009959.JPG,,ISIC_0054021.JPG,,249,true,0.3600000000000002,ll,keypress(f),0,false,380478.10000002384,380477.7000000477,375194.252,375184.7999999523,375196.7,380484.4,1,40,19,
sequence,flow.Sequence,6_18,2024-03-19T19:25:59.758Z,,,,,,,,,,,5281.000000047672,completion,,,,,,,low,low,,,,,,,true,,,,,false,380478.60000002384,380477.7000000477,375194.252,375184.7999999523,375196.7,380484.4,1,40,,
trial,html.Screen,6_19_0,2024-03-19T19:26:03.662Z,,,,1,-1.189469386514313,-1.3008582067137853,,,true,hh,3897.5999999999767,response,1.301795918505203,1.2,-1.2,1.0518606632781424,1.2,-1.2,high,high,,ISIC_0010644.JPG,,ISIC_0027666.JPG,,25,true,0.15000000000000002,hh,keypress(i),0,false,384382.39999997616,384382,380480.962,380478.89999997616,380484.4,384404.1,1,40,20,
sequence,flow.Sequence,6_19,2024-03-19T19:26:03.662Z,,,,,,,,,,,3897.5999999999767,completion,,,,,,,high,high,,,,,,,true,,,,,false,384382.89999997616,384382,380480.962,380478.7999999523,380484.4,384404.1,1,40,,
trial,html.Screen,6_20_0,2024-03-19T19:26:09.534Z,,,,1,1.064425982109969,-0.958564243697126,,,true,lh,5849.69999995234,response,-0.9670240379618178,1.2,-1.2,1.1806404773220665,1.2,-1.2,low,high,,ISIC_3203344.JPG,,ISIC_0002288.JPG,,26,true,0.3300000000000002,lh,keypress(e),0,false,390254.2999999523,390253.7999999523,384402.15,384383.2000000477,384404.1,390259.5,1,40,21,
sequence,flow.Sequence,6_20,2024-03-19T19:26:09.534Z,,,,,,,,,,,5849.69999995234,completion,,,,,,,low,high,,,,,,,true,,,,,false,390254.7999999523,390253.7999999523,384402.15,384383.2000000477,384404.1,390259.5,1,40,,
trial,html.Screen,6_21_0,2024-03-19T19:26:13.822Z,,,,1,1.00615481805876,-0.8428903771195875,,,true,lh,4283,response,-0.9046170303418553,1.2,-1.2,1.0063426986460375,1.2,-1.2,low,high,,ISIC_0069970.JPG,,ISIC_0055759.JPG,,33,true,0.3600000000000002,lh,keypress(e),0,false,394543,394542.5,390255.206,390255.10000002384,390259.5,394562.6,1,40,22,
sequence,flow.Sequence,6_21,2024-03-19T19:26:13.823Z,,,,,,,,,,,4283,completion,,,,,,,low,high,,,,,,,true,,,,,false,394543.7000000477,394542.5,390255.206,390255,390259.5,394562.6,1,40,,
trial,html.Screen,6_22_0,2024-03-19T19:26:24.989Z,,,,1,0.8779374983479176,-0.9745548032823428,,,true,lh,11147.000000023865,response,-0.9873794329144926,1.2,-1.2,0.9500689037516484,1.2,-1.2,low,high,,ISIC_2991354.JPG,,ISIC_0013498.JPG,,33,true,0.3600000000000002,lh,keypress(e),0,false,405710,405709.60000002384,394543.502,394544,394562.6,405730.06,1,40,23,
sequence,flow.Sequence,6_22,2024-03-19T19:26:24.990Z,,,,,,,,,,,11147.000000023865,completion,,,,,,,low,high,,,,,,,true,,,,,false,405710.5,405709.60000002384,394543.502,394543.89999997616,394562.6,405730.06,1,40,,
trial,html.Screen,6_23_0,2024-03-19T19:26:32.029Z,,,,1,-0.9225524349657857,0.929746784178986,,,true,hl,7019.239999952319,response,1.3411487193830047,1.2,-1.2,-1.198640448317381,1.2,-1.2,high,low,,ISIC_0011077.JPG,,ISIC_3093026.JPG,,29,true,0.3600000000000002,hl,keypress(j),0,false,412749.60000002384,412749.2999999523,405730.06,405710.7999999523,405730.06,412761,1,40,24,
sequence,flow.Sequence,6_23,2024-03-19T19:26:32.029Z,,,,,,,,,,,7019.239999952319,completion,,,,,,,high,low,,,,,,,true,,,,,false,412750.2000000477,412749.2999999523,405730.06,405710.7000000477,405730.06,412761,1,40,,
trial,html.Screen,6_24_0,2024-03-19T19:26:42.876Z,,,,1,1.2200968917423711,1.3183466064109373,,,true,ll,10835.600000023842,response,-1.00170887975541,1.2,-1.2,-0.9064772839637844,1.2,-1.2,low,low,,ISIC_3624318.JPG,,ISIC_0057067.JPG,,211,true,0.3300000000000002,ll,keypress(f),0,false,423596.89999997616,423596.60000002384,412755.826,412750.39999997616,412761,423602.2,1,40,25,
sequence,flow.Sequence,6_24,2024-03-19T19:26:42.876Z,,,,,,,,,,,10835.600000023842,completion,,,,,,,low,low,,,,,,,true,,,,,false,423597.10000002384,423596.60000002384,412755.826,412750.39999997616,412761,423602.2,1,40,,
trial,html.Screen,6_25_0,2024-03-19T19:26:49.707Z,,,,1,1.2838089642212804,-0.8550527900640753,,,true,lh,6825.40000002383,response,-1.155796217969438,1.2,-1.2,1.1646564121743912,1.2,-1.2,low,high,,ISIC_0034187.JPG,,ISIC_2685523.JPG,,26,true,0.3300000000000002,lh,keypress(e),0,false,430427.7000000477,430427.60000002384,423596.14,423597.10000002384,423602.2,430442.3,1,40,26,
sequence,flow.Sequence,6_25,2024-03-19T19:26:49.707Z,,,,,,,,,,,6825.40000002383,completion,,,,,,,low,high,,,,,,,true,,,,,false,430427.89999997616,430427.60000002384,423596.14,423597.10000002384,423602.2,430442.3,1,40,,
trial,html.Screen,6_26_0,2024-03-19T19:26:52.686Z,,,,1,-1.2435042401134029,-1.2939710463315144,,,true,hh,2963.9000000476954,response,1.0878102877901663,1.2,-1.2,1.3154097543539391,1.2,-1.2,high,high,,ISIC_0056119.JPG,,ISIC_1413242.JPG,,157,true,0.3600000000000002,hh,keypress(i),0,false,433406.60000002384,433406.2000000477,430426,430427.89999997616,430442.3,433428,1,40,27,
sequence,flow.Sequence,6_26,2024-03-19T19:26:52.686Z,,,,,,,,,,,2963.9000000476954,completion,,,,,,,high,high,,,,,,,true,,,,,false,433407.2000000477,433406.2000000477,430426,430427.89999997616,430442.3,433428,1,40,,
trial,html.Screen,6_27_0,2024-03-19T19:27:01.309Z,,,,1,-1.0961318727760048,1.2134960228256146,,,true,hl,8601.799999952316,response,1.2615315960773072,1.2,-1.2,-1.194084675079932,1.2,-1.2,high,low,,ISIC_9768421.JPG,,ISIC_0010044.JPG,,29,true,0.3600000000000002,hl,keypress(j),0,false,442030.2000000477,442029.7999999523,433426.72,433407.5,433428,442045.762,1,40,28,
sequence,flow.Sequence,6_27,2024-03-19T19:27:01.310Z,,,,,,,,,,,8601.799999952316,completion,,,,,,,high,low,,,,,,,true,,,,,false,442030.7000000477,442029.7999999523,433426.72,433407.39999997616,433428,442045.762,1,40,,
trial,html.Screen,6_28_0,2024-03-19T19:27:09.387Z,,,,1,-1.296989496412063,1.1425074323097002,,,true,hl,8061.838000023854,response,1.411763789273233,1.2,-1.2,-1.0057734478347988,1.2,-1.2,high,low,,ISIC_6356803.JPG,,ISIC_0027235.JPG,,29,true,0.3600000000000002,hl,keypress(j),0,false,450107.60000002384,450107.60000002384,442045.762,442031,442045.762,450125.7,1,40,29,
sequence,flow.Sequence,6_28,2024-03-19T19:27:09.387Z,,,,,,,,,,,8061.838000023854,completion,,,,,,,high,low,,,,,,,true,,,,,false,450107.7999999523,450107.60000002384,442045.762,442030.89999997616,442045.762,450125.7,1,40,,
trial,html.Screen,6_29_0,2024-03-19T19:27:12.349Z,,,,1,-1.1227373144244253,-1.1886610799377713,,,true,hh,2944.000000047672,response,1.353276440232689,1.2,-1.2,1.2252147363060195,1.2,-1.2,high,high,,ISIC_0059506.JPG,,ISIC_0031417.JPG,,127,true,0.3300000000000002,hh,keypress(i),0,false,453070.10000002384,453069.7000000477,450108.1,450107.7999999523,450125.7,453094.1,1,40,30,
sequence,flow.Sequence,6_29,2024-03-19T19:27:12.350Z,,,,,,,,,,,2944.000000047672,completion,,,,,,,high,high,,,,,,,true,,,,,false,453070.60000002384,453069.7000000477,450108.1,450107.7999999523,450125.7,453094.1,1,40,,
trial,html.Screen,6_30_0,2024-03-19T19:27:17.597Z,,,,1,1.225025174430573,-0.8422679054456499,,,true,lh,5223.400000000023,response,-0.8787496315223856,1.2,-1.2,1.3680901203013998,1.2,-1.2,low,high,,ISIC_7503950.JPG,,ISIC_0023811.JPG,,26,true,0.3300000000000002,lh,keypress(e),0,false,458317.89999997616,458317.5,453093.154,453070.89999997616,453094.1,458332,1,40,31,
sequence,flow.Sequence,6_30,2024-03-19T19:27:17.598Z,,,,,,,,,,,5223.400000000023,completion,,,,,,,low,high,,,,,,,true,,,,,false,458318.39999997616,458317.5,453093.154,453070.7999999523,453094.1,458332,1,40,,
trial,html.Screen,6_31_0,2024-03-19T19:27:24.494Z,,,,1,-0.887838744955182,1.3716210719758812,,,true,hl,6882.100000023842,response,0.9039158082670506,1.2,-1.2,-1.0517562064343149,1.2,-1.2,high,low,,ISIC_1488727.JPG,,ISIC_0015411.JPG,,29,true,0.3600000000000002,hl,keypress(j),0,false,465214.39999997616,465214.10000002384,458328.554,458318.7000000477,458332,465221.1,1,40,32,
sequence,flow.Sequence,6_31,2024-03-19T19:27:24.494Z,,,,,,,,,,,6882.100000023842,completion,,,,,,,high,low,,,,,,,true,,,,,false,465215,465214.10000002384,458328.554,458318.7000000477,458332,465221.1,1,40,,
trial,html.Screen,6_32_0,2024-03-19T19:27:31.117Z,,,,1,0.8779374983479176,-0.9745548032823428,,,true,lh,6616.799999976181,response,-1.2704198237183777,1.2,-1.2,1.138121072015301,1.2,-1.2,low,high,,ISIC_2991354.JPG,,ISIC_0501843.JPG,,26,true,0.3300000000000002,lh,keypress(e),0,false,471838.2999999523,471837.89999997616,465216.298,465215.2999999523,465221.1,471843.2,1,40,33,
sequence,flow.Sequence,6_32,2024-03-19T19:27:31.118Z,,,,,,,,,,,6616.799999976181,completion,,,,,,,low,high,,,,,,,true,,,,,false,471838.7000000477,471837.89999997616,465216.298,465215.2000000477,465221.1,471843.2,1,40,,
trial,html.Screen,6_33_0,2024-03-19T19:27:43.340Z,,,,1,-1.296989496412063,1.1425074323097002,,,true,hl,12217.299999999988,response,1.3411487193830047,1.2,-1.2,-1.198640448317381,1.2,-1.2,high,low,,ISIC_6356803.JPG,,ISIC_3093026.JPG,,29,true,0.3600000000000002,hl,keypress(j),0,false,484060.5,484060.5,471838.876,471839,471843.2,484069.2,1,40,34,
sequence,flow.Sequence,6_33,2024-03-19T19:27:43.340Z,,,,,,,,,,,12217.299999999988,completion,,,,,,,high,low,,,,,,,true,,,,,false,484060.60000002384,484060.5,471838.876,471839,471843.2,484069.2,1,40,,
trial,html.Screen,6_34_0,2024-03-19T19:27:48.862Z,,,,1,1.3471772753257971,1.055978100098093,,,true,ll,5512.799999999988,response,-0.8888187899385174,1.2,-1.2,-1.2022111230186514,1.2,-1.2,low,low,,ISIC_2077116.JPG,,ISIC_0070285.JPG,,211,true,0.3300000000000002,ll,keypress(f),0,false,489582.5,489582,484060.752,484060.60000002384,484069.2,489607.6,1,40,35,
sequence,flow.Sequence,6_34,2024-03-19T19:27:48.862Z,,,,,,,,,,,5512.799999999988,completion,,,,,,,low,low,,,,,,,true,,,,,false,489583.10000002384,489582,484060.752,484060.60000002384,484069.2,489607.6,1,40,,
trial,html.Screen,6_35_0,2024-03-19T19:27:54.782Z,,,,1,-1.296989496412063,1.1425074323097002,,,true,hl,5894.69999995234,response,1.3411487193830047,1.2,-1.2,-1.198640448317381,1.2,-1.2,high,low,,ISIC_6356803.JPG,,ISIC_3093026.JPG,,29,true,0.3600000000000002,hl,keypress(j),0,false,495502.7000000477,495502.2999999523,489603.952,489583.2999999523,489607.6,495512.7,1,40,36,
sequence,flow.Sequence,6_35,2024-03-19T19:27:54.782Z,,,,,,,,,,,5894.69999995234,completion,,,,,,,high,low,,,,,,,true,,,,,false,495503.2000000477,495502.2999999523,489603.952,489583.2999999523,489607.6,495512.7,1,40,,
trial,html.Screen,6_36_0,2024-03-19T19:28:00.765Z,,,,1,1.1217390688497193,1.2276600934505035,,,true,ll,5973.099999952305,response,-0.9789697360622612,1.2,-1.2,-1.3081076451896183,1.2,-1.2,low,low,,ISIC_0026344.JPG,,ISIC_0056406.JPG,,211,true,0.3300000000000002,ll,keypress(f),0,false,501486.2000000477,501485.7999999523,495509.004,495503.39999997616,495512.7,501500.9,1,40,37,
sequence,flow.Sequence,6_36,2024-03-19T19:28:00.766Z,,,,,,,,,,,5973.099999952305,completion,,,,,,,low,low,,,,,,,true,,,,,false,501486.7000000477,501485.7999999523,495509.004,495503.2999999523,495512.7,501500.9,1,40,,
trial,html.Screen,6_37_0,2024-03-19T19:28:06.590Z,,,,1,1.1217390688497193,1.2276600934505035,,,true,ll,5809.200000023819,response,-1.2015106101917423,1.2,-1.2,-1.3393124611420348,1.2,-1.2,low,low,,ISIC_0026344.JPG,,ISIC_0072496.JPG,,41,true,0.15000000000000002,ll,keypress(f),0,false,507310.5,507310.10000002384,501483,501487,501500.9,507322.7,1,40,38,
sequence,flow.Sequence,6_37,2024-03-19T19:28:06.590Z,,,,,,,,,,,5809.200000023819,completion,,,,,,,low,low,,,,,,,true,,,,,false,507311,507310.10000002384,501483,501486.89999997616,501500.9,507322.7,1,40,,
trial,html.Screen,6_38_0,2024-03-19T19:28:09.549Z,,,,1,-1.089914260719518,-1.1695563571046357,,,true,hh,2946.7999999999884,response,1.2200968917423711,1.2,-1.2,1.3183466064109373,1.2,-1.2,high,high,,ISIC_0030695.JPG,,ISIC_3624318.JPG,,25,true,0.15000000000000002,hh,keypress(i),0,false,510270,510269.5,507306.2,507311.39999997616,507322.7,510291.3,1,40,39,
sequence,flow.Sequence,6_38,2024-03-19T19:28:09.550Z,,,,,,,,,,,2946.7999999999884,completion,,,,,,,high,high,,,,,,,true,,,,,false,510270.39999997616,510269.5,507306.2,507311.2999999523,507322.7,510291.3,1,40,,
trial,html.Screen,6_39_0,2024-03-19T19:28:16.189Z,,,,1,1.1224745971429997,-0.8423270217438888,,,true,lh,6618.59999997617,response,-1.1547137855907486,1.2,-1.2,1.0185275168641534,1.2,-1.2,low,high,,ISIC_0057032.JPG,,ISIC_7604870.JPG,,26,true,0.3300000000000002,lh,keypress(e),0,false,516910.2999999523,516909.89999997616,510289.888,510270.7000000477,510291.3,516930.9,1,40,40,
sequence,flow.Sequence,6_39,2024-03-19T19:28:16.190Z,,,,,,,,,,,6618.59999997617,completion,,,,,,,low,high,,,,,,,true,,,,,false,516910.7999999523,516909.89999997616,510289.888,510270.7000000477,510291.3,516930.9,1,40,,
practice_loop,flow.Loop,6,2024-03-19T19:28:16.190Z,,,,,,,,,,,292020.90199997614,completion,,,,,,,,,,,,,,,true,,,,,false,516911.10000002384,516909.89999997616,224888.998,224881.70000004768,224888.998,516930.9,1,40,,
stair_instructions,html.Screen,7,2024-03-19T19:28:28.003Z,,,,,,,,,,,11792.499999976135,response,,,,,,,,,,,,,,,,,continue,click button,,,528724,528723.3999999762,516909.242,516911.2999999523,516930.9,528739.4,,,,
trial,html.Screen,8_0_0,2024-03-19T19:28:36.869Z,,,,2,-0.012020985739544,0.0126097407389903,,0.04,true,ll,8849.999999976135,response,-1.042500842905652,1.2,-1.2,-1.083053464502593,1.2,-1.2,low,low,,ISIC_0069379.JPG,,ISIC_0071135.JPG,28,249,false,0.3600000000000002,ll,keypress(f),0,true,537589.5,537589.3999999762,528723.964,528724.1000000238,528739.4,537614.6,1,40,1,
sequence,flow.Sequence,8_0,2024-03-19T19:28:36.869Z,,,,,,,,,,,8849.999999976135,completion,,,,,,,low,low,,,,,,,false,,,,,true,537589.6000000238,537589.3999999762,528723.964,528724.1000000238,528739.4,537614.6,1,40,,
trial,html.Screen,8_1_0,2024-03-19T19:28:52.037Z,,,,2,-0.0060918352854008,0.029032683404407,,0.04,true,hl,15143.000000023865,response,1.2615315960773072,1.15,-1.15,-1.194084675079932,1.15,-1.15,high,low,,ISIC_8436194.JPG,,ISIC_0010044.JPG,28,27,false,0.31000000000000016,hl,keypress(j),0,true,552757.7000000477,552757.6000000238,537597.4,537589.7000000477,537614.6,552777.3,1,40,2,
sequence,flow.Sequence,8_1,2024-03-19T19:28:52.037Z,,,,,,,,,,,15143.000000023865,completion,,,,,,,high,low,,,,,,,false,,,,,true,552757.7999999523,552757.6000000238,537597.4,537589.7000000477,537614.6,552777.3,1,40,,
trial,html.Screen,8_2_0,2024-03-19T19:29:01.103Z,,,,2,-0.0118555311043871,-0.0087774532070196,,0.04,false,lh,9045.599999976112,response,-0.887838744955182,1.15,-1.15,1.3716210719758812,1.15,-1.0999999999999999,low,high,,ISIC_6488658.JPG,,ISIC_1488727.JPG,28,25,false,0.28000000000000014,hh,keypress(i),0,true,561823.3999999762,561822.8999999762,552764.9,552757.8999999762,552777.3,561834.1,1,40,3,
sequence,flow.Sequence,8_2,2024-03-19T19:29:01.103Z,,,,,,,,,,,9045.599999976112,completion,,,,,,,low,high,,,,,,,false,,,,,true,561824.1000000238,561822.8999999762,552764.9,552757.8999999762,552777.3,561834.1,1,40,,
trial,html.Screen,8_3_0,2024-03-19T19:29:10.270Z,,,,2,0.0361875505619981,-0.0291457404567876,,0.04,true,ll,9156.19999995234,response,-1.0710981257723884,1.15,-1.15,-0.9983143500894516,1.15,-1.0999999999999999,low,low,,ISIC_0027480.JPG,,ISIC_0026652.JPG,28,27,false,0.11,ll,keypress(f),0,true,570990.6000000238,570990.2999999523,561827.434,561824.3999999762,561834.1,571008.3,1,40,4,
sequence,flow.Sequence,8_3,2024-03-19T19:29:10.270Z,,,,,,,,,,,9156.19999995234,completion,,,,,,,low,low,,,,,,,false,,,,,true,570991.2000000477,570990.2999999523,561827.434,561824.2999999523,561834.1,571008.3,1,40,,
trial,html.Screen,8_4_0,2024-03-19T19:29:24.734Z,,,,2,-0.0077673378094614,-0.0021810768579373,,0.04,false,lh,14446.300000023795,response,-1.2609895831255231,1.15,-1.15,1.0687377724194886,1.15,-1.0999999999999999,low,high,,ISIC_0067621.JPG,,ISIC_1367610.JPG,28,25,false,0.28000000000000014,hh,keypress(i),0,true,585455,585454.6000000238,571001.34,570991.5,571008.3,585470.3,1,40,5,
sequence,flow.Sequence,8_4,2024-03-19T19:29:24.734Z,,,,,,,,,,,14446.300000023795,completion,,,,,,,low,high,,,,,,,false,,,,,true,585455.3999999762,585454.6000000238,571001.34,570991.3999999762,571008.3,585470.3,1,40,,
trial,html.Screen,8_5_0,2024-03-19T19:29:28.798Z,,,,2,-0.0060918352854008,0.029032683404407,,0.04,false,lh,4048.5999999761116,response,-0.887838744955182,1.15,-1.15,1.3716210719758812,1.0999999999999999,-1.0999999999999999,low,high,,ISIC_8436194.JPG,,ISIC_1488727.JPG,28,25,false,0.28000000000000014,hh,keypress(i),0,true,589519.2999999523,589518.8999999762,585459.062,585455.7000000477,585470.3,589523.8,1,40,6,
sequence,flow.Sequence,8_5,2024-03-19T19:29:28.799Z,,,,,,,,,,,4048.5999999761116,completion,,,,,,,low,high,,,,,,,false,,,,,true,589519.8999999762,589518.8999999762,585459.062,585455.7000000477,585470.3,589523.8,1,40,,
trial,html.Screen,8_6_0,2024-03-19T19:29:32.604Z,,,,2,-0.0350697500805515,-0.0166617848231997,,0.04,true,hh,3800.9999999522697,response,1.2697143823582573,1.15,-1.15,0.9945790725150012,1.0999999999999999,-1.0999999999999999,high,high,,ISIC_0024423.JPG,,ISIC_8909545.JPG,28,26,false,0.13,hh,keypress(i),0,true,593325,593324.7999999523,589521.378,589520.2000000477,589523.8,593344.1,1,40,7,
sequence,flow.Sequence,8_6,2024-03-19T19:29:32.604Z,,,,,,,,,,,3800.9999999522697,completion,,,,,,,high,high,,,,,,,false,,,,,true,593325.1000000238,593324.7999999523,589521.378,589520.1000000238,589523.8,593344.1,1,40,,
trial,html.Screen,8_7_0,2024-03-19T19:29:35.980Z,,,,2,-0.0060934073440827,-0.0279108145883031,,0.04,true,hh,3356.9000000000233,response,1.1727618800748076,1.1331000722454412,-1.15,1.0636787813411093,1.1331000722454412,-1.0999999999999999,high,high,,ISIC_0032604.JPG,,ISIC_9690371.JPG,28,26,false,0.13,hh,keypress(i),0,true,596701.1000000238,596701,593324.678,593325.1000000238,593344.1,596713,1,40,8,
sequence,flow.Sequence,8_7,2024-03-19T19:29:35.980Z,,,,,,,,,,,3356.9000000000233,completion,,,,,,,high,high,,,,,,,false,,,,,true,596701.2999999523,596701,593324.678,593325.1000000238,593344.1,596713,1,40,,
trial,html.Screen,8_8_0,2024-03-19T19:29:41.934Z,,,,2,-0.012020985739544,0.0126097407389903,,0.04,false,lh,5941.899999976158,response,-1.2043484010107477,1.1331000722454412,-1.15,1.2178113180138233,1.1331000722454412,-1.0999999999999999,low,high,,ISIC_0069379.JPG,,ISIC_0011917.JPG,28,26,false,0.28000000000000014,ll,keypress(f),0,true,602655.3999999762,602654.8999999762,596711.228,596701.3999999762,596713,602668,1,40,9,
sequence,flow.Sequence,8_8,2024-03-19T19:29:41.935Z,,,,,,,,,,,5941.899999976158,completion,,,,,,,low,high,,,,,,,false,,,,,true,602656.2000000477,602654.8999999762,596711.228,596701.3999999762,596713,602668,1,40,,
trial,html.Screen,8_9_0,2024-03-19T19:29:47.374Z,,,,2,0.0189295602385628,0.0128812415435153,,0.04,false,hl,5426.799999952316,response,1.3559315773956395,1.1331000722454412,-1.15,-0.924768326187701,1.1831000722454412,-1.0999999999999999,high,low,,ISIC_0010372.JPG,,ISIC_5101111.JPG,28,27,false,0.28000000000000014,hh,keypress(i),0,true,608095.1000000238,608094.7999999523,602663.902,602656.5,602668,608105.8,1,40,10,
sequence,flow.Sequence,8_9,2024-03-19T19:29:47.375Z,,,,,,,,,,,5426.799999952316,completion,,,,,,,high,low,,,,,,,false,,,,,true,608095.7000000477,608094.7999999523,602663.902,602656.3999999762,602668,608105.8,1,40,,
trial,html.Screen,8_10_0,2024-03-19T19:29:56.781Z,,,,2,0.0063515208248796,0.0194177605767913,,0.04,true,ll,9396.300000023795,response,-1.2232482867978696,1.0831000722454411,-1.15,-1.2451219760556858,1.1831000722454412,-1.15,low,low,,ISIC_5281908.JPG,,ISIC_0030889.JPG,28,25,false,0.11,ll,keypress(f),0,true,617502.5,617502.1000000238,608102.356,608096,608105.8,617513.7,1,40,11,
sequence,flow.Sequence,8_10,2024-03-19T19:29:56.782Z,,,,,,,,,,,9396.300000023795,completion,,,,,,,low,low,,,,,,,false,,,,,true,617503.1000000238,617502.1000000238,608102.356,608095.8999999762,608105.8,617513.7,1,40,,
trial,html.Screen,8_11_0,2024-03-19T19:30:05.182Z,,,,2,-0.0350697500805515,-0.0166617848231997,,0.04,true,ll,8389.400000023888,response,-1.2383563585964383,1.0831000722454411,-1.1841851314267775,-1.0364354388740975,1.1831000722454412,-1.15,low,low,,ISIC_0024423.JPG,,ISIC_0027622.JPG,28,28,false,0.12,ll,keypress(f),0,true,625903.5,625903.1000000238,617506.764,617503.2999999523,617513.7,625920.4,1,40,12,
sequence,flow.Sequence,8_11,2024-03-19T19:30:05.183Z,,,,,,,,,,,8389.400000023888,completion,,,,,,,low,low,,,,,,,false,,,,,true,625904.1000000238,625903.1000000238,617506.764,617503.2999999523,617513.7,625920.4,1,40,,
trial,html.Screen,8_12_0,2024-03-19T19:30:10.507Z,,,,2,0.0321039635696159,0.020496766286318,,0.04,false,lh,5307.399999952293,response,-1.0961318727760048,1.0831000722454411,-1.1841851314267775,1.2134960228256146,1.1831000722454412,-1.0873958987352679,low,high,,ISIC_0058063.JPG,,ISIC_9768421.JPG,28,25,false,0.31000000000000016,hh,keypress(i),0,true,631227.8999999762,631227.7999999523,625914.504,625904.2999999523,625920.4,631241.2,1,40,13,
sequence,flow.Sequence,8_12,2024-03-19T19:30:10.507Z,,,,,,,,,,,5307.399999952293,completion,,,,,,,low,high,,,,,,,false,,,,,true,631228,631227.7999999523,625914.504,625904.2999999523,625920.4,631241.2,1,40,,
trial,html.Screen,8_13_0,2024-03-19T19:30:19.951Z,,,,2,0.010035581303589,-0.0100711721396864,,0.04,false,hl,9430.699999976205,response,0.9013888878932071,1.0831000722454411,-1.1841851314267775,-0.9328095253308732,1.1831000722454412,-1.0873958987352679,high,low,,ISIC_0030592.JPG,,ISIC_0068259.JPG,28,25,false,0.2600000000000001,hh,keypress(i),0,true,640672.5,640671.8999999762,631224.7,631228.1000000238,631241.2,640682.7,1,40,14,
sequence,flow.Sequence,8_13,2024-03-19T19:30:19.952Z,,,,,,,,,,,9430.699999976205,completion,,,,,,,high,low,,,,,,,false,,,,,true,640673.2000000477,640671.8999999762,631224.7,631228,631241.2,640682.7,1,40,,
trial,html.Screen,8_14_0,2024-03-19T19:30:23.677Z,,,,2,-0.0158987717472563,-0.0292472192292015,,0.04,true,hh,3715.6999999762047,response,1.0581281450494728,1.0831000722454411,-1.1841851314267775,1.133169116569424,1.1831000722454412,-1.137395898735268,high,high,,ISIC_1366765.JPG,,ISIC_5490352.JPG,28,26,false,0.13,hh,keypress(i),0,true,644398.7999999523,644398.3999999762,640675.796,640673.6000000238,640682.7,644419.4,1,40,15,
sequence,flow.Sequence,8_14,2024-03-19T19:30:23.678Z,,,,,,,,,,,3715.6999999762047,completion,,,,,,,high,high,,,,,,,false,,,,,true,644399.2999999523,644398.3999999762,640675.796,640673.6000000238,640682.7,644419.4,1,40,,
trial,html.Screen,8_15_0,2024-03-19T19:30:29.294Z,,,,2,-0.0166849894750452,0.0371614812368835,,0.04,true,hh,5595.499999976135,response,0.9462198986993904,0.9672790022313156,-1.1841851314267775,1.067111862128132,0.9672790022313156,-1.137395898735268,high,high,,ISIC_6231450.JPG,,ISIC_3564461.JPG,28,26,false,0.1,hh,keypress(i),0,true,650015.3999999762,650014.8999999762,644400.558,644399.6000000238,644419.4,650023.6,1,40,16,
sequence,flow.Sequence,8_15,2024-03-19T19:30:29.295Z,,,,,,,,,,,5595.499999976135,completion,,,,,,,high,high,,,,,,,false,,,,,true,650016,650014.8999999762,644400.558,644399.5,644419.4,650023.6,1,40,,
trial,html.Screen,8_16_0,2024-03-19T19:30:43.022Z,,,,2,0.0189295602385628,0.0128812415435153,,0.04,false,hl,13718.900000000023,response,0.8494721812820843,0.9672790022313156,-1.1841851314267775,-1.3435429139974266,0.9672790022313156,-1.137395898735268,high,low,,ISIC_0010372.JPG,,ISIC_0033585.JPG,28,26,false,0.2600000000000001,hh,keypress(i),0,true,663742.8999999762,663742.5,650020.182,650016.2999999523,650023.6,663751.7,1,40,17,
sequence,flow.Sequence,8_16,2024-03-19T19:30:43.022Z,,,,,,,,,,,13718.900000000023,completion,,,,,,,high,low,,,,,,,false,,,,,true,663743.5,663742.5,650020.182,650016.2999999523,650023.6,663751.7,1,40,,
trial,html.Screen,8_17_0,2024-03-19T19:30:49.373Z,,,,2,-0.0077673378094614,-0.0021810768579373,,0.04,true,ll,6342.50000004773,response,-1.2055236989581275,0.908292021705108,-1.1841851314267775,-1.1960893075698802,0.9672790022313156,-1.187395898735268,low,low,,ISIC_0067621.JPG,,ISIC_0072393.JPG,28,27,false,0.12,ll,keypress(f),0,true,670094.6000000238,670094.2000000477,663741.058,663743.7000000477,663751.7,670107,1,40,18,
sequence,flow.Sequence,8_17,2024-03-19T19:30:49.374Z,,,,,,,,,,,6342.50000004773,completion,,,,,,,low,low,,,,,,,false,,,,,true,670095.1000000238,670094.2000000477,663741.058,663743.6000000238,663751.7,670107,1,40,,
trial,html.Screen,8_18_0,2024-03-19T19:31:01.707Z,,,,2,-0.0158987717472563,-0.0292472192292015,,0.04,true,lh,12321.200000047684,response,-1.296989496412063,0.908292021705108,-1.1841851314267775,1.1425074323097002,0.9672790022313156,-1.187395898735268,low,high,,ISIC_1366765.JPG,,ISIC_6356803.JPG,28,26,false,0.2600000000000001,lh,keypress(e),0,true,682428.2999999523,682428.2000000477,670102.076,670095.3999999762,670107,682433.8,1,40,19,
sequence,flow.Sequence,8_18,2024-03-19T19:31:01.707Z,,,,,,,,,,,12321.200000047684,completion,,,,,,,low,high,,,,,,,false,,,,,true,682428.5,682428.2000000477,670102.076,670095.2999999523,670107,682433.8,1,40,,
trial,html.Screen,8_19_0,2024-03-19T19:31:08.124Z,,,,2,-0.0377791839943904,0.0227626648172468,,0.04,true,hh,6411.300000023795,response,0.913084438298574,0.908292021705108,-1.1341851314267775,0.8279199409322678,0.9172790022313155,-1.187395898735268,high,high,,ISIC_7167479.JPG,,ISIC_8637134.JPG,28,36,false,0.1,hh,keypress(i),0,true,688845.2999999523,688845.1000000238,682424.514,682428.5,682433.8,688854.7,1,40,20,
sequence,flow.Sequence,8_19,2024-03-19T19:31:08.124Z,,,,,,,,,,,6411.300000023795,completion,,,,,,,high,high,,,,,,,false,,,,,true,688845.5,688845.1000000238,682424.514,682428.5,682433.8,688854.7,1,40,,
trial,html.Screen,8_20_0,2024-03-19T19:31:14.234Z,,,,2,-0.00126575685933,-0.0325046559638838,,0.04,true,ll,6101.099999952363,response,-1.0474638406367112,0.908292021705108,-1.1341851314267775,-1.2142897533079478,0.9172790022313155,-1.187395898735268,low,low,,ISIC_5682259.JPG,,ISIC_0025277.JPG,28,29,false,0.11,ll,keypress(f),0,true,694955.8999999762,694955.7999999523,688851.45,688845.7000000477,688854.7,694959.7,1,40,21,
sequence,flow.Sequence,8_20,2024-03-19T19:31:14.235Z,,,,,,,,,,,6101.099999952363,completion,,,,,,,low,low,,,,,,,false,,,,,true,694955.8999999762,694955.7999999523,688851.45,688845.7000000477,688854.7,694959.7,1,40,,
trial,html.Screen,8_21_0,2024-03-19T19:31:21.770Z,,,,2,-0.0060918352854008,0.029032683404407,,0.04,true,ll,7532.00000004773,response,-1.042500842905652,0.908292021705108,-1.1341851314267775,-1.083053464502593,0.9172790022313155,-1.0808767969723294,low,low,,ISIC_8436194.JPG,,ISIC_0071135.JPG,28,30,false,0.11,ll,keypress(f),0,true,702491.7999999523,702491.7000000477,694955.396,694956,694959.7,702499.2,1,40,22,
sequence,flow.Sequence,8_21,2024-03-19T19:31:21.770Z,,,,,,,,,,,7532.00000004773,completion,,,,,,,low,low,,,,,,,false,,,,,true,702491.7999999523,702491.7000000477,694955.396,694955.8999999762,694959.7,702499.2,1,40,,
trial,html.Screen,8_22_0,2024-03-19T19:31:27.467Z,,,,2,-0.012810673904807,0.00400964452501,,0.04,false,hh,5688.599999952363,response,0.9696118525781644,0.908292021705108,-1.0127771537041224,0.9712966348713286,0.9172790022313155,-1.0808767969723294,high,high,,ISIC_0064656.JPG,,ISIC_7927525.JPG,28,36,false,0.1,ll,keypress(f),0,true,708188,708187.7999999523,702482.7,702491.7999999523,702499.2,708204,1,40,23,
sequence,flow.Sequence,8_22,2024-03-19T19:31:27.467Z,,,,,,,,,,,5688.599999952363,completion,,,,,,,high,high,,,,,,,false,,,,,true,708188.1000000238,708187.7999999523,702482.7,702491.7999999523,702499.2,708204,1,40,,
trial,html.Screen,8_23_0,2024-03-19T19:31:37.914Z,,,,2,0.0361875505619981,-0.0291457404567876,,0.04,true,ll,10431.700000047684,response,-0.9293599144917216,0.9582920217051081,-1.0127771537041224,-1.045616100036335,0.9672790022313156,-1.0808767969723294,low,low,,ISIC_0027480.JPG,,ISIC_0011031.JPG,28,35,false,0.1,ll,keypress(f),0,true,718635.7000000477,718635.7000000477,708187.3,708188.1000000238,708204,718646,1,40,24,
sequence,flow.Sequence,8_23,2024-03-19T19:31:37.914Z,,,,,,,,,,,10431.700000047684,completion,,,,,,,low,low,,,,,,,false,,,,,true,718635.7999999523,718635.7000000477,708187.3,708188.1000000238,708204,718646,1,40,,
trial,html.Screen,8_24_0,2024-03-19T19:31:43.435Z,,,,2,-0.0023664502831079,-0.0252784582169994,,0.04,true,hl,5509.799999952316,response,0.9013888878932071,0.9582920217051081,-1.0127771537041224,-0.9328095253308732,0.9672790022313156,-0.9374880072640284,high,low,,ISIC_4156010.JPG,,ISIC_0068259.JPG,28,26,false,0.17000000000000004,hl,keypress(j),0,true,724155.8999999762,724155.7999999523,718637.722,718635.8999999762,718646,724167.2,1,40,25,
sequence,flow.Sequence,8_24,2024-03-19T19:31:43.435Z,,,,,,,,,,,5509.799999952316,completion,,,,,,,high,low,,,,,,,false,,,,,true,724156,724155.7999999523,718637.722,718635.8999999762,718646,724167.2,1,40,,
trial,html.Screen,8_25_0,2024-03-19T19:31:50.251Z,,,,2,-0.0158987717472563,-0.0292472192292015,,0.04,false,lh,6804.699999976205,response,-1.082730232773217,0.9582920217051081,-1.0127771537041224,0.8833175387485132,0.9672790022313156,-0.9374880072640284,low,high,,ISIC_1366765.JPG,,ISIC_0011933.JPG,28,27,false,0.20000000000000007,ll,keypress(f),0,true,730971.8999999762,730971.8999999762,724150.5,724156,724167.2,730989.5,1,40,26,
sequence,flow.Sequence,8_25,2024-03-19T19:31:50.251Z,,,,,,,,,,,6804.699999976205,completion,,,,,,,low,high,,,,,,,false,,,,,true,730972,730971.8999999762,724150.5,724156,724167.2,730989.5,1,40,,
trial,html.Screen,8_26_0,2024-03-19T19:32:05.501Z,,,,2,-0.0118555311043871,-0.0087774532070196,,0.04,true,ll,15233,response,-0.9735583105865782,0.9582920217051081,-0.957769879052045,-0.8683758859171238,1.0172790022313156,-0.9374880072640284,low,low,,ISIC_6488658.JPG,,ISIC_0065204.JPG,28,51,false,0.1,ll,keypress(f),0,true,746222.8999999762,746222.5,730967.768,730972.1000000238,730989.5,746236.8,1,40,27,
sequence,flow.Sequence,8_26,2024-03-19T19:32:05.502Z,,,,,,,,,,,15233,completion,,,,,,,low,low,,,,,,,false,,,,,true,746223.3999999762,746222.5,730967.768,730972,730989.5,746236.8,1,40,,
trial,html.Screen,8_27_0,2024-03-19T19:32:10.893Z,,,,2,-0.0118555311043871,-0.0087774532070196,,0.04,false,lh,5377.400000047637,response,-0.9670240379618178,0.9582920217051081,-0.957769879052045,1.1806404773220665,1.0172790022313156,-0.8709670982518509,low,high,,ISIC_6488658.JPG,,ISIC_0002288.JPG,28,26,false,0.19000000000000006,hh,keypress(i),0,true,751614.6000000238,751614.2000000477,746223.13,746223.7999999523,746236.8,751624.2,1,40,28,
sequence,flow.Sequence,8_27,2024-03-19T19:32:10.893Z,,,,,,,,,,,5377.400000047637,completion,,,,,,,low,high,,,,,,,false,,,,,true,751615,751614.2000000477,746223.13,746223.7000000477,746236.8,751624.2,1,40,,
trial,html.Screen,8_28_0,2024-03-19T19:32:17.854Z,,,,2,-0.0057914759495055,0.018500200317654,,0.04,true,hh,6950.599999952363,response,0.8854665385930431,0.9582920217051081,-1.007769879052045,0.9330258572707198,1.0172790022313156,-0.8709670982518509,high,high,,ISIC_0058723.JPG,,ISIC_0026889.JPG,28,25,false,0.1,hh,keypress(i),0,true,758575.2000000477,758574.7999999523,751620.814,751615.2999999523,751624.2,758580,1,40,29,
sequence,flow.Sequence,8_28,2024-03-19T19:32:17.854Z,,,,,,,,,,,6950.599999952363,completion,,,,,,,high,high,,,,,,,false,,,,,true,758575.7000000477,758574.7999999523,751620.814,751615.2000000477,751624.2,758580,1,40,,
trial,html.Screen,8_29_0,2024-03-19T19:32:26.619Z,,,,2,-0.0166849894750452,0.0371614812368835,,0.04,true,hl,8760.200000047684,response,0.9394943755829636,1.006833167296393,-1.007769879052045,-0.7928025019302636,1.006833167296393,-0.8709670982518509,high,low,,ISIC_6231450.JPG,,ISIC_0071550.JPG,28,25,false,0.16000000000000003,hl,keypress(j),0,true,767340.2999999523,767340.2000000477,758575.262,758576.1000000238,758580,767353.6,1,40,30,
sequence,flow.Sequence,8_29,2024-03-19T19:32:26.619Z,,,,,,,,,,,8760.200000047684,completion,,,,,,,high,low,,,,,,,false,,,,,true,767340.3999999762,767340.2000000477,758575.262,758576,758580,767353.6,1,40,,
trial,html.Screen,8_30_0,2024-03-19T19:32:29.965Z,,,,2,0.0361875505619981,-0.0291457404567876,,0.04,true,hh,3333.100000047707,response,1.0901635293704552,1.006833167296393,-1.007769879052045,1.0348352814358883,1.006833167296393,-0.8709670982518509,high,high,,ISIC_0027480.JPG,,ISIC_7583134.JPG,28,27,false,0.11,hh,keypress(i),0,true,770687.2000000477,770686.7000000477,767337.6,767340.5,767353.6,770707.2,1,40,31,
sequence,flow.Sequence,8_30,2024-03-19T19:32:29.966Z,,,,,,,,,,,3333.100000047707,completion,,,,,,,high,high,,,,,,,false,,,,,true,770687.7000000477,770686.7000000477,767337.6,767340.5,767353.6,770707.2,1,40,,
trial,html.Screen,8_31_0,2024-03-19T19:32:33.021Z,,,,2,-0.00126575685933,-0.0325046559638838,,0.04,true,hh,3035.1999999762047,response,1.0831477774866454,1.0124994054031717,-1.007769879052045,1.0347343776726454,1.006833167296393,-0.8709670982518509,high,high,,ISIC_5682259.JPG,,ISIC_9475559.JPG,28,26,false,0.11,hh,keypress(i),0,true,773742.8999999762,773742.3999999762,770687.696,770687.8999999762,770707.2,773759.3,1,40,32,
sequence,flow.Sequence,8_31,2024-03-19T19:32:33.022Z,,,,,,,,,,,3035.1999999762047,completion,,,,,,,high,high,,,,,,,false,,,,,true,773743.2999999523,773742.3999999762,770687.696,770687.8999999762,770707.2,773759.3,1,40,,
trial,html.Screen,8_32_0,2024-03-19T19:32:40.587Z,,,,2,0.0327772618698018,-0.0056908372048728,,0.04,false,hl,7549.49999995227,response,1.00615481805876,1.0124994054031717,-1.007769879052045,-0.8428903771195875,1.0089410775796452,-0.8709670982518509,high,low,,ISIC_7897925.JPG,,ISIC_0069970.JPG,28,27,false,0.17000000000000004,ll,keypress(f),0,true,781308.8999999762,781308.7999999523,773742.6,773743.6000000238,773759.3,781315.4,1,40,33,
sequence,flow.Sequence,8_32,2024-03-19T19:32:40.587Z,,,,,,,,,,,7549.49999995227,completion,,,,,,,high,low,,,,,,,false,,,,,true,781309,781308.7999999523,773742.6,773743.5,773759.3,781315.4,1,40,,
trial,html.Screen,8_33_0,2024-03-19T19:32:56.575Z,,,,2,0.0127320821962457,-0.0315308940184827,,0.04,,,16013.79999999993,timeout,0.9674279172871372,1.0624994054031718,-1.007769879052045,-0.7134300562904723,1.0089410775796452,-0.8209670982518509,high,low,,ISIC_8156101.JPG,,ISIC_9130157.JPG,28,25,false,0.17000000000000004,,,0,true,797296.2999999523,797295.8999999762,781310.238,781309,781315.4,797329.2,1,40,34,
sequence,flow.Sequence,8_33,2024-03-19T19:32:56.575Z,,,,,,,,,,,15980.499999976135,completion,,,,,,,high,low,,,,,,,false,,,,,true,797296.5,797295.8999999762,781310.238,781309,781315.4,797329.2,1,40,,
trial,html.Screen,8_34_0,2024-03-19T19:33:03.421Z,,,,2,-0.00126575685933,-0.0325046559638838,,0.04,true,ll,6813.50000004773,response,-1.033120591224746,1.0624994054031718,-1.007769879052045,-0.9169816067930722,1.0089410775796452,-0.8209670982518509,low,low,,ISIC_5682259.JPG,,ISIC_0033027.JPG,28,51,false,0.1,ll,keypress(f),0,true,804143.1000000238,804142.7000000477,797312,797296.5,797329.2,804151.1,1,40,35,
sequence,flow.Sequence,8_34,2024-03-19T19:33:03.422Z,,,,,,,,,,,6813.50000004773,completion,,,,,,,low,low,,,,,,,false,,,,,true,804143.7000000477,804142.7000000477,797312,797296.5,797329.2,804151.1,1,40,,
trial,html.Screen,8_35_0,2024-03-19T19:33:09.852Z,,,,2,0.0189295602385628,0.0128812415435153,,0.04,false,lh,6422.19999995234,response,-0.9212323139676136,1.0624994054031718,-1.007769879052045,0.9882196642247332,1.0089410775796452,-0.8209670982518509,low,high,,ISIC_0010372.JPG,,ISIC_0014255.JPG,28,26,false,0.21000000000000008,ll,keypress(f),0,true,810573.6000000238,810573.2999999523,804146.356,804143.8999999762,804151.1,810589,1,40,36,
sequence,flow.Sequence,8_35,2024-03-19T19:33:09.852Z,,,,,,,,,,,6422.19999995234,completion,,,,,,,low,high,,,,,,,false,,,,,true,810574,810573.2999999523,804146.356,804143.7999999523,804151.1,810589,1,40,,
trial,html.Screen,8_36_0,2024-03-19T19:33:15.693Z,,,,2,-0.0057914759495055,0.018500200317654,,0.04,true,hl,5826,response,0.931876071706936,1.0624994054031718,-0.8691069603803429,-0.7205780326045168,1.0589410775796453,-0.8209670982518509,high,low,,ISIC_0058723.JPG,,ISIC_0032426.JPG,28,25,false,0.17000000000000004,hl,keypress(j),0,true,816415.2999999523,816415,810573.2,810574.1000000238,810589,816427.7,1,40,37,
sequence,flow.Sequence,8_36,2024-03-19T19:33:15.694Z,,,,,,,,,,,5826,completion,,,,,,,high,low,,,,,,,false,,,,,true,816415.7999999523,816415,810573.2,810574.1000000238,810589,816427.7,1,40,,
trial,html.Screen,8_37_0,2024-03-19T19:33:19.101Z,,,,2,-0.0118555311043871,-0.0087774532070196,,0.04,true,hh,3394.9000000238884,response,1.0730492496332733,1.0624994054031718,-0.8691069603803429,1.0252626598876022,1.0589410775796453,-0.7709670982518508,high,high,,ISIC_6488658.JPG,,ISIC_0007029.JPG,28,26,false,0.12,hh,keypress(i),0,true,819823,819822.6000000238,816424.006,816416.1000000238,816427.7,819830.7,1,40,38,
sequence,flow.Sequence,8_37,2024-03-19T19:33:19.102Z,,,,,,,,,,,3394.9000000238884,completion,,,,,,,high,high,,,,,,,false,,,,,true,819823.5,819822.6000000238,816424.006,816416.1000000238,816427.7,819830.7,1,40,,
trial,html.Screen,8_38_0,2024-03-19T19:33:30.205Z,,,,2,0.0365981355399771,0.0162670920008846,,0.04,false,hl,11096.00000004773,response,1.1162273456306029,0.9991559547604376,-0.8691069603803429,-0.7890271955816722,1.0589410775796453,-0.7709670982518508,high,low,,ISIC_0982855.JPG,,ISIC_0011564.JPG,28,26,false,0.15000000000000002,lh,keypress(e),0,true,830927.1000000238,830926.7000000477,819828.904,819823.7999999523,819830.7,830939.7,1,40,39,
sequence,flow.Sequence,8_38,2024-03-19T19:33:30.206Z,,,,,,,,,,,11096.00000004773,completion,,,,,,,high,low,,,,,,,false,,,,,true,830927.6000000238,830926.7000000477,819828.904,819823.7000000477,819830.7,830939.7,1,40,,
trial,html.Screen,8_39_0,2024-03-19T19:33:39.338Z,,,,2,-0.0377791839943904,0.0227626648172468,,0.04,false,lh,9120.50000004773,response,-0.7011709745663137,1.0491559547604377,-0.8691069603803429,0.9901017340796716,1.0589410775796453,-0.8209670982518509,low,high,,ISIC_7167479.JPG,,ISIC_8679617.JPG,28,26,false,0.17000000000000004,hl,keypress(j),0,true,840060.2000000477,840060.2000000477,830931.496,830927.8999999762,830939.7,840062.9,1,40,40,
sequence,flow.Sequence,8_39,2024-03-19T19:33:39.338Z,,,,,,,,,,,9120.50000004773,completion,,,,,,,low,high,,,,,,,false,,,,,true,840060.2999999523,840060.2000000477,830931.496,830927.7999999523,830939.7,840062.9,1,40,,
stair_loop,flow.Loop,8,2024-03-19T19:33:39.338Z,,,,,,,,,,,311320.80000004766,completion,,,,,,,,,,,,,,,false,,,,,true,840060.2999999523,840060.2000000477,528723.964,528724.1000000238,528739.4,840062.9,1,40,,
exp_instructions,html.Screen,9,2024-03-19T19:33:58.813Z,,,,,,,,,,,19470.80000004766,response,,,,,,,,,,,,,,,,,continue,keypress(Space),,,859535.1000000238,859533.7000000477,840057.242,840060.3999999762,840062.9,859546.7,,,,
trial,html.Screen,10_0_0,2024-03-19T19:34:04.965Z,,,,1,0.0365981355399771,0.0162670920008846,,0.04,true,ll,6139.599999952363,response,-0.9009408285331614,0.9937051138640915,-0.9886802754855932,-0.8985422901220989,0.9998769571304095,-0.9057531294359202,low,low,,ISIC_0982855.JPG,9,ISIC_0033834.JPG,28,54,false,0.1,ll,keypress(f),0,false,865686.3999999762,865686.2999999523,859545.454,859535.5,859546.7,865701.9,5,600,1,
break,html.Screen,10_0_1,2024-03-19T19:34:04.965Z,,,,,,,,,,,NaN,,,,,,,,low,low,,,,,,,false,,,,,false,865687,865686.8999999762,,865686.6000000238,,865701.9,5,600,,
break_continue,html.Screen,10_0_2,2024-03-19T19:34:04.966Z,,,,,,,,,,,NaN,,,,,,,,low,low,,,,,,,false,,,,,false,865687.3999999762,865687.2000000477,,865687.1000000238,,865701.9,5,600,,
sequence,flow.Sequence,10_0,2024-03-19T19:34:04.966Z,,,,,,,,,,,6140.50000004773,completion,,,,,,,low,low,,,,,,,false,,,,,false,865687.5,865687.2000000477,859545.454,859535.5,859546.7,865701.9,5,600,,
trial,html.Screen,10_1_0,2024-03-19T19:34:10.701Z,,,,1,-0.0023664502831079,-0.0252784582169994,,0.04,true,ll,5720.80000004766,response,-0.9464457672695302,0.9937051138640915,-0.9886802754855932,-0.8245045690591577,0.9998769571304095,-0.9057531294359202,low,low,,ISIC_4156010.JPG,9,ISIC_0027021.JPG,28,54,false,0.1,ll,keypress(f),0,false,871423.1000000238,871422.7000000477,865685.2,865687.6000000238,865701.9,871440.3,5,600,2,
break,html.Screen,10_1_1,2024-03-19T19:34:10.702Z,,,,,,,,,,,NaN,,,,,,,,low,low,,,,,,,false,,,,,false,871424.7000000477,871424.2000000477,,871423.5,,871440.3,5,600,,
break_continue,html.Screen,10_1_2,2024-03-19T19:34:10.704Z,,,,,,,,,,,NaN,,,,,,,,low,low,,,,,,,false,,,,,false,871425.7999999523,871425.3999999762,,871425,,871440.3,5,600,,
sequence,flow.Sequence,10_1,2024-03-19T19:34:10.704Z,,,,,,,,,,,5723.499999976135,completion,,,,,,,low,low,,,,,,,false,,,,,false,871426.1000000238,871425.3999999762,865685.2,865687.6000000238,865701.9,871440.3,5,600,,
trial,html.Screen,10_2_0,2024-03-19T19:34:15.213Z,,,,1,0.0199897690678184,0.0312486875504497,,0.04,true,hh,4494.400000047637,response,0.8966918590347848,0.9937051138640915,-0.9886802754855932,1.078424090533439,0.9998769571304095,-0.9057531294359202,high,high,,ISIC_5482426.JPG,9,ISIC_0034193.JPG,28,27,false,0.1,hh,keypress(i),0,false,875935.1000000238,875934.7000000477,871423.5,871426.2999999523,871440.3,875943.856,5,600,3,
break,html.Screen,10_2_1,2024-03-19T19:34:15.214Z,,,,,,,,,,,NaN,,,,,,,,high,high,,,,,,,false,,,,,false,875936.6000000238,875936.2000000477,,875935.6000000238,,875943.856,5,600,,
break_continue,html.Screen,10_2_2,2024-03-19T19:34:15.215Z,,,,,,,,,,,NaN,,,,,,,,high,high,,,,,,,false,,,,,false,875937.6000000238,875937.2999999523,,875937,,875943.856,5,600,,
sequence,flow.Sequence,10_2,2024-03-19T19:34:15.216Z,,,,,,,,,,,4496.99999995227,completion,,,,,,,high,high,,,,,,,false,,,,,false,875938,875937.2999999523,871423.5,871426.2999999523,871440.3,875943.856,5,600,,
trial,html.Screen,10_3_0,2024-03-19T19:34:19.613Z,,,,1,0.0361875505619981,-0.0291457404567876,,0.04,false,lh,4390.844000047655,response,-0.8620516892494489,0.9937051138640915,-0.9886802754855932,1.1108509340502866,0.9998769571304095,-0.9057531294359202,low,high,,ISIC_0027480.JPG,8,ISIC_5557806.JPG,28,28,false,0.21000000000000008,hh,keypress(i),0,false,880335.1000000238,880334.7000000477,875943.856,875938.1000000238,875943.856,880347.2,5,600,4,
break,html.Screen,10_3_1,2024-03-19T19:34:19.614Z,,,,,,,,,,,NaN,,,,,,,,low,high,,,,,,,false,,,,,false,880336.7000000477,880336.2999999523,,880335.5,,880347.2,5,600,,
break_continue,html.Screen,10_3_2,2024-03-19T19:34:19.615Z,,,,,,,,,,,NaN,,,,,,,,low,high,,,,,,,false,,,,,false,880337.7000000477,880337.3999999762,,880337.1000000238,,880347.2,5,600,,
sequence,flow.Sequence,10_3,2024-03-19T19:34:19.616Z,,,,,,,,,,,4393.543999976129,completion,,,,,,,low,high,,,,,,,false,,,,,false,880338,880337.3999999762,875943.856,875938.1000000238,875943.856,880347.2,5,600,,
trial,html.Screen,10_4_0,2024-03-19T19:34:28.061Z,,,,1,0.0189295602385628,0.0128812415435153,,0.04,true,hl,8435.599999952363,response,1.1235224875125256,0.9937051138640915,-0.9886802754855932,-0.8641223012137988,0.9998769571304095,-0.9057531294359202,high,low,,ISIC_0010372.JPG,10,ISIC_0033901.JPG,28,25,false,0.18000000000000005,hl,keypress(j),0,false,888783.2999999523,888782.7999999523,880344.554,880338.2999999523,880347.2,888787.6,5,600,5,
break,html.Screen,10_4_1,2024-03-19T19:34:28.063Z,,,,,,,,,,,NaN,,,,,,,,high,low,,,,,,,false,,,,,false,888784.7000000477,888784.2999999523,,888783.6000000238,,888787.6,5,600,,
break_continue,html.Screen,10_4_2,2024-03-19T19:34:28.063Z,,,,,,,,,,,NaN,,,,,,,,high,low,,,,,,,false,,,,,false,888785.7999999523,888785.3999999762,,888785.1000000238,,888787.6,5,600,,
sequence,flow.Sequence,10_4,2024-03-19T19:34:28.064Z,,,,,,,,,,,8438.199999976205,completion,,,,,,,high,low,,,,,,,false,,,,,false,888786.1000000238,888785.3999999762,880344.554,880338.2000000477,880347.2,888787.6,5,600,,
trial,html.Screen,10_5_0,2024-03-19T19:34:33.261Z,,,,1,0.0327772618698018,-0.0056908372048728,,0.04,true,hh,5195.100000047707,response,1.0901635293704552,0.9937051138640915,-0.9886802754855932,1.0348352814358883,0.9998769571304095,-0.9057531294359202,high,high,,ISIC_7897925.JPG,9,ISIC_7583134.JPG,28,27,false,0.1,hh,keypress(i),0,false,893983.1000000238,893982.7000000477,888785.486,888786.2999999523,888787.6,893991.9,5,600,6,
break,html.Screen,10_5_1,2024-03-19T19:34:33.262Z,,,,,,,,,,,NaN,,,,,,,,high,high,,,,,,,false,,,,,false,893984.7000000477,893984.2999999523,,893983.6000000238,,893991.9,5,600,,
break_continue,html.Screen,10_5_2,2024-03-19T19:34:33.263Z,,,,,,,,,,,NaN,,,,,,,,high,high,,,,,,,false,,,,,false,893985.6000000238,893985.3999999762,,893984.8999999762,,893991.9,5,600,,
sequence,flow.Sequence,10_5,2024-03-19T19:34:33.264Z,,,,,,,,,,,5197.799999976181,completion,,,,,,,high,high,,,,,,,false,,,,,false,893986,893985.3999999762,888785.486,888786.2000000477,888787.6,893991.9,5,600,,
trial,html.Screen,10_6_0,2024-03-19T19:34:44.462Z,,,,1,-0.0023664502831079,-0.0252784582169994,,0.04,true,hl,11191.700000023819,response,1.064425982109969,0.9937051138640915,-0.9886802754855932,-0.958564243697126,0.9998769571304095,-0.9057531294359202,high,low,,ISIC_4156010.JPG,9,ISIC_3203344.JPG,28,25,false,0.18000000000000005,hl,keypress(j),0,false,905184,905183.6000000238,893989.154,893986.2000000477,893991.9,905201.4,5,600,7,
break,html.Screen,10_6_1,2024-03-19T19:34:44.463Z,,,,,,,,,,,NaN,,,,,,,,high,low,,,,,,,false,,,,,false,905185.7999999523,905185.2000000477,,905184.5,,905201.4,5,600,,
break_continue,html.Screen,10_6_2,2024-03-19T19:34:44.464Z,,,,,,,,,,,NaN,,,,,,,,high,low,,,,,,,false,,,,,false,905186.7000000477,905186.5,,905186.1000000238,,905201.4,5,600,,
sequence,flow.Sequence,10_6,2024-03-19T19:34:44.465Z,,,,,,,,,,,11194.599999999977,completion,,,,,,,high,low,,,,,,,false,,,,,false,905187.2000000477,905186.5,893989.154,893986.1000000238,893991.9,905201.4,5,600,,
trial,html.Screen,10_7_0,2024-03-19T19:34:52.093Z,,,,1,-0.0350697500805515,-0.0166617848231997,,0.04,true,ll,7613.200000023819,response,-1.0244185150873102,0.9937051138640915,-0.9886802754855932,-0.896678664083835,0.9998769571304095,-0.9057531294359202,low,low,,ISIC_0024423.JPG,10,ISIC_1530981.JPG,28,54,false,0.1,ll,keypress(f),0,false,912815,912814.6000000238,905184.5,905187.3999999762,905201.4,912824.3,5,600,8,
break,html.Screen,10_7_1,2024-03-19T19:34:52.094Z,,,,,,,,,,,NaN,,,,,,,,low,low,,,,,,,false,,,,,false,912816.6000000238,912816.1000000238,,912815.3999999762,,912824.3,5,600,,
break_continue,html.Screen,10_7_2,2024-03-19T19:34:52.095Z,,,,,,,,,,,NaN,,,,,,,,low,low,,,,,,,false,,,,,false,912817.6000000238,912817.2999999523,,912816.8999999762,,912824.3,5,600,,
sequence,flow.Sequence,10_7,2024-03-19T19:34:52.096Z,,,,,,,,,,,7615.899999952293,completion,,,,,,,low,low,,,,,,,false,,,,,false,912817.8999999762,912817.2999999523,905184.5,905187.3999999762,905201.4,912824.3,5,600,,
trial,html.Screen,10_8_0,2024-03-19T19:34:59.210Z,,,,1,-0.0060918352854008,0.029032683404407,,0.04,false,lh,7108.099999976112,response,-0.8688859182707874,0.9937051138640915,-0.9886802754855932,0.9566733172438716,0.9998769571304095,-0.9057531294359202,low,high,,ISIC_8436194.JPG,9,ISIC_0640770.JPG,28,28,false,0.21000000000000008,hh,keypress(i),0,false,919932.5,919932.3999999762,912818.602,912818.1000000238,912824.3,919947,5,600,9,
break,html.Screen,10_8_1,2024-03-19T19:34:59.211Z,,,,,,,,,,,NaN,,,,,,,,low,high,,,,,,,false,,,,,false,919932.8999999762,919932.7999999523,,919932.6000000238,,919947,5,600,,
break_continue,html.Screen,10_8_2,2024-03-19T19:34:59.211Z,,,,,,,,,,,NaN,,,,,,,,low,high,,,,,,,false,,,,,false,919933.2000000477,919933.1000000238,,919933.1000000238,,919947,5,600,,
sequence,flow.Sequence,10_8,2024-03-19T19:34:59.211Z,,,,,,,,,,,7108.800000023795,completion,,,,,,,low,high,,,,,,,false,,,,,false,919933.2999999523,919933.1000000238,912818.602,912818,912824.3,919947,5,600,,
trial,html.Screen,10_9_0,2024-03-19T19:35:10.171Z,,,,1,0.0051046740562181,-0.0178832721027728,,0.04,true,lh,10946,response,-0.8407642478899736,0.9937051138640915,-0.9886802754855932,0.9542322753334054,0.9998769571304095,-0.9057531294359202,low,high,,ISIC_9545819.JPG,9,ISIC_9090822.JPG,28,28,false,0.21000000000000008,lh,keypress(e),0,false,930893.2000000477,930893,919929.8,919933.3999999762,919947,930904.8,5,600,10,
break,html.Screen,10_9_1,2024-03-19T19:35:10.172Z,,,,,,,,,,,NaN,,,,,,,,low,high,,,,,,,false,,,,,false,930894.1000000238,930893.7999999523,,930893.5,,930904.8,5,600,,
break_continue,html.Screen,10_9_2,2024-03-19T19:35:10.172Z,,,,,,,,,,,NaN,,,,,,,,low,high,,,,,,,false,,,,,false,930894.5,930894.2999999523,,930894.2000000477,,930904.8,5,600,,
sequence,flow.Sequence,10_9,2024-03-19T19:35:10.172Z,,,,,,,,,,,10947.299999952316,completion,,,,,,,low,high,,,,,,,false,,,,,false,930894.6000000238,930894.2999999523,919929.8,919933.2999999523,919947,930904.8,5,600,,
trial,html.Screen,10_10_0,2024-03-19T19:35:13.645Z,,,,1,0.0367218428225813,-0.0026956749740767,,0.04,true,hh,3461.5999999761116,response,0.8997449990565672,0.9937051138640915,-0.9886802754855932,0.9792890899144426,0.9998769571304095,-0.9057531294359202,high,high,,ISIC_7212271.JPG,9,ISIC_0469314.JPG,28,27,false,0.1,hh,keypress(i),0,false,934366.7999999523,934366.3999999762,930888.528,930894.7000000477,930904.8,934375.1,5,600,11,
break,html.Screen,10_10_1,2024-03-19T19:35:13.646Z,,,,,,,,,,,NaN,,,,,,,,high,high,,,,,,,false,,,,,false,934368.1000000238,934367.7000000477,,934367.2000000477,,934375.1,5,600,,
break_continue,html.Screen,10_10_2,2024-03-19T19:35:13.646Z,,,,,,,,,,,NaN,,,,,,,,high,high,,,,,,,false,,,,,false,934368.7999999523,934368.6000000238,,934368.2999999523,,934375.1,5,600,,
sequence,flow.Sequence,10_10,2024-03-19T19:35:13.647Z,,,,,,,,,,,3463.8000000237953,completion,,,,,,,high,high,,,,,,,false,,,,,false,934368.8999999762,934368.6000000238,930888.528,930894.6000000238,930904.8,934375.1,5,600,,
trial,html.Screen,10_11_0,2024-03-19T19:35:19.805Z,,,,1,0.0327772618698018,-0.0056908372048728,,0.04,true,ll,6151.799999976181,response,-0.8970039097647139,0.9937051138640915,-0.9886802754855932,-0.9775899280745278,0.9998769571304095,-0.9057531294359202,low,low,,ISIC_7897925.JPG,9,ISIC_0024449.JPG,28,54,false,0.1,ll,keypress(f),0,false,940527.2000000477,940526.8999999762,934358.8,934369.1000000238,934375.1,940546.9,5,600,12,
break,html.Screen,10_11_1,2024-03-19T19:35:19.806Z,,,,,,,,,,,NaN,,,,,,,,low,low,,,,,,,false,,,,,false,940528.7000000477,940528.2999999523,,940527.7000000477,,940546.9,5,600,,
break_continue,html.Screen,10_11_2,2024-03-19T19:35:19.807Z,,,,,,,,,,,NaN,,,,,,,,low,low,,,,,,,false,,,,,false,940529.6000000238,940529.3999999762,,940529,,940546.9,5,600,,
sequence,flow.Sequence,10_11,2024-03-19T19:35:19.808Z,,,,,,,,,,,6154.299999976181,completion,,,,,,,low,low,,,,,,,false,,,,,false,940529.8999999762,940529.3999999762,934358.8,934369,934375.1,940546.9,5,600,,
trial,html.Screen,10_12_0,2024-03-19T19:35:27.870Z,,,,1,0.0367218428225813,-0.0026956749740767,,0.04,false,lh,8044.80000004766,response,-1.127346631538643,0.9937051138640915,-0.9886802754855932,0.8080854255453543,0.9998769571304095,-0.9057531294359202,low,high,,ISIC_7212271.JPG,8,ISIC_0011045.JPG,28,28,false,0.21000000000000008,ll,keypress(f),0,false,948592,948591.7000000477,940542.96,940530.2000000477,940546.9,948603.7,5,600,13,
break,html.Screen,10_12_1,2024-03-19T19:35:27.871Z,,,,,,,,,,,NaN,,,,,,,,low,high,,,,,,,false,,,,,false,948593.6000000238,948593.2000000477,,948592.6000000238,,948603.7,5,600,,
break_continue,html.Screen,10_12_2,2024-03-19T19:35:27.872Z,,,,,,,,,,,NaN,,,,,,,,low,high,,,,,,,false,,,,,false,948594.5,948594.2000000477,,948593.7999999523,,948603.7,5,600,,
sequence,flow.Sequence,10_12,2024-03-19T19:35:27.873Z,,,,,,,,,,,8047.30000004766,completion,,,,,,,low,high,,,,,,,false,,,,,false,948594.7999999523,948594.2000000477,940542.96,940530.2000000477,940546.9,948603.7,5,600,,
trial,html.Screen,10_13_0,2024-03-19T19:35:37.514Z,,,,1,0.0361875505619981,-0.0291457404567876,,0.04,true,ll,9632.50000004773,response,-1.033120591224746,0.9937051138640915,-0.9886802754855932,-0.9169816067930722,0.9998769571304095,-0.9057531294359202,low,low,,ISIC_0027480.JPG,8,ISIC_0033027.JPG,28,54,false,0.1,ll,keypress(f),0,false,958236.2000000477,958236.2000000477,948598.764,948595.1000000238,948603.7,958244.1,5,600,14,
break,html.Screen,10_13_1,2024-03-19T19:35:37.514Z,,,,,,,,,,,NaN,,,,,,,,low,low,,,,,,,false,,,,,false,958236.3999999762,958236.3999999762,,958236.2999999523,,958244.1,5,600,,
break_continue,html.Screen,10_13_2,2024-03-19T19:35:37.514Z,,,,,,,,,,,NaN,,,,,,,,low,low,,,,,,,false,,,,,false,958236.5,958236.5,,958236.3999999762,,958244.1,5,600,,
sequence,flow.Sequence,10_13,2024-03-19T19:35:37.514Z,,,,,,,,,,,9632.800000000047,completion,,,,,,,low,low,,,,,,,false,,,,,false,958236.5,958236.5,948598.764,948594.8999999762,948603.7,958244.1,5,600,,
trial,html.Screen,10_14_0,2024-03-19T19:35:40.749Z,,,,1,-0.012020985739544,0.0126097407389903,,0.04,true,hh,3227.1999999523396,response,0.894033318100927,0.9937051138640915,-0.9886802754855932,0.9842451068179496,0.9998769571304095,-0.9057531294359202,high,high,,ISIC_0069379.JPG,9,ISIC_0015298.JPG,28,27,false,0.1,hh,keypress(i),0,false,961471.6000000238,961471.2999999523,958228,958236.6000000238,958244.1,961480.9,5,600,15,
break,html.Screen,10_14_1,2024-03-19T19:35:40.751Z,,,,,,,,,,,NaN,,,,,,,,high,high,,,,,,,false,,,,,false,961472.7999999523,961472.5,,961472,,961480.9,5,600,,
break_continue,html.Screen,10_14_2,2024-03-19T19:35:40.751Z,,,,,,,,,,,NaN,,,,,,,,high,high,,,,,,,false,,,,,false,961473.3999999762,961473.2000000477,,961473,,961480.9,5,600,,
sequence,flow.Sequence,10_14,2024-03-19T19:35:40.751Z,,,,,,,,,,,3229.100000047707,completion,,,,,,,high,high,,,,,,,false,,,,,false,961473.6000000238,961473.2000000477,958228,958236.6000000238,958244.1,961480.9,5,600,,
trial,html.Screen,10_15_0,2024-03-19T19:35:45.227Z,,,,1,0.0127320821962457,-0.0315308940184827,,0.04,false,lh,4467.80000004766,response,-0.8588347582642082,0.9937051138640915,-0.9886802754855932,0.8899503828496784,0.9998769571304095,-0.9057531294359202,low,high,,ISIC_8156101.JPG,9,ISIC_0174983.JPG,28,28,false,0.21000000000000008,hh,keypress(i),0,false,965948.8999999762,965948.7000000477,961478.144,961473.7000000477,961480.9,965967.3,5,600,16,
break,html.Screen,10_15_1,2024-03-19T19:35:45.227Z,,,,,,,,,,,NaN,,,,,,,,low,high,,,,,,,false,,,,,false,965949.2000000477,965949.1000000238,,965949,,965967.3,5,600,,
break_continue,html.Screen,10_15_2,2024-03-19T19:35:45.227Z,,,,,,,,,,,NaN,,,,,,,,low,high,,,,,,,false,,,,,false,965949.2999999523,965949.2000000477,,965949.2000000477,,965967.3,5,600,,
sequence,flow.Sequence,10_15,2024-03-19T19:35:45.227Z,,,,,,,,,,,4468.30000004766,completion,,,,,,,low,high,,,,,,,false,,,,,false,965949.2999999523,965949.2000000477,961478.144,961473.6000000238,961480.9,965967.3,5,600,,
trial,html.Screen,10_16_0,2024-03-19T19:35:48.957Z,,,,1,0.0321039635696159,0.020496766286318,,0.04,false,lh,3711.1999999999534,response,-0.8087127179888679,0.9937051138640915,-0.9886802754855932,0.8480635840272462,0.9998769571304095,-0.9057531294359202,low,high,,ISIC_0058063.JPG,9,ISIC_3941147.JPG,28,28,false,0.21000000000000008,hh,keypress(i),0,false,969678.7999999523,969678.5,965948.728,965949.2999999523,965967.3,969687.6,5,600,17,
break,html.Screen,10_16_1,2024-03-19T19:35:48.957Z,,,,,,,,,,,NaN,,,,,,,,low,high,,,,,,,false,,,,,false,969679.6000000238,969679.3999999762,,969679.1000000238,,969687.6,5,600,,
break_continue,html.Screen,10_16_2,2024-03-19T19:35:48.958Z,,,,,,,,,,,NaN,,,,,,,,low,high,,,,,,,false,,,,,false,969680,969679.8999999762,,969679.7999999523,,969687.6,5,600,,
sequence,flow.Sequence,10_16,2024-03-19T19:35:48.958Z,,,,,,,,,,,3712.5999999761116,completion,,,,,,,low,high,,,,,,,false,,,,,false,969680.1000000238,969679.8999999762,965948.728,965949.2999999523,965967.3,969687.6,5,600,,
trial,html.Screen,10_17_0,2024-03-19T19:35:52.586Z,,,,1,-0.012020985739544,0.0126097407389903,,0.04,true,hh,3621.000000023865,response,1.011737552725394,0.9937051138640915,-0.9886802754855932,1.0893360711742854,0.9998769571304095,-0.9057531294359202,high,high,,ISIC_0069379.JPG,9,ISIC_2998367.JPG,28,27,false,0.1,hh,keypress(i),0,false,973308.6000000238,973308.6000000238,969686.408,969680.2000000477,969687.6,973323.4,5,600,18,
break,html.Screen,10_17_1,2024-03-19T19:35:52.587Z,,,,,,,,,,,NaN,,,,,,,,high,high,,,,,,,false,,,,,false,973308.8999999762,973308.7999999523,,973308.7000000477,,973323.4,5,600,,
break_continue,html.Screen,10_17_2,2024-03-19T19:35:52.587Z,,,,,,,,,,,NaN,,,,,,,,high,high,,,,,,,false,,,,,false,973309,973309,,973308.8999999762,,973323.4,5,600,,
sequence,flow.Sequence,10_17,2024-03-19T19:35:52.587Z,,,,,,,,,,,3621.4000000000233,completion,,,,,,,high,high,,,,,,,false,,,,,false,973309,973309,969686.408,969680.2000000477,969687.6,973323.4,5,600,,
trial,html.Screen,10_18_0,2024-03-19T19:35:55.594Z,,,,1,-0.0071892445601978,0.0246015408628738,,0.04,true,hh,2992.7000000238186,response,0.9371720357162444,0.9937051138640915,-0.9886802754855932,0.9507421943628228,0.9998769571304095,-0.9057531294359202,high,high,,ISIC_0014133.JPG,9,ISIC_3730327.JPG,28,27,false,0.1,hh,keypress(i),0,false,976316.2000000477,976316.1000000238,973306.7,973309,973323.4,976325.6,5,600,19,
break,html.Screen,10_18_1,2024-03-19T19:35:55.594Z,,,,,,,,,,,NaN,,,,,,,,high,high,,,,,,,false,,,,,false,976316.5,976316.5,,976316.2999999523,,976325.6,5,600,,
break_continue,html.Screen,10_18_2,2024-03-19T19:35:55.594Z,,,,,,,,,,,NaN,,,,,,,,high,high,,,,,,,false,,,,,false,976316.6000000238,976316.5,,976316.5,,976325.6,5,600,,
sequence,flow.Sequence,10_18,2024-03-19T19:35:55.594Z,,,,,,,,,,,2993.0999999999767,completion,,,,,,,high,high,,,,,,,false,,,,,false,976316.6000000238,976316.5,973306.7,973309,973323.4,976325.6,5,600,,
trial,html.Screen,10_19_0,2024-03-19T19:36:06.765Z,,,,1,-0.0071892445601978,0.0246015408628738,,0.04,false,hl,11161.600000047707,response,1.1162273456306029,0.9937051138640915,-0.9886802754855932,-0.7890271955816722,0.9998769571304095,-0.9057531294359202,high,low,,ISIC_0014133.JPG,8,ISIC_0011564.JPG,28,25,false,0.18000000000000005,hh,keypress(i),0,false,987487.6000000238,987487.2000000477,976308.7,976316.7000000477,976325.6,987502.4,5,600,20,
break,html.Screen,10_19_1,2024-03-19T19:36:06.767Z,,,,,,,,,,,NaN,,,,,,,,high,low,,,,,,,false,,,,,false,987489.1000000238,987488.7000000477,,987488.1000000238,,987502.4,5,600,,
break_continue,html.Screen,10_19_2,2024-03-19T19:36:06.768Z,,,,,,,,,,,NaN,,,,,,,,high,low,,,,,,,false,,,,,false,987490,987489.7000000477,,987489.2999999523,,987502.4,5,600,,
sequence,flow.Sequence,10_19,2024-03-19T19:36:06.768Z,,,,,,,,,,,11164.100000047707,completion,,,,,,,high,low,,,,,,,false,,,,,false,987490.2999999523,987489.7000000477,976308.7,976316.6000000238,976325.6,987502.4,5,600,,
trial,html.Screen,10_20_0,2024-03-19T19:36:10.140Z,,,,1,0.0361875505619981,-0.0291457404567876,,0.04,true,hh,3359.0999999999767,response,1.0375203228848855,0.9937051138640915,-0.9886802754855932,1.0256934713188917,0.9998769571304095,-0.9057531294359202,high,high,,ISIC_0027480.JPG,9,ISIC_4264600.JPG,28,27,false,0.1,hh,keypress(i),0,false,990861.7000000477,990861.5,987500.186,987490.5,987502.4,990871.8,5,600,21,
break,html.Screen,10_20_1,2024-03-19T19:36:10.140Z,,,,,,,,,,,NaN,,,,,,,,high,high,,,,,,,false,,,,,false,990862.2000000477,990862.1000000238,,990861.7999999523,,990871.8,5,600,,
break_continue,html.Screen,10_20_2,2024-03-19T19:36:10.140Z,,,,,,,,,,,NaN,,,,,,,,high,high,,,,,,,false,,,,,false,990862.5,990862.5,,990862.3999999762,,990871.8,5,600,,
sequence,flow.Sequence,10_20,2024-03-19T19:36:10.141Z,,,,,,,,,,,3360.0999999999767,completion,,,,,,,high,high,,,,,,,false,,,,,false,990862.6000000238,990862.5,987500.186,987490.3999999762,987502.4,990871.8,5,600,,
trial,html.Screen,10_21_0,2024-03-19T19:36:17.997Z,,,,1,-0.0077673378094614,-0.0021810768579373,,0.04,true,lh,7847.400000047637,response,-1.1547137855907486,0.9937051138640915,-0.9886802754855932,1.0185275168641534,0.9998769571304095,-0.9057531294359202,low,high,,ISIC_0067621.JPG,10,ISIC_7604870.JPG,28,28,false,0.21000000000000008,lh,keypress(e),0,false,998719.6000000238,998719.2000000477,990869.962,990862.7000000477,990871.8,998728.3,5,600,22,
break,html.Screen,10_21_1,2024-03-19T19:36:17.999Z,,,,,,,,,,,NaN,,,,,,,,low,high,,,,,,,false,,,,,false,998721.2000000477,998720.7000000477,,998720,,998728.3,5,600,,
break_continue,html.Screen,10_21_2,2024-03-19T19:36:18.000Z,,,,,,,,,,,NaN,,,,,,,,low,high,,,,,,,false,,,,,false,998722.2000000477,998721.8999999762,,998721.5,,998728.3,5,600,,
sequence,flow.Sequence,10_21,2024-03-19T19:36:18.000Z,,,,,,,,,,,7850.099999976112,completion,,,,,,,low,high,,,,,,,false,,,,,false,998722.6000000238,998721.8999999762,990869.962,990862.7000000477,990871.8,998728.3,5,600,,
trial,html.Screen,10_22_0,2024-03-19T19:36:19.066Z,,,,1,0.0199897690678184,0.0312486875504497,,0.04,false,hh,1059.9000000476371,response,0.9696118525781644,0.9937051138640915,-0.9886802754855932,0.9712966348713286,0.9998769571304095,-0.9057531294359202,high,high,,ISIC_5482426.JPG,10,ISIC_7927525.JPG,28,27,false,0.1,lh,keypress(e),0,false,999788.3999999762,999788.2000000477,998727.75,998722.8999999762,998728.3,999794.7,5,600,23,
break,html.Screen,10_22_1,2024-03-19T19:36:19.066Z,,,,,,,,,,,NaN,,,,,,,,high,high,,,,,,,false,,,,,false,999788.6000000238,999788.5,,999788.3999999762,,999794.7,5,600,,
break_continue,html.Screen,10_22_2,2024-03-19T19:36:19.067Z,,,,,,,,,,,NaN,,,,,,,,high,high,,,,,,,false,,,,,false,999788.7000000477,999788.7000000477,,999788.6000000238,,999794.7,5,600,,
sequence,flow.Sequence,10_22,2024-03-19T19:36:19.067Z,,,,,,,,,,,1060.4000000476371,completion,,,,,,,high,high,,,,,,,false,,,,,false,999788.7000000477,999788.7000000477,998727.75,998722.7999999523,998728.3,999794.7,5,600,,
trial,html.Screen,10_23_0,2024-03-19T19:36:28.061Z,,,,1,-0.0399381815506136,-0.0177751789152893,,0.04,false,hh,8988.50000004773,response,0.9487751044258608,0.9937051138640915,-0.9886802754855932,0.9230722071334148,0.9998769571304095,-0.9057531294359202,high,high,,ISIC_3981425.JPG,10,ISIC_4568084.JPG,28,27,false,0.1,hl,keypress(j),0,false,1008783.5,1008783.2000000477,999779.288,999788.7999999523,999794.7,1008803.3,5,600,24,
break,html.Screen,10_23_1,2024-03-19T19:36:28.063Z,,,,,,,,,,,NaN,,,,,,,,high,high,,,,,,,false,,,,,false,1008784.8999999762,1008784.5,,1008784,,1008803.3,5,600,,
break_continue,html.Screen,10_23_2,2024-03-19T19:36:28.064Z,,,,,,,,,,,NaN,,,,,,,,high,high,,,,,,,false,,,,,false,1008785.7999999523,1008785.5,,1008785.2000000477,,1008803.3,5,600,,
sequence,flow.Sequence,10_23,2024-03-19T19:36:28.064Z,,,,,,,,,,,8990.800000000047,completion,,,,,,,high,high,,,,,,,false,,,,,false,1008786.1000000238,1008785.5,999779.288,999788.7000000477,999794.7,1008803.3,5,600,,
trial,html.Screen,10_24_0,2024-03-19T19:36:34.316Z,,,,1,-0.0023664502831079,-0.0252784582169994,,0.04,true,ll,6234.199999999953,response,-0.9735583105865782,0.9937051138640915,-0.9886802754855932,-0.8683758859171238,0.9998769571304095,-0.9057531294359202,low,low,,ISIC_4156010.JPG,11,ISIC_0065204.JPG,28,54,false,0.1,ll,keypress(f),0,false,1015037.7999999523,1015037.5,1008787.03,1008786.2999999523,1008803.3,1015041.9,5,600,25,
break,html.Screen,10_24_1,2024-03-19T19:36:34.316Z,,,,,,,,,,,NaN,,,,,,,,low,low,,,,,,,false,,,,,false,1015038.3999999762,1015038.2999999523,,1015038,,1015041.9,5,600,,
break_continue,html.Screen,10_24_2,2024-03-19T19:36:34.317Z,,,,,,,,,,,NaN,,,,,,,,low,low,,,,,,,false,,,,,false,1015039,1015038.8999999762,,1015038.7000000477,,1015041.9,5,600,,
sequence,flow.Sequence,10_24,2024-03-19T19:36:34.317Z,,,,,,,,,,,6235.599999976112,completion,,,,,,,low,low,,,,,,,false,,,,,false,1015039.2000000477,1015038.8999999762,1008787.03,1008786.2000000477,1008803.3,1015041.9,5,600,,
trial,html.Screen,10_25_0,2024-03-19T19:36:39.918Z,,,,1,0.0361875505619981,-0.0291457404567876,,0.04,true,hh,5597.599999999977,response,1.0064329161780483,0.9937051138640915,-0.9886802754855932,1.0631481857644678,0.9998769571304095,-0.9057531294359202,high,high,,ISIC_0027480.JPG,9,ISIC_0033137.JPG,28,27,false,0.1,hh,keypress(i),0,false,1020639.7999999523,1020639.5,1015037.656,1015039.2000000477,1015041.9,1020646.5,5,600,26,
break,html.Screen,10_25_1,2024-03-19T19:36:39.919Z,,,,,,,,,,,NaN,,,,,,,,high,high,,,,,,,false,,,,,false,1020641.2000000477,1020640.8999999762,,1020640.2999999523,,1020646.5,5,600,,
break_continue,html.Screen,10_25_2,2024-03-19T19:36:39.920Z,,,,,,,,,,,NaN,,,,,,,,high,high,,,,,,,false,,,,,false,1020642.2000000477,1020641.7999999523,,1020641.5,,1020646.5,5,600,,
sequence,flow.Sequence,10_25,2024-03-19T19:36:39.920Z,,,,,,,,,,,5599.899999952293,completion,,,,,,,high,high,,,,,,,false,,,,,false,1020642.3999999762,1020641.7999999523,1015037.656,1015039.2000000477,1015041.9,1020646.5,5,600,,
trial,html.Screen,10_26_0,2024-03-19T19:36:46.477Z,,,,1,0.0367218428225813,-0.0026956749740767,,0.04,true,hl,6552.399999976158,response,0.8923602890201078,0.9937051138640915,-0.9886802754855932,-0.8351700666074688,0.9998769571304095,-0.9057531294359202,high,low,,ISIC_7212271.JPG,8,ISIC_0033103.JPG,28,25,false,0.18000000000000005,hl,keypress(j),0,false,1027199.2999999523,1027198.8999999762,1020644.226,1020642.7000000477,1020646.5,1027218.5,5,600,27,
break,html.Screen,10_26_1,2024-03-19T19:36:46.479Z,,,,,,,,,,,NaN,,,,,,,,high,low,,,,,,,false,,,,,false,1027200.7999999523,1027200.2999999523,,1027199.7000000477,,1027218.5,5,600,,
break_continue,html.Screen,10_26_2,2024-03-19T19:36:46.479Z,,,,,,,,,,,NaN,,,,,,,,high,low,,,,,,,false,,,,,false,1027201.6000000238,1027201.3999999762,,1027201,,1027218.5,5,600,,
sequence,flow.Sequence,10_26,2024-03-19T19:36:46.480Z,,,,,,,,,,,6554.899999976158,completion,,,,,,,high,low,,,,,,,false,,,,,false,1027202,1027201.3999999762,1020644.226,1020642.6000000238,1020646.5,1027218.5,5,600,,
trial,html.Screen,10_27_0,2024-03-19T19:36:56.474Z,,,,1,0.0086413421586899,0.0360184993500958,,0.04,true,hl,9977.899999976158,response,0.9013888878932071,0.9937051138640915,-0.9886802754855932,-0.9328095253308732,0.9998769571304095,-0.9057531294359202,high,low,,ISIC_0010767.JPG,9,ISIC_0068259.JPG,28,25,false,0.18000000000000005,hl,keypress(j),0,false,1037196.5,1037196.3999999762,1027217.246,1027202.2000000477,1027218.5,1037226,5,600,28,
break,html.Screen,10_27_1,2024-03-19T19:36:56.475Z,,,,,,,,,,,NaN,,,,,,,,high,low,,,,,,,false,,,,,false,1037196.7000000477,1037196.6000000238,,1037196.6000000238,,1037226,5,600,,
break_continue,html.Screen,10_27_2,2024-03-19T19:36:56.475Z,,,,,,,,,,,NaN,,,,,,,,high,low,,,,,,,false,,,,,false,1037196.7999999523,1037196.7999999523,,1037196.7000000477,,1037226,5,600,,
sequence,flow.Sequence,10_27,2024-03-19T19:36:56.475Z,,,,,,,,,,,9978.299999952316,completion,,,,,,,high,low,,,,,,,false,,,,,false,1037196.7999999523,1037196.7999999523,1027217.246,1027202.1000000238,1027218.5,1037226,5,600,,
trial,html.Screen,10_28_0,2024-03-19T19:37:07.132Z,,,,1,-0.012810673904807,0.00400964452501,,0.04,false,hh,10627.600000023842,response,1.0275060871969903,0.9937051138640915,-0.9886802754855932,0.9101747326852082,0.9998769571304095,-0.9057531294359202,high,high,,ISIC_0064656.JPG,9,ISIC_9155028.JPG,28,27,false,0.1,lh,keypress(e),0,false,1047853.7999999523,1047853.6000000238,1037209,1037196.7999999523,1037226,1047867.8,5,600,29,
break,html.Screen,10_28_1,2024-03-19T19:37:07.132Z,,,,,,,,,,,NaN,,,,,,,,high,high,,,,,,,false,,,,,false,1047854.5,1047854.3999999762,,1047854.1000000238,,1047867.8,5,600,,
break_continue,html.Screen,10_28_2,2024-03-19T19:37:07.133Z,,,,,,,,,,,NaN,,,,,,,,high,high,,,,,,,false,,,,,false,1047855,1047854.7999999523,,1047854.7000000477,,1047867.8,5,600,,
sequence,flow.Sequence,10_28,2024-03-19T19:37:07.133Z,,,,,,,,,,,10628.799999952316,completion,,,,,,,high,high,,,,,,,false,,,,,false,1047855.1000000238,1047854.7999999523,1037209,1037196.7999999523,1037226,1047867.8,5,600,,
trial,html.Screen,10_29_0,2024-03-19T19:37:14.059Z,,,,1,-0.012020985739544,0.0126097407389903,,0.04,true,ll,6912.699999999953,response,-1.0007734170042946,0.9937051138640915,-0.9886802754855932,-0.9394007494897862,0.9998769571304095,-0.9057531294359202,low,low,,ISIC_0069379.JPG,9,ISIC_0053791.JPG,28,54,false,0.1,ll,keypress(f),0,false,1054780.7000000477,1054780.5,1047851.2,1047855.2999999523,1047867.8,1054790.2,5,600,30,
break,html.Screen,10_29_1,2024-03-19T19:37:14.059Z,,,,,,,,,,,NaN,,,,,,,,low,low,,,,,,,false,,,,,false,1054780.7999999523,1054780.7999999523,,1054780.7000000477,,1054790.2,5,600,,
break_continue,html.Screen,10_29_2,2024-03-19T19:37:14.059Z,,,,,,,,,,,NaN,,,,,,,,low,low,,,,,,,false,,,,,false,1054780.8999999762,1054780.8999999762,,1054780.8999999762,,1054790.2,5,600,,
sequence,flow.Sequence,10_29,2024-03-19T19:37:14.059Z,,,,,,,,,,,6913.099999976112,completion,,,,,,,low,low,,,,,,,false,,,,,false,1054781,1054780.8999999762,1047851.2,1047855.2999999523,1047867.8,1054790.2,5,600,,
trial,html.Screen,10_30_0,2024-03-19T19:37:17.900Z,,,,1,-0.0118555311043871,-0.0087774532070196,,0.04,true,hh,3831.599999952363,response,1.0236565951660872,0.9937051138640915,-0.9886802754855932,0.9220772824737548,0.9998769571304095,-0.9057531294359202,high,high,,ISIC_6488658.JPG,9,ISIC_3209501.JPG,28,27,false,0.1,hh,keypress(i),0,false,1058622,1058621.7999999523,1054773.4,1054781,1054790.2,1058626.8,5,600,31,
break,html.Screen,10_30_1,2024-03-19T19:37:17.901Z,,,,,,,,,,,NaN,,,,,,,,high,high,,,,,,,false,,,,,false,1058622.7999999523,1058622.6000000238,,1058622.2000000477,,1058626.8,5,600,,
break_continue,html.Screen,10_30_2,2024-03-19T19:37:17.901Z,,,,,,,,,,,NaN,,,,,,,,high,high,,,,,,,false,,,,,false,1058623.2999999523,1058623.1000000238,,1058622.8999999762,,1058626.8,5,600,,
sequence,flow.Sequence,10_30,2024-03-19T19:37:17.902Z,,,,,,,,,,,3832.9000000238884,completion,,,,,,,high,high,,,,,,,false,,,,,false,1058623.5,1058623.1000000238,1054773.4,1054781,1054790.2,1058626.8,5,600,,
trial,html.Screen,10_31_0,2024-03-19T19:37:25.963Z,,,,1,-0.0350697500805515,-0.0166617848231997,,0.04,false,hl,8057.900000047637,response,0.9013888878932071,0.9937051138640915,-0.9886802754855932,-0.9328095253308732,0.9998769571304095,-0.9057531294359202,high,low,,ISIC_0024423.JPG,10,ISIC_0068259.JPG,28,25,false,0.18000000000000005,hh,keypress(i),0,false,1066684.8999999762,1066684.7000000477,1058626.102,1058623.6000000238,1058626.8,1066700.1,5,600,32,
break,html.Screen,10_31_1,2024-03-19T19:37:25.963Z,,,,,,,,,,,NaN,,,,,,,,high,low,,,,,,,false,,,,,false,1066685.2000000477,1066685.2000000477,,1066685,,1066700.1,5,600,,
break_continue,html.Screen,10_31_2,2024-03-19T19:37:25.963Z,,,,,,,,,,,NaN,,,,,,,,high,low,,,,,,,false,,,,,false,1066685.3999999762,1066685.2999999523,,1066685.2000000477,,1066700.1,5,600,,
sequence,flow.Sequence,10_31,2024-03-19T19:37:25.964Z,,,,,,,,,,,8058.49999995227,completion,,,,,,,high,low,,,,,,,false,,,,,false,1066685.5,1066685.2999999523,1058626.102,1058623.6000000238,1058626.8,1066700.1,5,600,,
trial,html.Screen,10_32_0,2024-03-19T19:37:29.371Z,,,,1,0.010035581303589,-0.0100711721396864,,0.04,false,lh,3393.0000000237487,response,-0.7809949855371787,0.9937051138640915,-0.9886802754855932,0.8834146203433249,0.9998769571304095,-0.9057531294359202,low,high,,ISIC_0030592.JPG,9,ISIC_7450481.JPG,28,28,false,0.21000000000000008,ll,keypress(f),0,false,1070093.2000000477,1070093.1000000238,1066683.5,1066685.5,1066700.1,1070102.8,5,600,33,
break,html.Screen,10_32_1,2024-03-19T19:37:29.371Z,,,,,,,,,,,NaN,,,,,,,,low,high,,,,,,,false,,,,,false,1070093.3999999762,1070093.3999999762,,1070093.2999999523,,1070102.8,5,600,,
break_continue,html.Screen,10_32_2,2024-03-19T19:37:29.372Z,,,,,,,,,,,NaN,,,,,,,,low,high,,,,,,,false,,,,,false,1070093.5,1070093.5,,1070093.5,,1070102.8,5,600,,
sequence,flow.Sequence,10_32,2024-03-19T19:37:29.372Z,,,,,,,,,,,3393.399999999907,completion,,,,,,,low,high,,,,,,,false,,,,,false,1070093.6000000238,1070093.5,1066683.5,1066685.5,1066700.1,1070102.8,5,600,,
trial,html.Screen,10_33_0,2024-03-19T19:37:36.140Z,,,,1,-0.00126575685933,-0.0325046559638838,,0.04,false,lh,6758.800000023795,response,-1.1592423187534993,0.9937051138640915,-0.9886802754855932,1.067128884093211,0.9998769571304095,-0.9057531294359202,low,high,,ISIC_5682259.JPG,10,ISIC_6854940.JPG,28,28,false,0.21000000000000008,ll,keypress(f),0,false,1076861.7000000477,1076861.6000000238,1070086.2,1070093.7000000477,1070102.8,1076875.2,5,600,34,
break,html.Screen,10_33_1,2024-03-19T19:37:36.140Z,,,,,,,,,,,NaN,,,,,,,,low,high,,,,,,,false,,,,,false,1076861.7999999523,1076861.7999999523,,1076861.7000000477,,1076875.2,5,600,,
break_continue,html.Screen,10_33_2,2024-03-19T19:37:36.140Z,,,,,,,,,,,NaN,,,,,,,,low,high,,,,,,,false,,,,,false,1076862,1076861.8999999762,,1076861.8999999762,,1076875.2,5,600,,
sequence,flow.Sequence,10_33,2024-03-19T19:37:36.140Z,,,,,,,,,,,6759.099999976112,completion,,,,,,,low,high,,,,,,,false,,,,,false,1076862,1076861.8999999762,1070086.2,1070093.6000000238,1070102.8,1076875.2,5,600,,
trial,html.Screen,10_34_0,2024-03-19T19:37:43.196Z,,,,1,-0.012020985739544,0.0126097407389903,,0.04,false,hh,7042.50000004773,response,0.9991910338212396,0.9937051138640915,-0.9886802754855932,1.0085499824556403,0.9998769571304095,-0.9057531294359202,high,high,,ISIC_0069379.JPG,8,ISIC_7795549.JPG,28,27,false,0.1,ll,keypress(f),0,false,1083917.8999999762,1083917.7000000477,1076858.4,1076862,1076875.2,1083931,5,600,35,
break,html.Screen,10_34_1,2024-03-19T19:37:43.197Z,,,,,,,,,,,NaN,,,,,,,,high,high,,,,,,,false,,,,,false,1083918.6000000238,1083918.5,,1083918.1000000238,,1083931,5,600,,
break_continue,html.Screen,10_34_2,2024-03-19T19:37:43.197Z,,,,,,,,,,,NaN,,,,,,,,high,high,,,,,,,false,,,,,false,1083919,1083918.8999999762,,1083918.7000000477,,1083931,5,600,,
sequence,flow.Sequence,10_34,2024-03-19T19:37:43.197Z,,,,,,,,,,,7043.699999976205,completion,,,,,,,high,high,,,,,,,false,,,,,false,1083919.2000000477,1083918.8999999762,1076858.4,1076862,1076875.2,1083931,5,600,,
trial,html.Screen,10_35_0,2024-03-19T19:37:48.668Z,,,,1,-0.0377791839943904,0.0227626648172468,,0.04,false,lh,5458.700000047684,response,-0.8200962008791046,0.9937051138640915,-0.9886802754855932,0.7963514435349658,0.9998769571304095,-0.9057531294359202,low,high,,ISIC_7167479.JPG,10,ISIC_0027031.JPG,28,28,false,0.21000000000000008,hh,keypress(i),0,false,1089389.7999999523,1089389.7000000477,1083927.646,1083919.2999999523,1083931,1089402.2,5,600,36,
break,html.Screen,10_35_1,2024-03-19T19:37:48.668Z,,,,,,,,,,,NaN,,,,,,,,low,high,,,,,,,false,,,,,false,1089390.1000000238,1089390,,1089389.8999999762,,1089402.2,5,600,,
break_continue,html.Screen,10_35_2,2024-03-19T19:37:48.669Z,,,,,,,,,,,NaN,,,,,,,,low,high,,,,,,,false,,,,,false,1089390.6000000238,1089390.5,,1089390.2000000477,,1089402.2,5,600,,
sequence,flow.Sequence,10_35,2024-03-19T19:37:48.669Z,,,,,,,,,,,5459.5,completion,,,,,,,low,high,,,,,,,false,,,,,false,1089390.6000000238,1089390.5,1083927.646,1083919.2999999523,1083931,1089402.2,5,600,,
trial,html.Screen,10_36_0,2024-03-19T19:38:04.661Z,,,,1,0.0063515208248796,0.0194177605767913,,0.04,,,16013.199999999953,timeout,1.1224745971429997,0.9937051138640915,-0.9886802754855932,-0.8423270217438888,0.9998769571304095,-0.9057531294359202,high,low,,ISIC_5281908.JPG,8,ISIC_0057032.JPG,28,25,false,0.18000000000000005,,,0,false,1105382.6000000238,1105382.2999999523,1089385.3,1089390.7000000477,1089402.2,1105415.4,5,600,37,
break,html.Screen,10_36_1,2024-03-19T19:38:04.661Z,,,,,,,,,,,NaN,,,,,,,,high,low,,,,,,,false,,,,,false,1105383.3999999762,1105383.2000000477,,1105382.8999999762,,1105415.4,5,600,,
break_continue,html.Screen,10_36_2,2024-03-19T19:38:04.662Z,,,,,,,,,,,NaN,,,,,,,,high,low,,,,,,,false,,,,,false,1105383.8999999762,1105383.7999999523,,1105383.6000000238,,1105415.4,5,600,,
sequence,flow.Sequence,10_36,2024-03-19T19:38:04.662Z,,,,,,,,,,,15981.599999952363,completion,,,,,,,high,low,,,,,,,false,,,,,false,1105384.2000000477,1105383.7999999523,1089385.3,1089390.7000000477,1089402.2,1105415.4,5,600,,
trial,html.Screen,10_37_0,2024-03-19T19:38:10.315Z,,,,1,-0.0023664502831079,-0.0252784582169994,,0.04,true,hl,5621.600000000093,response,0.8779374983479176,0.9937051138640915,-0.9886802754855932,-0.9745548032823428,0.9998769571304095,-0.9057531294359202,high,low,,ISIC_4156010.JPG,10,ISIC_2991354.JPG,28,25,false,0.18000000000000005,hl,keypress(j),0,false,1111037.2999999523,1111037,1105398.7,1105384.2999999523,1105415.4,1111053.4,5,600,38,
break,html.Screen,10_37_1,2024-03-19T19:38:10.316Z,,,,,,,,,,,NaN,,,,,,,,high,low,,,,,,,false,,,,,false,1111038.1000000238,1111037.8999999762,,1111037.5,,1111053.4,5,600,,
break_continue,html.Screen,10_37_2,2024-03-19T19:38:10.317Z,,,,,,,,,,,NaN,,,,,,,,high,low,,,,,,,false,,,,,false,1111038.7000000477,1111038.3999999762,,1111038.2000000477,,1111053.4,5,600,,
sequence,flow.Sequence,10_37,2024-03-19T19:38:10.317Z,,,,,,,,,,,5622.999999976251,completion,,,,,,,high,low,,,,,,,false,,,,,false,1111038.8999999762,1111038.3999999762,1105398.7,1105384.2999999523,1105415.4,1111053.4,5,600,,
trial,html.Screen,10_38_0,2024-03-19T19:38:17.147Z,,,,1,-0.0060918352854008,0.029032683404407,,0.04,false,ll,6815.700000023935,response,-1.0857873435995111,0.9937051138640915,-0.9886802754855932,-0.8502716010726371,0.9998769571304095,-0.9057531294359202,low,low,,ISIC_8436194.JPG,9,ISIC_2784664.JPG,28,54,false,0.1,hh,keypress(i),0,false,1117869.2000000477,1117869.1000000238,1111036.6,1111039.1000000238,1111053.4,1117875.7,5,600,39,
break,html.Screen,10_38_1,2024-03-19T19:38:17.148Z,,,,,,,,,,,NaN,,,,,,,,low,low,,,,,,,false,,,,,false,1117869.5,1117869.3999999762,,1117869.2999999523,,1117875.7,5,600,,
break_continue,html.Screen,10_38_2,2024-03-19T19:38:17.148Z,,,,,,,,,,,NaN,,,,,,,,low,low,,,,,,,false,,,,,false,1117869.6000000238,1117869.6000000238,,1117869.5,,1117875.7,5,600,,
sequence,flow.Sequence,10_38,2024-03-19T19:38:17.148Z,,,,,,,,,,,6816.200000023935,completion,,,,,,,low,low,,,,,,,false,,,,,false,1117869.6000000238,1117869.6000000238,1111036.6,1111039.1000000238,1111053.4,1117875.7,5,600,,
