sender,sender_type,sender_id,timestamp,meta,,age,blockNo,c1,c2,condition,control_tolerance,correct,correctResponse,duration,ended_on,f1,f1_high,f1_low,f2,f2_high,f2_low,feature_level1,feature_level2,gender,img_left,img_reveal,img_right,n_control_images,n_target_images,practice,range_tolerance,response,response_action,selection_duration,staircase,time_commit,time_end,time_render,time_run,time_show,time_switch,total_blocks,total_trials,trialNo,url
informed_consent,html.Screen,0,2024-03-05T20:25:45.985Z,"{""labjs_version"":""20.2.4"",""labjs_build"":{""flavor"":""development"",""commit"":""f5b4a49f956347addd546a832a3327688c2c0fef""},""location"":""https://labjs.felixhenninger.com/api/labjs_preview/index.html"",""userAgent"":""Mozilla/5.0 (Windows NT 10.0; Win64; x64) AppleWebKit/537.36 (KHTML, like Gecko) Chrome/119.0.0.0 Safari/537.36"",""platform"":""Win32"",""language"":""en-US"",""locale"":""en-US"",""timeZone"":""America/Chicago"",""timezoneOffset"":360,""screen_width"":1920,""screen_height"":1080,""scroll_width"":945,""scroll_height"":918,""window_innerWidth"":945,""window_innerHeight"":966,""devicePixelRatio"":1}",,,,,,,,,,448359.09299999994,response,,,,,,,,,,,,,,,,,consent,click button,,,449611.6,449602.19999999995,1226.423,1242.1000000000058,1243.107,449624.025,,,,{}
Demography form,html.Form,1,2024-03-05T20:25:55.481Z,,,21,,,,,,,,9483.375,form submission,,,,,,,,,male,,,,,,,,,,,,459107.5,459107.4,449607.344,449612,449624.025,459116.825,,,,
Welcome,html.Screen,2,2024-03-05T20:26:11.360Z,,,,,,,"[""asym"",""col""]",,,,15869.374999999942,response,,,,,,,,,,,,,,,,,continue,click button,,,474986.80000000005,474986.19999999995,459100.164,459107.69999999995,459116.825,475016.043,,,,
demo_instructions,html.Screen,3,2024-03-05T20:26:31.192Z,,,,,,,,,,,9546.257000000041,response,,,,,,,,,,,,,,,,,continue,keypress(Space),,,484562.80000000005,484562.30000000005,474999.376,474986.9,475016.043,484592.253,,,,
trial,html.Screen,4_0_0,2024-03-05T20:26:46.886Z,,,,0,-1.1671212908494544,-1.1286681796701683,,,true,hh,15664.746999999974,response,1.1638334638021437,1.2,-1.2,1.0846635401396965,1.2,-1.2,high,high,,ISIC_0065022.JPG,,ISIC_4718313.JPG,,25,true,0.15000000000000002,hh,keypress(i),100,false,500257.30000000005,500257,484558.72,484562.9,484592.253,500274.588,1,16,1,
sequence,flow.Sequence,4_0,2024-03-05T20:26:46.887Z,,,,,,,,,,,15664.746999999974,completion,,,,,,,high,high,,,,,,,true,,,,,false,500257.9,500257,484558.72,484562.9,484592.253,500274.588,1,16,,
trial,html.Screen,4_1_0,2024-03-05T20:26:54.307Z,,,,0,-1.1671212908494544,-1.1286681796701683,,,true,hh,7403.412000000011,response,1.073296525451802,1.2,-1.2,1.3454282740421717,1.2,-1.2,high,high,,ISIC_0065022.JPG,,ISIC_5787312.JPG,,25,true,0.15000000000000002,hh,keypress(i),100,false,507678.30000000005,507678,500257.914,500258.1,500274.588,507698.671,1,16,2,
sequence,flow.Sequence,4_1,2024-03-05T20:26:54.307Z,,,,,,,,,,,7403.412000000011,completion,,,,,,,high,high,,,,,,,true,,,,,false,507678.5,507678,500257.914,500258,500274.588,507698.671,1,16,,
trial,html.Screen,4_2_0,2024-03-05T20:27:04.655Z,,,,0,-1.1227373144244253,-1.1886610799377713,,,true,hh,10327.22900000005,response,1.053007132776416,1.2,-1.2,1.341217082060068,1.2,-1.2,high,high,,ISIC_0059506.JPG,,ISIC_0024208.JPG,,25,true,0.15000000000000002,hh,keypress(i),100,false,518026.1,518025.9,507681.998,507678.69999999995,507698.671,518042.319,1,16,3,
sequence,flow.Sequence,4_2,2024-03-05T20:27:04.655Z,,,,,,,,,,,10327.22900000005,completion,,,,,,,high,high,,,,,,,true,,,,,false,518026.4,518025.9,507681.998,507678.69999999995,507698.671,518042.319,1,16,,
trial,html.Screen,4_3_0,2024-03-05T20:27:11.096Z,,,,0,-1.194799101954455,-1.2071632388858642,,,true,hh,6424.380999999936,response,1.1727618800748076,1.2,-1.2,1.0636787813411093,1.2,-1.2,high,high,,ISIC_4347535.JPG,,ISIC_9690371.JPG,,25,true,0.15000000000000002,hh,keypress(i),100,false,524467.1,524466.7,518025.64,518026.6,518042.319,524498.784,1,16,4,
sequence,flow.Sequence,4_3,2024-03-05T20:27:11.096Z,,,,,,,,,,,6424.380999999936,completion,,,,,,,high,high,,,,,,,true,,,,,false,524467.4,524466.7,518025.64,518026.6,518042.319,524498.784,1,16,,
trial,html.Screen,4_4_0,2024-03-05T20:27:18.549Z,,,,0,1.1217390688497193,1.2276600934505035,,,true,ll,7421.116000000038,response,-1.2872758518949912,1.2,-1.2,-1.313723254903214,1.2,-1.2,low,low,,ISIC_0026344.JPG,,ISIC_0064376.JPG,,27,true,0.12,ll,keypress(f),100,false,531920.1,531919.9,524482.098,524467.6,524498.784,531939.545,1,16,5,
sequence,flow.Sequence,4_4,2024-03-05T20:27:18.549Z,,,,,,,,,,,7421.116000000038,completion,,,,,,,low,low,,,,,,,true,,,,,false,531920.3,531919.9,524482.098,524467.5,524498.784,531939.545,1,16,,
trial,html.Screen,4_5_0,2024-03-05T20:27:23.549Z,,,,0,1.1990772227054871,1.1224329926844498,,,true,ll,4980.954999999958,response,-1.2232482867978696,1.2,-1.2,-1.2451219760556858,1.2,-1.2,low,low,,ISIC_3425388.JPG,,ISIC_0030889.JPG,,41,true,0.15000000000000002,ll,keypress(f),100,false,536920.7,536920.5,531922.868,531920.4,531939.545,536944.524,1,16,6,
sequence,flow.Sequence,4_5,2024-03-05T20:27:23.550Z,,,,,,,,,,,4980.954999999958,completion,,,,,,,low,low,,,,,,,true,,,,,false,536920.9,536920.5,531922.868,531920.4,531939.545,536944.524,1,16,,
trial,html.Screen,4_6_0,2024-03-05T20:27:28.886Z,,,,0,1.1217390688497193,1.2276600934505035,,,true,ll,5312.576000000001,response,-1.1227373144244253,1.2,-1.2,-1.1886610799377713,1.2,-1.2,low,low,,ISIC_0026344.JPG,,ISIC_0059506.JPG,,41,true,0.15000000000000002,ll,keypress(f),100,false,542257.3,542257.1,536927.855,536921,536944.524,542283.246,1,16,7,
sequence,flow.Sequence,4_6,2024-03-05T20:27:28.886Z,,,,,,,,,,,5312.576000000001,completion,,,,,,,low,low,,,,,,,true,,,,,false,542257.5,542257.1,536927.855,536921,536944.524,542283.246,1,16,,
trial,html.Screen,4_7_0,2024-03-05T20:27:43.420Z,,,,0,1.1638334638021437,1.0846635401396965,,,true,ll,5455.054000000004,response,-1.1126049058422398,1.2,-1.2,-1.2305421124063929,1.2,-1.2,low,low,,ISIC_4718313.JPG,,ISIC_0071536.JPG,,41,true,0.15000000000000002,ll,keypress(f),100,false,547738.4,547738.3,542266.51,542257.7,542283.246,547755.307,1,16,8,
sequence,flow.Sequence,4_7,2024-03-05T20:27:43.420Z,,,,,,,,,,,5455.054000000004,completion,,,,,,,low,low,,,,,,,true,,,,,false,547738.5,547738.3,542266.51,542257.7,542283.246,547755.307,1,16,,
trial,html.Screen,4_8_0,2024-03-05T20:27:51.313Z,,,,0,1.1235224875125256,-0.8641223012137988,,,true,lh,7875.292999999947,response,-1.0264463986917702,1.2,-1.2,1.171271535505083,1.2,-1.2,low,high,,ISIC_0033901.JPG,,ISIC_7889838.JPG,,26,true,0.3300000000000002,lh,keypress(e),100,false,555630.8,555630.6,547738.636,547738.7,547755.307,555663.226,1,16,9,
sequence,flow.Sequence,4_8,2024-03-05T20:27:51.313Z,,,,,,,,,,,7875.292999999947,completion,,,,,,,low,high,,,,,,,true,,,,,false,555631,555630.6,547738.636,547738.7,547755.307,555663.226,1,16,,
trial,html.Screen,4_9_0,2024-03-05T20:27:57.733Z,,,,0,1.3411487193830047,-1.198640448317381,,,true,lh,6387.473999999929,response,-1.052305774554686,1.2,-1.2,1.3940181224717798,1.2,-1.2,low,high,,ISIC_3093026.JPG,,ISIC_4175400.JPG,,33,true,0.3600000000000002,lh,keypress(e),100,false,562050.8,562050.7,555646.552,555631.2,555663.226,562069.598,1,16,10,
sequence,flow.Sequence,4_9,2024-03-05T20:27:57.733Z,,,,,,,,,,,6387.473999999929,completion,,,,,,,low,high,,,,,,,true,,,,,false,562051.1,562050.7,555646.552,555631.1,555663.226,562069.598,1,16,,
trial,html.Screen,4_10_0,2024-03-05T20:28:02.298Z,,,,0,1.225025174430573,-0.8422679054456499,,,true,lh,4546.702000000048,response,-1.2043484010107477,1.2,-1.2,1.2178113180138233,1.2,-1.2,low,high,,ISIC_7503950.JPG,,ISIC_0011917.JPG,,33,true,0.3600000000000002,lh,keypress(e),100,false,566616.5,566616.3,562052.937,562051.2,562069.598,566640.837,1,16,11,
sequence,flow.Sequence,4_10,2024-03-05T20:28:02.298Z,,,,,,,,,,,4546.702000000048,completion,,,,,,,low,high,,,,,,,true,,,,,false,566616.7,566616.3,562052.937,562051.2,562069.598,566640.837,1,16,,
trial,html.Screen,4_11_0,2024-03-05T20:28:09.867Z,,,,0,0.9445114955578736,-1.0054210059625863,,,true,lh,7544.362999999896,response,-0.8688859182707874,1.2,-1.2,0.9566733172438716,1.2,-1.2,low,high,,ISIC_0033807.JPG,,ISIC_0640770.JPG,,33,true,0.3600000000000002,lh,keypress(e),100,false,574185.2,574185.2,566624.167,566616.7,566640.837,574215.086,1,16,12,
sequence,flow.Sequence,4_11,2024-03-05T20:28:09.867Z,,,,,,,,,,,7544.362999999896,completion,,,,,,,low,high,,,,,,,true,,,,,false,574185.6,574185.2,566624.167,566616.7,566640.837,574215.086,1,16,,
trial,html.Screen,4_12_0,2024-03-05T20:28:16.216Z,,,,0,-0.9566823908868002,0.9602125665128364,,,true,hl,6318.613999999943,response,1.0143509683988825,1.2,-1.2,-1.0281980567462463,1.2,-1.2,high,low,,ISIC_0056784.JPG,,ISIC_0062031.JPG,,29,true,0.3600000000000002,hl,keypress(j),100,false,580533.8,580533.7,574198.388,574185.7,574215.086,580554.708,1,16,13,
sequence,flow.Sequence,4_12,2024-03-05T20:28:16.216Z,,,,,,,,,,,6318.613999999943,completion,,,,,,,high,low,,,,,,,true,,,,,false,580534,580533.7,574198.388,574185.7,574215.086,580554.708,1,16,,
trial,html.Screen,4_13_0,2024-03-05T20:28:17.931Z,,,,0,-1.082730232773217,0.8833175387485132,,,true,hl,1694.4919999999693,response,1.0003671514840182,1.2,-1.2,-0.8992716557663581,1.2,-1.2,high,low,,ISIC_0011933.JPG,,ISIC_0061749.JPG,,29,true,0.3600000000000002,hl,keypress(j),100,false,582249.2,582249.2,580538.054,580534,580554.708,582273.116,1,16,14,
sequence,flow.Sequence,4_13,2024-03-05T20:28:17.931Z,,,,,,,,,,,1694.4919999999693,completion,,,,,,,high,low,,,,,,,true,,,,,false,582249.5,582249.2,580538.054,580534,580554.708,582273.116,1,16,,
trial,html.Screen,4_14_0,2024-03-05T20:28:20.841Z,,,,0,-1.052305774554686,1.3940181224717798,,,true,hl,2886.4839999999385,response,0.9385447468573198,1.2,-1.2,-1.2289860846064424,1.2,-1.2,high,low,,ISIC_4175400.JPG,,ISIC_0032780.JPG,,29,true,0.3600000000000002,hl,keypress(j),100,false,585159.7,585159.6,582256.435,582249.6,582273.116,585175.995,1,16,15,
sequence,flow.Sequence,4_14,2024-03-05T20:28:20.842Z,,,,,,,,,,,2886.4839999999385,completion,,,,,,,high,low,,,,,,,true,,,,,false,585159.8,585159.6,582256.435,582249.5,582273.116,585175.995,1,16,,
trial,html.Screen,4_15_0,2024-03-05T20:28:22.685Z,,,,0,-1.2609895831255231,1.0687377724194886,,,true,hl,1827.405000000028,response,0.8591294258188253,1.2,-1.2,-0.870797302150167,1.2,-1.2,high,low,,ISIC_1367610.JPG,,ISIC_0055841.JPG,,29,true,0.3600000000000002,hl,keypress(j),100,false,587003.5,587003.4,585159.321,585159.9,585175.995,587027.857,1,16,16,
sequence,flow.Sequence,4_15,2024-03-05T20:28:22.685Z,,,,,,,,,,,1827.405000000028,completion,,,,,,,high,low,,,,,,,true,,,,,false,587003.7,587003.4,585159.321,585159.9,585175.995,587027.857,1,16,,
demonstration_loop,flow.Loop,4,2024-03-05T20:28:22.685Z,,,,,,,,,,,102411.147,completion,,,,,,,,,,,,,,,true,,,,,false,587003.8,587003.4,484558.72,484562.9,484592.253,587027.857,1,16,,
practice_instructions,html.Screen,5,2024-03-05T20:30:37.004Z,,,,,,,,,,,129262.343,response,,,,,,,,,,,,,,,,,continue,keypress(Space),,,716297.6,716290.2,587011.175,587003.8,587027.857,716323.601,,,,
trial,html.Screen,6_0_0,2024-03-05T20:30:45.392Z,,,,1,1.4727776799485246,-0.8779113138076752,,,true,lh,8354.498999999953,response,-0.887838744955182,1.2,-1.2,1.3716210719758812,1.2,-1.2,low,high,,ISIC_0033074.JPG,,ISIC_1488727.JPG,,26,true,0.3300000000000002,lh,keypress(e),0,false,724685.3,724678.1,716287.726,716297.7,716323.601,724698.614,1,40,1,
sequence,flow.Sequence,6_0,2024-03-05T20:30:45.392Z,,,,,,,,,,,8354.498999999953,completion,,,,,,,low,high,,,,,,,true,,,,,false,724685.5,724678.1,716287.726,716297.7,716323.601,724698.614,1,40,,
trial,html.Screen,6_1_0,2024-03-05T20:30:46.805Z,,,,1,-1.238264833797662,-1.176099940770289,,,true,hh,1399.8860000000568,response,1.1513073368404492,1.2,-1.2,1.0485268550965705,1.2,-1.2,high,high,,ISIC_0032861.JPG,,ISIC_0030666.JPG,,157,true,0.3600000000000002,hh,keypress(i),0,false,726098.5,726098.5,724681.808,724685.6,724698.614,726116.756,1,40,2,
sequence,flow.Sequence,6_1,2024-03-05T20:30:46.805Z,,,,,,,,,,,1399.8860000000568,completion,,,,,,,high,high,,,,,,,true,,,,,false,726098.6,726098.5,724681.808,724685.6,724698.614,726116.756,1,40,,
trial,html.Screen,6_2_0,2024-03-05T20:30:49.093Z,,,,1,-1.0822170028935367,1.1654796154432183,,,true,hl,2269.5439999999944,response,1.4727776799485246,1.2,-1.2,-0.8779113138076752,1.2,-1.2,high,low,,ISIC_7288818.JPG,,ISIC_0033074.JPG,,29,true,0.3600000000000002,hl,keypress(j),0,false,728386.5,728386.3,726083.357,726098.6,726116.756,728402.304,1,40,3,
sequence,flow.Sequence,6_2,2024-03-05T20:30:49.093Z,,,,,,,,,,,2269.5439999999944,completion,,,,,,,high,low,,,,,,,true,,,,,false,728386.6,728386.3,726083.357,726098.6,726116.756,728402.304,1,40,,
trial,html.Screen,6_3_0,2024-03-05T20:30:50.517Z,,,,1,-0.9566823908868002,0.9602125665128364,,,true,hl,1408.1959999999963,response,0.9385447468573198,1.2,-1.2,-1.2289860846064424,1.2,-1.2,high,low,,ISIC_0056784.JPG,,ISIC_0032780.JPG,,29,true,0.3600000000000002,hl,keypress(j),0,false,729810.5,729810.5,728385.598,728386.6,728402.304,729820.403,1,40,4,
sequence,flow.Sequence,6_3,2024-03-05T20:30:50.517Z,,,,,,,,,,,1408.1959999999963,completion,,,,,,,high,low,,,,,,,true,,,,,false,729810.7,729810.5,728385.598,728386.6,728402.304,729820.403,1,40,,
trial,html.Screen,6_4_0,2024-03-05T20:30:52.150Z,,,,1,1.301795918505203,1.0518606632781424,,,true,ll,1622.496999999974,response,-0.8868080718134892,1.2,-1.2,-0.8837963869804757,1.2,-1.2,low,low,,ISIC_0027666.JPG,,ISIC_0068895.JPG,,211,true,0.3300000000000002,ll,keypress(f),0,false,731443.1,731442.9,729803.724,729810.9,729820.403,731455.413,1,40,5,
sequence,flow.Sequence,6_4,2024-03-05T20:30:52.150Z,,,,,,,,,,,1622.496999999974,completion,,,,,,,low,low,,,,,,,true,,,,,false,731443.3,731442.9,729803.724,729810.8,729820.403,731455.413,1,40,,
trial,html.Screen,6_5_0,2024-03-05T20:30:53.493Z,,,,1,-1.055319394932912,1.409116680310466,,,true,hl,1331.0870000000577,response,1.1235224875125256,1.2,-1.2,-0.8641223012137988,1.2,-1.2,high,low,,ISIC_6398669.JPG,,ISIC_0033901.JPG,,29,true,0.3600000000000002,hl,keypress(j),0,false,732786.7,732786.5,731438.7,731443.4,731455.413,732790.029,1,40,6,
sequence,flow.Sequence,6_5,2024-03-05T20:30:53.494Z,,,,,,,,,,,1331.0870000000577,completion,,,,,,,high,low,,,,,,,true,,,,,false,732786.8,732786.5,731438.7,731443.3,731455.413,732790.029,1,40,,
trial,html.Screen,6_6_0,2024-03-05T20:30:55.269Z,,,,1,0.8479396253253069,-1.011054319516718,,,true,lh,1772.5709999999963,response,-1.0961318727760048,1.2,-1.2,1.2134960228256146,1.2,-1.2,low,high,,ISIC_0063521.JPG,,ISIC_9768421.JPG,,26,true,0.3300000000000002,lh,keypress(e),0,false,734562.7,734562.6,732773.388,732786.9,732790.029,734575.199,1,40,7,
sequence,flow.Sequence,6_6,2024-03-05T20:30:55.269Z,,,,,,,,,,,1772.5709999999963,completion,,,,,,,low,high,,,,,,,true,,,,,false,734562.7,734562.6,732773.388,732786.9,732790.029,734575.199,1,40,,
trial,html.Screen,6_7_0,2024-03-05T20:30:56.773Z,,,,1,-1.189469386514313,-1.3008582067137853,,,true,hh,1491.201000000001,response,1.0885984639975343,1.2,-1.2,1.2042618719491294,1.2,-1.2,high,high,,ISIC_0010644.JPG,,ISIC_0012740.JPG,,157,true,0.3600000000000002,hh,keypress(i),0,false,736066.5,736066.4,734558.445,734562.9,734575.199,736093.32,1,40,8,
sequence,flow.Sequence,6_7,2024-03-05T20:30:56.773Z,,,,,,,,,,,1491.201000000001,completion,,,,,,,high,high,,,,,,,true,,,,,false,736066.7,736066.4,734558.445,734562.9,734575.199,736093.32,1,40,,
trial,html.Screen,6_8_0,2024-03-05T20:30:57.989Z,,,,1,-1.052305774554686,1.3940181224717798,,,true,hl,1189.280000000028,response,1.00615481805876,1.2,-1.2,-0.8428903771195875,1.2,-1.2,high,low,,ISIC_4175400.JPG,,ISIC_0069970.JPG,,29,true,0.3600000000000002,hl,keypress(j),0,false,737282.7,737282.6,736059.983,736066.8,736093.32,737294.539,1,40,9,
sequence,flow.Sequence,6_8,2024-03-05T20:30:57.990Z,,,,,,,,,,,1189.280000000028,completion,,,,,,,high,low,,,,,,,true,,,,,false,737282.9,737282.6,736059.983,736066.8,736093.32,737294.539,1,40,,
trial,html.Screen,6_9_0,2024-03-05T20:30:59.109Z,,,,1,0.8644465729542988,-0.8679598285079457,,,true,lh,1107.9610000000102,response,-0.9046170303418553,1.2,-1.2,1.0063426986460375,1.2,-1.2,low,high,,ISIC_6718969.JPG,,ISIC_0055759.JPG,,26,true,0.3300000000000002,lh,keypress(e),0,false,738402.5,738402.5,737277.864,737283,737294.539,738412.324,1,40,10,
sequence,flow.Sequence,6_9,2024-03-05T20:30:59.109Z,,,,,,,,,,,1107.9610000000102,completion,,,,,,,low,high,,,,,,,true,,,,,false,738402.6,738402.5,737277.864,737282.9,737294.539,738412.324,1,40,,
trial,html.Screen,6_10_0,2024-03-05T20:31:00.309Z,,,,1,-1.238264833797662,-1.176099940770289,,,true,hh,1190.1759999999776,response,1.1679182396424097,1.2,-1.2,0.8971678181565197,1.2,-1.2,high,high,,ISIC_0032861.JPG,,ISIC_0025085.JPG,,157,true,0.3600000000000002,hh,keypress(i),0,false,739602.5,739602.5,738395.649,738402.7,738412.324,739613.527,1,40,11,
sequence,flow.Sequence,6_10,2024-03-05T20:31:00.309Z,,,,,,,,,,,1190.1759999999776,completion,,,,,,,high,high,,,,,,,true,,,,,false,739602.7,739602.5,738395.649,738402.7,738412.324,739613.527,1,40,,
trial,html.Screen,6_11_0,2024-03-05T20:31:01.605Z,,,,1,-1.2055236989581275,-1.1960893075698802,,,true,hh,1284.9729999999981,response,1.0878102877901663,1.2,-1.2,1.3154097543539391,1.2,-1.2,high,high,,ISIC_0072393.JPG,,ISIC_1413242.JPG,,25,true,0.15000000000000002,hh,keypress(i),0,false,740898.7,740898.5,739596.845,739602.7,739613.527,740914.82,1,40,12,
sequence,flow.Sequence,6_11,2024-03-05T20:31:01.606Z,,,,,,,,,,,1284.9729999999981,completion,,,,,,,high,high,,,,,,,true,,,,,false,740898.9,740898.5,739596.845,739602.7,739613.527,740914.82,1,40,,
trial,html.Screen,6_12_0,2024-03-05T20:31:02.853Z,,,,1,-1.2435042401134029,-1.2939710463315144,,,true,hh,1231.6800000000512,response,1.0878102877901663,1.2,-1.2,1.3154097543539391,1.2,-1.2,high,high,,ISIC_0056119.JPG,,ISIC_1413242.JPG,,25,true,0.15000000000000002,hh,keypress(i),0,false,742146.6,742146.5,740898.134,740899,740914.82,742149.372,1,40,13,
sequence,flow.Sequence,6_12,2024-03-05T20:31:02.853Z,,,,,,,,,,,1231.6800000000512,completion,,,,,,,high,high,,,,,,,true,,,,,false,742146.8,742146.5,740898.134,740899,740914.82,742149.372,1,40,,
trial,html.Screen,6_13_0,2024-03-05T20:31:04.325Z,,,,1,1.1363600109870835,1.295816345369928,,,true,ll,1469.128000000026,response,-1.250220052739973,1.2,-1.2,-1.2967258992731714,1.2,-1.2,low,low,,ISIC_0026141.JPG,,ISIC_0031368.JPG,,27,true,0.12,ll,keypress(f),0,false,743618.6,743618.5,742132.668,742146.9,742149.372,743634.177,1,40,14,
sequence,flow.Sequence,6_13,2024-03-05T20:31:04.325Z,,,,,,,,,,,1469.128000000026,completion,,,,,,,low,low,,,,,,,true,,,,,false,743618.8,743618.5,742132.668,742146.9,742149.372,743634.177,1,40,,
trial,html.Screen,6_14_0,2024-03-05T20:31:05.621Z,,,,1,-1.052305774554686,1.3940181224717798,,,true,hl,1280.1230000000214,response,1.11329866545753,1.2,-1.2,-1.2155631217348757,1.2,-1.2,high,low,,ISIC_4175400.JPG,,ISIC_0032610.JPG,,29,true,0.3600000000000002,hl,keypress(j),0,false,744914.5,744914.3,743617.463,743618.8,743634.177,744918.793,1,40,15,
sequence,flow.Sequence,6_14,2024-03-05T20:31:05.621Z,,,,,,,,,,,1280.1230000000214,completion,,,,,,,high,low,,,,,,,true,,,,,false,744914.7,744914.3,743617.463,743618.8,743634.177,744918.793,1,40,,
trial,html.Screen,6_15_0,2024-03-05T20:31:06.965Z,,,,1,1.1510001454240106,1.132540312667795,,,true,ll,1339.707000000053,response,-1.1894733304494307,1.2,-1.2,-1.1169761866204877,1.2,-1.2,low,low,,ISIC_0009959.JPG,,ISIC_0033813.JPG,,211,true,0.3300000000000002,ll,keypress(f),0,false,746258.6,746258.5,744902.14,744914.7,744918.793,746270.165,1,40,16,
sequence,flow.Sequence,6_15,2024-03-05T20:31:06.965Z,,,,,,,,,,,1339.707000000053,completion,,,,,,,low,low,,,,,,,true,,,,,false,746258.6,746258.5,744902.14,744914.7,744918.793,746270.165,1,40,,
trial,html.Screen,6_16_0,2024-03-05T20:31:08.213Z,,,,1,0.8591294258188253,-0.870797302150167,,,true,lh,1236.3349999999627,response,-0.9046170303418553,1.2,-1.2,1.0063426986460375,1.2,-1.2,low,high,,ISIC_0055841.JPG,,ISIC_0055759.JPG,,26,true,0.3300000000000002,lh,keypress(e),0,false,747506.6,747506.5,746253.461,746258.7,746270.165,747521.42,1,40,17,
sequence,flow.Sequence,6_16,2024-03-05T20:31:08.213Z,,,,,,,,,,,1236.3349999999627,completion,,,,,,,low,high,,,,,,,true,,,,,false,747506.8,747506.5,746253.461,746258.7,746270.165,747521.42,1,40,,
trial,html.Screen,6_17_0,2024-03-05T20:31:09.429Z,,,,1,-1.0345332538240786,1.4719115945084815,,,true,hl,1200.9799999999814,response,0.8591294258188253,1.2,-1.2,-0.870797302150167,1.2,-1.2,high,low,,ISIC_0192490.JPG,,ISIC_0055841.JPG,,29,true,0.3600000000000002,hl,keypress(j),0,false,748722.6,748722.4,747504.709,747506.8,747521.42,748739.298,1,40,18,
sequence,flow.Sequence,6_17,2024-03-05T20:31:09.429Z,,,,,,,,,,,1200.9799999999814,completion,,,,,,,high,low,,,,,,,true,,,,,false,748722.7,748722.4,747504.709,747506.8,747521.42,748739.298,1,40,,
trial,html.Screen,6_18_0,2024-03-05T20:31:10.613Z,,,,1,1.212030980680325,1.139863018685685,,,true,ll,1167.2020000000484,response,-0.871214853884121,1.2,-1.2,-1.4935263825977805,1.2,-1.2,low,low,,ISIC_0008510.JPG,,ISIC_0072473.JPG,,211,true,0.3300000000000002,ll,keypress(f),0,false,749906.6,749906.5,748722.582,748722.8,748739.298,749923.824,1,40,19,
sequence,flow.Sequence,6_18,2024-03-05T20:31:10.613Z,,,,,,,,,,,1167.2020000000484,completion,,,,,,,low,low,,,,,,,true,,,,,false,749906.8,749906.5,748722.582,748722.8,748739.298,749923.824,1,40,,
trial,html.Screen,6_19_0,2024-03-05T20:31:11.637Z,,,,1,-1.2435042401134029,-1.2939710463315144,,,true,hh,1006.6759999999776,response,1.1363600109870835,1.2,-1.2,1.295816345369928,1.2,-1.2,high,high,,ISIC_0056119.JPG,,ISIC_0026141.JPG,,25,true,0.15000000000000002,hh,keypress(i),0,false,750930.6,750930.5,749907.123,749906.8,749923.824,750941.483,1,40,20,
sequence,flow.Sequence,6_19,2024-03-05T20:31:11.637Z,,,,,,,,,,,1006.6759999999776,completion,,,,,,,high,high,,,,,,,true,,,,,false,750930.6,750930.5,749907.123,749906.8,749923.824,750941.483,1,40,,
trial,html.Screen,6_20_0,2024-03-05T20:31:13.861Z,,,,1,-0.8709576717420565,1.2795156779072283,,,true,hl,2212.917000000016,response,1.4748095371445096,1.2,-1.2,-0.9579010801034902,1.2,-1.2,high,low,,ISIC_1925632.JPG,,ISIC_0033216.JPG,,29,true,0.3600000000000002,hl,keypress(j),0,false,753154.5,753154.4,750924.829,750930.7,750941.483,753160.348,1,40,21,
sequence,flow.Sequence,6_20,2024-03-05T20:31:13.861Z,,,,,,,,,,,2212.917000000016,completion,,,,,,,high,low,,,,,,,true,,,,,false,753154.6,753154.4,750924.829,750930.7,750941.483,753160.348,1,40,,
trial,html.Screen,6_21_0,2024-03-05T20:31:15.509Z,,,,1,1.2200968917423711,1.3183466064109373,,,true,ll,1642.1520000000019,response,-1.3132505134129506,1.2,-1.2,-1.0949928516457437,1.2,-1.2,low,low,,ISIC_3624318.JPG,,ISIC_0066935.JPG,,211,true,0.3300000000000002,ll,keypress(f),0,false,754802.6,754802.5,753143.644,753154.8,753160.348,754812.01,1,40,22,
sequence,flow.Sequence,6_21,2024-03-05T20:31:15.509Z,,,,,,,,,,,1642.1520000000019,completion,,,,,,,low,low,,,,,,,true,,,,,false,754802.8,754802.5,753143.644,753154.7,753160.348,754812.01,1,40,,
trial,html.Screen,6_22_0,2024-03-05T20:31:17.605Z,,,,1,1.1510001454240106,1.132540312667795,,,false,ll,2086.390000000014,response,-1.152619213055059,1.2,-1.2,-1.2957497771092716,1.2,-1.2,low,low,,ISIC_0009959.JPG,,ISIC_0061915.JPG,,41,true,0.15000000000000002,hh,keypress(i),0,false,756898.5,756898.4,754795.304,754802.9,754812.01,756914.113,1,40,23,
sequence,flow.Sequence,6_22,2024-03-05T20:31:17.605Z,,,,,,,,,,,2086.390000000014,completion,,,,,,,low,low,,,,,,,true,,,,,false,756898.8,756898.4,754795.304,754802.9,754812.01,756914.113,1,40,,
trial,html.Screen,6_23_0,2024-03-05T20:31:19.781Z,,,,1,-0.9448560599810628,0.9099421612683488,,,true,hl,2160.386999999988,response,1.0003671514840182,1.2,-1.2,-0.8992716557663581,1.2,-1.2,high,low,,ISIC_9684318.JPG,,ISIC_0061749.JPG,,29,true,0.3600000000000002,hl,keypress(j),0,false,759074.6,759074.5,756897.4,756898.8,756914.113,759082.943,1,40,24,
sequence,flow.Sequence,6_23,2024-03-05T20:31:19.781Z,,,,,,,,,,,2160.386999999988,completion,,,,,,,high,low,,,,,,,true,,,,,false,759074.8,759074.5,756897.4,756898.8,756914.113,759082.943,1,40,,
trial,html.Screen,6_24_0,2024-03-05T20:31:20.805Z,,,,1,0.9385447468573198,-1.2289860846064424,,,true,lh,1015.5570000000298,response,-0.9448560599810628,1.2,-1.2,0.9099421612683488,1.2,-1.2,low,high,,ISIC_0032780.JPG,,ISIC_9684318.JPG,,26,true,0.3300000000000002,lh,keypress(e),0,false,760098.6,760098.5,759066.26,759074.9,759082.943,760117.329,1,40,25,
sequence,flow.Sequence,6_24,2024-03-05T20:31:20.805Z,,,,,,,,,,,1015.5570000000298,completion,,,,,,,low,high,,,,,,,true,,,,,false,760098.7,760098.5,759066.26,759074.9,759082.943,760117.329,1,40,,
trial,html.Screen,6_25_0,2024-03-05T20:31:23.349Z,,,,1,1.1510001454240106,1.132540312667795,,,true,ll,2524.9710000000196,response,-1.2834026597784096,1.2,-1.2,-0.9580511808600578,1.2,-1.2,low,low,,ISIC_0009959.JPG,,ISIC_0061371.JPG,,249,true,0.3600000000000002,ll,keypress(f),0,false,762642.4,762642.3,760100.647,760098.7,760117.329,762653.159,1,40,26,
sequence,flow.Sequence,6_25,2024-03-05T20:31:23.349Z,,,,,,,,,,,2524.9710000000196,completion,,,,,,,low,low,,,,,,,true,,,,,false,762642.5,762642.3,760100.647,760098.7,760117.329,762653.159,1,40,,
trial,html.Screen,6_26_0,2024-03-05T20:31:24.965Z,,,,1,-1.2040551955011098,-1.2664651062241792,,,true,hh,1605.341000000015,response,1.2200968917423711,1.2,-1.2,1.3183466064109373,1.2,-1.2,high,high,,ISIC_0068886.JPG,,ISIC_3624318.JPG,,25,true,0.15000000000000002,hh,keypress(i),0,false,764258.6,764258.5,762636.488,762642.6,762653.159,764271.467,1,40,27,
sequence,flow.Sequence,6_26,2024-03-05T20:31:24.965Z,,,,,,,,,,,1605.341000000015,completion,,,,,,,high,high,,,,,,,true,,,,,false,764258.7,764258.5,762636.488,762642.6,762653.159,764271.467,1,40,,
trial,html.Screen,6_27_0,2024-03-05T20:31:26.901Z,,,,1,1.0003671514840182,-0.8992716557663581,,,true,lh,1923.033000000054,response,-0.9046170303418553,1.2,-1.2,1.0063426986460375,1.2,-1.2,low,high,,ISIC_0061749.JPG,,ISIC_0055759.JPG,,26,true,0.3300000000000002,lh,keypress(e),0,false,766194.6,766194.5,764254.745,764258.8,764271.467,766206.723,1,40,28,
sequence,flow.Sequence,6_27,2024-03-05T20:31:26.901Z,,,,,,,,,,,1923.033000000054,completion,,,,,,,low,high,,,,,,,true,,,,,false,766194.6,766194.5,764254.745,764258.8,764271.467,766206.723,1,40,,
trial,html.Screen,6_28_0,2024-03-05T20:31:29.765Z,,,,1,0.9445114955578736,-1.0054210059625863,,,true,lh,2851.677000000025,response,-1.0700930503975157,1.2,-1.2,0.923753102263735,1.2,-1.2,low,high,,ISIC_0033807.JPG,,ISIC_0000022.JPG,,33,true,0.3600000000000002,lh,keypress(e),0,false,769058.5,769058.4,766190.048,766194.7,766206.723,769077.309,1,40,29,
sequence,flow.Sequence,6_28,2024-03-05T20:31:29.765Z,,,,,,,,,,,2851.677000000025,completion,,,,,,,low,high,,,,,,,true,,,,,false,769058.7,769058.4,766190.048,766194.6,766206.723,769077.309,1,40,,
trial,html.Screen,6_29_0,2024-03-05T20:31:31.381Z,,,,1,1.3471772753257971,1.055978100098093,,,true,ll,1597.2909999999683,response,-1.250220052739973,1.2,-1.2,-1.2967258992731714,1.2,-1.2,low,low,,ISIC_2077116.JPG,,ISIC_0031368.JPG,,249,true,0.3600000000000002,ll,keypress(f),0,false,770674.6,770674.6,769042.839,769058.7,769077.309,770677.86,1,40,30,
sequence,flow.Sequence,6_29,2024-03-05T20:31:31.381Z,,,,,,,,,,,1597.2909999999683,completion,,,,,,,low,low,,,,,,,true,,,,,false,770674.7,770674.6,769042.839,769058.7,769077.309,770677.86,1,40,,
trial,html.Screen,6_30_0,2024-03-05T20:31:33.317Z,,,,1,1.4727776799485246,-0.8779113138076752,,,true,lh,1932.5400000000373,response,-1.052305774554686,1.2,-1.2,1.3940181224717798,1.2,-1.2,low,high,,ISIC_0033074.JPG,,ISIC_4175400.JPG,,26,true,0.3300000000000002,lh,keypress(e),0,false,772610.4,772610.4,770661.178,770674.8,770677.86,772613.125,1,40,31,
sequence,flow.Sequence,6_30,2024-03-05T20:31:33.317Z,,,,,,,,,,,1932.5400000000373,completion,,,,,,,low,high,,,,,,,true,,,,,false,772610.5,772610.4,770661.178,770674.8,770677.86,772613.125,1,40,,
trial,html.Screen,6_31_0,2024-03-05T20:31:34.757Z,,,,1,-0.9448560599810628,0.9099421612683488,,,true,hl,1437.375,response,0.8591294258188253,1.2,-1.2,-0.870797302150167,1.2,-1.2,high,low,,ISIC_9684318.JPG,,ISIC_0055841.JPG,,29,true,0.3600000000000002,hl,keypress(j),0,false,774050.5,774050.5,772596.459,772610.6,772613.125,774064.562,1,40,32,
sequence,flow.Sequence,6_31,2024-03-05T20:31:34.757Z,,,,,,,,,,,1437.375,completion,,,,,,,high,low,,,,,,,true,,,,,false,774050.6,774050.5,772596.459,772610.6,772613.125,774064.562,1,40,,
trial,html.Screen,6_32_0,2024-03-05T20:31:36.821Z,,,,1,1.053007132776416,1.341217082060068,,,true,ll,2049.9379999999655,response,-1.3565211743635932,1.2,-1.2,-0.9642448420571276,1.2,-1.2,low,low,,ISIC_0024208.JPG,,ISIC_0032823.JPG,,211,true,0.3300000000000002,ll,keypress(f),0,false,776114.5,776114.5,774047.901,774050.7,774064.562,776116.611,1,40,33,
sequence,flow.Sequence,6_32,2024-03-05T20:31:36.821Z,,,,,,,,,,,2049.9379999999655,completion,,,,,,,low,low,,,,,,,true,,,,,false,776114.6,776114.5,774047.901,774050.7,774064.562,776116.611,1,40,,
trial,html.Screen,6_33_0,2024-03-05T20:31:38.133Z,,,,1,1.1890109863264902,-0.8867825318561365,,,true,lh,1309.7889999999898,response,-1.0345332538240786,1.2,-1.2,1.4719115945084815,1.2,-1.2,low,high,,ISIC_0072576.JPG,,ISIC_0192490.JPG,,26,true,0.3300000000000002,lh,keypress(e),0,false,777426.6,777426.4,776099.936,776114.7,776116.611,777434.61,1,40,34,
sequence,flow.Sequence,6_33,2024-03-05T20:31:38.133Z,,,,,,,,,,,1309.7889999999898,completion,,,,,,,low,high,,,,,,,true,,,,,false,777426.6,777426.4,776099.936,776114.6,776116.611,777434.61,1,40,,
trial,html.Screen,6_34_0,2024-03-05T20:31:39.429Z,,,,1,-1.1783311757907324,-1.266840220031473,,,true,hh,1287.6900000000605,response,0.8854665385930431,1.2,-1.2,0.9330258572707198,1.2,-1.2,high,high,,ISIC_8241457.JPG,,ISIC_0026889.JPG,,157,true,0.3600000000000002,hh,keypress(i),0,false,778722.4,778722.3,777417.939,777426.7,777434.61,778735.878,1,40,35,
sequence,flow.Sequence,6_34,2024-03-05T20:31:39.429Z,,,,,,,,,,,1287.6900000000605,completion,,,,,,,high,high,,,,,,,true,,,,,false,778722.5,778722.3,777417.939,777426.7,777434.61,778735.878,1,40,,
trial,html.Screen,6_35_0,2024-03-05T20:31:40.693Z,,,,1,-1.2435042401134029,-1.2939710463315144,,,true,hh,1250.5219999999972,response,1.1510001454240106,1.2,-1.2,1.132540312667795,1.2,-1.2,high,high,,ISIC_0056119.JPG,,ISIC_0009959.JPG,,25,true,0.15000000000000002,hh,keypress(i),0,false,779986.5,779986.4,778719.237,778722.6,778735.878,780003.879,1,40,36,
sequence,flow.Sequence,6_35,2024-03-05T20:31:40.693Z,,,,,,,,,,,1250.5219999999972,completion,,,,,,,high,high,,,,,,,true,,,,,false,779986.7,779986.4,778719.237,778722.5,778735.878,780003.879,1,40,,
trial,html.Screen,6_36_0,2024-03-05T20:31:41.861Z,,,,1,-1.238264833797662,-1.176099940770289,,,true,hh,1150.6210000000428,response,1.053007132776416,1.2,-1.2,1.341217082060068,1.2,-1.2,high,high,,ISIC_0032861.JPG,,ISIC_0024208.JPG,,25,true,0.15000000000000002,hh,keypress(i),0,false,781154.6,781154.5,779970.439,779986.7,780003.879,781171.657,1,40,37,
sequence,flow.Sequence,6_36,2024-03-05T20:31:41.861Z,,,,,,,,,,,1150.6210000000428,completion,,,,,,,high,high,,,,,,,true,,,,,false,781154.8,781154.5,779970.439,779986.7,780003.879,781171.657,1,40,,
trial,html.Screen,6_37_0,2024-03-05T20:31:43.349Z,,,,1,1.204229955025689,1.0874249761617445,,,true,ll,1470.7430000000168,response,-1.3132505134129506,1.2,-1.2,-1.0949928516457437,1.2,-1.2,low,low,,ISIC_0056930.JPG,,ISIC_0066935.JPG,,27,true,0.12,ll,keypress(f),0,false,782642.5,782642.4,781154.999,781154.9,781171.657,782656.522,1,40,38,
sequence,flow.Sequence,6_37,2024-03-05T20:31:43.349Z,,,,,,,,,,,1470.7430000000168,completion,,,,,,,low,low,,,,,,,true,,,,,false,782642.6,782642.4,781154.999,781154.9,781171.657,782656.522,1,40,,
trial,html.Screen,6_38_0,2024-03-05T20:31:44.789Z,,,,1,-0.887838744955182,1.3716210719758812,,,true,hl,1425.878000000026,response,1.3559315773956395,1.2,-1.2,-0.924768326187701,1.2,-1.2,high,low,,ISIC_1488727.JPG,,ISIC_5101111.JPG,,29,true,0.3600000000000002,hl,keypress(j),0,false,784082.5,784082.4,782639.812,782642.6,782656.522,784091.234,1,40,39,
sequence,flow.Sequence,6_38,2024-03-05T20:31:44.789Z,,,,,,,,,,,1425.878000000026,completion,,,,,,,high,low,,,,,,,true,,,,,false,784082.7,784082.4,782639.812,782642.6,782656.522,784091.234,1,40,,
trial,html.Screen,6_39_0,2024-03-05T20:31:46.005Z,,,,1,0.8644465729542988,-0.8679598285079457,,,true,lh,1207.0659999999916,response,-1.0345332538240786,1.2,-1.2,1.4719115945084815,1.2,-1.2,low,high,,ISIC_6718969.JPG,,ISIC_0192490.JPG,,26,true,0.3300000000000002,lh,keypress(e),0,false,785298.4,785298.3,784074.534,784082.8,784091.234,785309.139,1,40,40,
sequence,flow.Sequence,6_39,2024-03-05T20:31:46.005Z,,,,,,,,,,,1207.0659999999916,completion,,,,,,,low,high,,,,,,,true,,,,,false,785298.7,785298.3,784074.534,784082.7,784091.234,785309.139,1,40,,
practice_loop,flow.Loop,6,2024-03-05T20:31:46.005Z,,,,,,,,,,,68974.69900000002,completion,,,,,,,,,,,,,,,true,,,,,false,785298.7,785298.3,716287.726,716297.7,716323.601,785309.139,1,40,,
stair_instructions,html.Screen,7,2024-03-05T20:31:54.421Z,,,,,,,,,,,8404.96100000001,response,,,,,,,,,,,,,,,,,continue,keypress(Space),,,793714.5,793714.1,785292.429,785298.7,785309.139,793717.525,,,,
trial,html.Screen,8_0_0,2024-03-05T20:32:10.410Z,,,,2,-0.0057914759495055,0.018500200317654,,0.04,,,16016.017999999924,timeout,0.849847885203758,1.2,-1.2,-0.973447384095442,1.2,-1.2,high,low,,ISIC_0058723.JPG,,ISIC_9612228.JPG,28,29,false,0.3600000000000002,,,0,true,809703,809702.8,793700.666,793714.5,793717.525,809733.543,1,40,1,
sequence,flow.Sequence,8_0,2024-03-05T20:32:10.410Z,,,,,,,,,,,15985.275000000023,completion,,,,,,,high,low,,,,,,,false,,,,,true,809703.1,809702.8,793700.666,793714.5,793717.525,809733.543,1,40,,
trial,html.Screen,8_1_0,2024-03-05T20:32:17.864Z,,,,2,0.0189295602385628,0.0128812415435153,,0.04,true,hh,7423.6570000000065,response,1.073296525451802,1.2,-1.2,1.3454282740421717,1.2,-1.2,high,high,,ISIC_0010372.JPG,,ISIC_5787312.JPG,28,25,false,0.15000000000000002,hh,keypress(i),0,true,817157.3,817157.2,809716.862,809703.2,809733.543,817174.282,1,40,2,
sequence,flow.Sequence,8_1,2024-03-05T20:32:17.864Z,,,,,,,,,,,7423.6570000000065,completion,,,,,,,high,high,,,,,,,false,,,,,true,817157.4,817157.2,809716.862,809703.1,809733.543,817174.282,1,40,,
trial,html.Screen,8_2_0,2024-03-05T20:32:31.941Z,,,,2,0.0361875505619981,-0.0291457404567876,,0.04,false,ll,14060.31799999997,response,-1.0657476601009717,1.15,-1.15,-1.166572336354465,1.15,-1.15,low,low,,ISIC_0027480.JPG,,ISIC_0010778.JPG,28,25,false,0.11,lh,keypress(e),0,true,831234.8,831234.6,817157.469,817157.4,817174.282,831238.308,1,40,3,
sequence,flow.Sequence,8_2,2024-03-05T20:32:31.941Z,,,,,,,,,,,14060.31799999997,completion,,,,,,,low,low,,,,,,,false,,,,,true,831234.8,831234.6,817157.469,817157.4,817174.282,831238.308,1,40,,
trial,html.Screen,8_3_0,2024-03-05T20:32:41.049Z,,,,2,0.0367218428225813,-0.0026956749740767,,0.04,true,hl,9102.891999999993,response,0.9385447468573198,1.15,-1.15,-1.2289860846064424,1.15,-1.15,high,low,,ISIC_7212271.JPG,,ISIC_0032780.JPG,28,27,false,0.31000000000000016,hl,keypress(j),0,true,840341.3,840341.2,831221.418,831234.9,831238.308,840347.382,1,40,4,
sequence,flow.Sequence,8_3,2024-03-05T20:32:41.049Z,,,,,,,,,,,9102.891999999993,completion,,,,,,,high,low,,,,,,,false,,,,,true,840341.5,840341.2,831221.418,831234.9,831238.308,840347.382,1,40,,
trial,html.Screen,8_4_0,2024-03-05T20:32:56.502Z,,,,2,0.0327772618698018,-0.0056908372048728,,0.04,false,ll,15447.217999999993,response,-1.0441672988386008,1.0999999999999999,-1.15,-1.108916716139547,1.15,-1.15,low,low,,ISIC_7897925.JPG,,ISIC_0063243.JPG,28,25,false,0.11,lh,keypress(e),0,true,855794.7,855794.6,840330.577,840341.5,840347.382,855813.381,1,40,5,
sequence,flow.Sequence,8_4,2024-03-05T20:32:56.502Z,,,,,,,,,,,15447.217999999993,completion,,,,,,,low,low,,,,,,,false,,,,,true,855794.8,855794.6,840330.577,840341.5,840347.382,855813.381,1,40,,
trial,html.Screen,8_5_0,2024-03-05T20:33:00.038Z,,,,2,-0.0350697500805515,-0.0166617848231997,,0.04,false,lh,3517.018999999971,response,-0.887838744955182,1.0999999999999999,-1.0865766917225217,1.3716210719758812,1.15,-1.15,low,high,,ISIC_0024423.JPG,,ISIC_1488727.JPG,28,27,false,0.2500000000000001,ll,keypress(f),0,true,859330.6,859330.4,855779.176,855794.9,855813.381,859333.023,1,40,6,
sequence,flow.Sequence,8_5,2024-03-05T20:33:00.038Z,,,,,,,,,,,3517.018999999971,completion,,,,,,,low,high,,,,,,,false,,,,,true,859330.7,859330.4,855779.176,855794.9,855813.381,859333.023,1,40,,
trial,html.Screen,8_6_0,2024-03-05T20:33:05.606Z,,,,2,0.0365981355399771,0.0162670920008846,,0.04,false,ll,5565.376999999979,response,-1.02958055269592,1.0999999999999999,-1.0865766917225217,-1.159278377691306,1.15,-1.15,low,low,,ISIC_0982855.JPG,,ISIC_0027190.JPG,28,25,false,0.1,hh,keypress(i),0,true,864898.5,864898.4,859316.306,859330.8,859333.023,864905.299,1,40,7,
sequence,flow.Sequence,8_6,2024-03-05T20:33:05.606Z,,,,,,,,,,,5565.376999999979,completion,,,,,,,low,low,,,,,,,false,,,,,true,864898.7,864898.4,859316.306,859330.8,859333.023,864905.299,1,40,,
trial,html.Screen,8_7_0,2024-03-05T20:33:10.278Z,,,,2,-0.0350697500805515,-0.0166617848231997,,0.04,false,hh,4665.400999999954,response,1.011737552725394,1.0999999999999999,-1.1365766917225217,1.0893360711742854,1.15,-1.15,high,high,,ISIC_0024423.JPG,,ISIC_2998367.JPG,28,28,false,0.13,ll,keypress(f),0,true,869570.9,869570.7,864888.514,864898.8,864905.299,869576.614,1,40,8,
sequence,flow.Sequence,8_7,2024-03-05T20:33:10.278Z,,,,,,,,,,,4665.400999999954,completion,,,,,,,high,high,,,,,,,false,,,,,true,869571.1,869570.7,864888.514,864898.8,864905.299,869576.614,1,40,,
trial,html.Screen,8_8_0,2024-03-05T20:33:14.022Z,,,,2,-0.0377791839943904,0.0227626648172468,,0.04,false,hh,3737.886000000057,response,1.0901635293704552,1.15,-1.1365766917225217,1.0348352814358883,1.15,-1.15,high,high,,ISIC_7167479.JPG,,ISIC_7583134.JPG,28,26,false,0.14,ll,keypress(f),0,true,873314.6,873314.5,869559.836,869571.2,869576.614,873330.343,1,40,9,
sequence,flow.Sequence,8_8,2024-03-05T20:33:14.022Z,,,,,,,,,,,3737.886000000057,completion,,,,,,,high,high,,,,,,,false,,,,,true,873314.8,873314.5,869559.836,869571.2,869576.614,873330.343,1,40,,
trial,html.Screen,8_9_0,2024-03-05T20:33:26.006Z,,,,2,-0.0399381815506136,-0.0177751789152893,,0.04,false,ll,11968.157000000007,response,-1.0474638406367112,1.15,-1.1365766917225217,-1.2142897533079478,1.15,-1.15,low,low,,ISIC_3981425.JPG,,ISIC_0025277.JPG,28,26,false,0.11,lh,keypress(e),0,true,885298.6,885298.5,873313.608,873314.9,873330.343,885308.987,1,40,10,
sequence,flow.Sequence,8_9,2024-03-05T20:33:26.006Z,,,,,,,,,,,11968.157000000007,completion,,,,,,,low,low,,,,,,,false,,,,,true,885298.8,885298.5,873313.608,873314.9,873330.343,885308.987,1,40,,
trial,html.Screen,8_10_0,2024-03-05T20:33:30.934Z,,,,2,0.0086413421586899,0.0360184993500958,,0.04,true,hl,4917.413000000059,response,0.8494721812820843,1.15,-1.1365766917225217,-1.3435429139974266,1.15,-1.15,high,low,,ISIC_0010767.JPG,,ISIC_0033585.JPG,28,27,false,0.31000000000000016,hl,keypress(j),0,true,890226.5,890226.4,885292.082,885298.8,885308.987,890230.534,1,40,11,
sequence,flow.Sequence,8_10,2024-03-05T20:33:30.934Z,,,,,,,,,,,4917.413000000059,completion,,,,,,,high,low,,,,,,,false,,,,,true,890226.7,890226.4,885292.082,885298.8,885308.987,890230.534,1,40,,
trial,html.Screen,8_11_0,2024-03-05T20:33:39.478Z,,,,2,-0.0023664502831079,-0.0252784582169994,,0.04,false,ll,8539.966000000015,response,-1.1894733304494307,1.15,-1.1365766917225217,-1.1169761866204877,1.15,-1.15,low,low,,ISIC_4156010.JPG,,ISIC_0033813.JPG,28,26,false,0.11,lh,keypress(e),0,true,898770.6,898770.5,890213.793,890226.7,890230.534,898772.43,1,40,12,
sequence,flow.Sequence,8_11,2024-03-05T20:33:39.478Z,,,,,,,,,,,8539.966000000015,completion,,,,,,,low,low,,,,,,,false,,,,,true,898770.7,898770.5,890213.793,890226.7,890230.534,898772.43,1,40,,
trial,html.Screen,8_12_0,2024-03-05T20:33:44.598Z,,,,2,0.0189295602385628,0.0128812415435153,,0.04,false,hl,5117.969999999972,response,1.0003671514840182,1.15,-1.1665081222234286,-0.8992716557663581,1.15,-1.15,high,low,,ISIC_0010372.JPG,,ISIC_0061749.JPG,28,27,false,0.31000000000000016,ll,keypress(f),0,true,903890.4,903890.4,898755.547,898770.7,898772.43,903894.168,1,40,13,
sequence,flow.Sequence,8_12,2024-03-05T20:33:44.598Z,,,,,,,,,,,5117.969999999972,completion,,,,,,,high,low,,,,,,,false,,,,,true,903890.6,903890.4,898755.547,898770.7,898772.43,903894.168,1,40,,
trial,html.Screen,8_13_0,2024-03-05T20:33:54.614Z,,,,2,0.0365981355399771,0.0162670920008846,,0.04,true,lh,10012.232000000076,response,-0.9448560599810628,1.15,-1.1665081222234286,0.9099421612683488,1.15,-1.15,low,high,,ISIC_0982855.JPG,,ISIC_9684318.JPG,28,25,false,0.29000000000000015,lh,keypress(e),0,true,913906.6,913906.4,903877.427,903890.6,903894.168,913920.88,1,40,14,
sequence,flow.Sequence,8_13,2024-03-05T20:33:54.614Z,,,,,,,,,,,10012.232000000076,completion,,,,,,,low,high,,,,,,,false,,,,,true,913906.7,913906.4,903877.427,903890.6,903894.168,913920.88,1,40,,
trial,html.Screen,8_14_0,2024-03-05T20:34:05.798Z,,,,2,-0.012020985739544,0.0126097407389903,,0.04,false,ll,11169.619999999995,response,-1.0698162624196283,1.15,-1.1665081222234286,-1.0648460966097275,1.15,-1.15,low,low,,ISIC_0069379.JPG,,ISIC_0030552.JPG,28,27,false,0.12,lh,keypress(e),0,true,925090.6,925090.5,913904.009,913906.7,913920.88,925098.678,1,40,15,
sequence,flow.Sequence,8_14,2024-03-05T20:34:05.798Z,,,,,,,,,,,11169.619999999995,completion,,,,,,,low,low,,,,,,,false,,,,,true,925090.7,925090.5,913904.009,913906.7,913920.88,925098.678,1,40,,
trial,html.Screen,8_15_0,2024-03-05T20:34:13.126Z,,,,2,-0.0118555311043871,-0.0087774532070196,,0.04,false,ll,7319.822000000044,response,-1.1671212908494544,1.15,-1.1165081222234285,-1.1286681796701683,1.15,-1.15,low,low,,ISIC_6488658.JPG,,ISIC_0065022.JPG,28,26,false,0.11,hl,keypress(j),0,true,932418.5,932418.5,925081.801,925090.8,925098.678,932422.689,1,40,16,
sequence,flow.Sequence,8_15,2024-03-05T20:34:13.126Z,,,,,,,,,,,7319.822000000044,completion,,,,,,,low,low,,,,,,,false,,,,,true,932418.6,932418.5,925081.801,925090.8,925098.678,932422.689,1,40,,
trial,html.Screen,8_16_0,2024-03-05T20:34:26.022Z,,,,2,0.0367218428225813,-0.0026956749740767,,0.04,false,hl,12891.810999999987,response,0.8479396253253069,1.15,-1.1665081222234286,-1.011054319516718,1.15,-1.15,high,low,,ISIC_7212271.JPG,,ISIC_0063521.JPG,28,27,false,0.31000000000000016,hh,keypress(i),0,true,945314.6,945314.5,932405.834,932418.7,932422.689,945318.861,1,40,17,
sequence,flow.Sequence,8_16,2024-03-05T20:34:26.022Z,,,,,,,,,,,12891.810999999987,completion,,,,,,,high,low,,,,,,,false,,,,,true,945314.7,945314.5,932405.834,932418.7,932422.689,945318.861,1,40,,
trial,html.Screen,8_17_0,2024-03-05T20:34:36.726Z,,,,2,0.0321039635696159,0.020496766286318,,0.04,false,hh,10699.638999999966,response,1.1727618800748076,1.15,-1.1665081222234286,1.0636787813411093,1.15,-1.15,high,high,,ISIC_0058063.JPG,,ISIC_9690371.JPG,28,26,false,0.14,ll,keypress(f),0,true,956018.6,956018.5,945301.993,945314.8,945318.861,956029.554,1,40,18,
sequence,flow.Sequence,8_17,2024-03-05T20:34:36.726Z,,,,,,,,,,,10699.638999999966,completion,,,,,,,high,high,,,,,,,false,,,,,true,956018.8,956018.5,945301.993,945314.7,945318.861,956029.554,1,40,,
trial,html.Screen,8_18_0,2024-03-05T20:34:42.326Z,,,,2,0.0086413421586899,0.0360184993500958,,0.04,false,hl,5589.14599999995,response,1.0003671514840182,1.15,-1.1665081222234286,-0.8992716557663581,1.15,-1.15,high,low,,ISIC_0010767.JPG,,ISIC_0061749.JPG,28,27,false,0.31000000000000016,ll,keypress(f),0,true,961618.8,961618.7,956012.723,956019,956029.554,961635.156,1,40,19,
sequence,flow.Sequence,8_18,2024-03-05T20:34:42.326Z,,,,,,,,,,,5589.14599999995,completion,,,,,,,high,low,,,,,,,false,,,,,true,961619,961618.7,956012.723,956018.8,956029.554,961635.156,1,40,,
trial,html.Screen,8_19_0,2024-03-05T20:34:53.990Z,,,,2,-0.0057914759495055,0.018500200317654,,0.04,false,ll,11647.344000000041,response,-1.2315945866020412,1.15,-1.1665081222234286,-1.13226141421557,1.15,-1.15,low,low,,ISIC_0058723.JPG,,ISIC_0033595.JPG,28,27,false,0.12,lh,keypress(e),0,true,973282.6000000001,973282.5,961618.463,961619,961635.156,973296.813,1,40,20,
sequence,flow.Sequence,8_19,2024-03-05T20:34:53.990Z,,,,,,,,,,,11647.344000000041,completion,,,,,,,low,low,,,,,,,false,,,,,true,973282.7,973282.5,961618.463,961619,961635.156,973296.813,1,40,,
trial,html.Screen,8_20_0,2024-03-05T20:35:07.798Z,,,,2,0.0189295602385628,0.0128812415435153,,0.04,false,ll,13793.586999999941,response,-1.1227373144244253,1.15,-1.1665081222234286,-1.1886610799377713,1.15,-1.15,low,low,,ISIC_0010372.JPG,,ISIC_0059506.JPG,28,27,false,0.12,hl,keypress(j),0,true,987090.5,987090.3999999999,973279.899,973282.7,973296.813,987093.924,1,40,21,
sequence,flow.Sequence,8_20,2024-03-05T20:35:07.798Z,,,,,,,,,,,13793.586999999941,completion,,,,,,,low,low,,,,,,,false,,,,,true,987090.7,987090.3999999999,973279.899,973282.7,973296.813,987093.924,1,40,,
trial,html.Screen,8_21_0,2024-03-05T20:35:11.270Z,,,,2,0.0063515208248796,0.0194177605767913,,0.04,false,hh,3468.475999999908,response,1.0901635293704552,1.15,-1.1665081222234286,1.0348352814358883,1.15,-1.15,high,high,,ISIC_5281908.JPG,,ISIC_7583134.JPG,28,26,false,0.14,ll,keypress(f),0,true,990562.5,990562.3999999999,987076.986,987090.7,987093.924,990581.922,1,40,22,
sequence,flow.Sequence,8_21,2024-03-05T20:35:11.270Z,,,,,,,,,,,3468.475999999908,completion,,,,,,,high,high,,,,,,,false,,,,,true,990562.7,990562.3999999999,987076.986,987090.7,987093.924,990581.922,1,40,,
trial,html.Screen,8_22_0,2024-03-05T20:35:15.430Z,,,,2,0.0063515208248796,0.0194177605767913,,0.04,false,lh,4140.477999999886,response,-1.155796217969438,1.15,-1.1665081222234286,1.1646564121743912,1.15,-1.15,low,high,,ISIC_5281908.JPG,,ISIC_2685523.JPG,28,25,false,0.29000000000000015,ll,keypress(f),0,true,994722.3999999999,994722.3999999999,990547.308,990562.7,990581.922,994734.886,1,40,23,
sequence,flow.Sequence,8_22,2024-03-05T20:35:15.430Z,,,,,,,,,,,4140.477999999886,completion,,,,,,,low,high,,,,,,,false,,,,,true,994722.5,994722.3999999999,990547.308,990562.7,990581.922,994734.886,1,40,,
trial,html.Screen,8_23_0,2024-03-05T20:35:26.822Z,,,,2,-0.0399381815506136,-0.0177751789152893,,0.04,false,hh,11379.613999999943,response,1.1569583426015195,1.15,-1.1665081222234286,1.02258614327008,1.15,-1.15,high,high,,ISIC_3981425.JPG,,ISIC_5705973.JPG,28,26,false,0.14,hl,keypress(j),0,true,1006114.6000000001,1006114.5,994718.098,994722.6000000001,994734.886,1006129.598,1,40,24,
sequence,flow.Sequence,8_23,2024-03-05T20:35:26.822Z,,,,,,,,,,,11379.613999999943,completion,,,,,,,high,high,,,,,,,false,,,,,true,1006114.7,1006114.5,994718.098,994722.5,994734.886,1006129.598,1,40,,
trial,html.Screen,8_24_0,2024-03-05T20:35:30.022Z,,,,2,0.0063515208248796,0.0194177605767913,,0.04,false,hh,3184.6019999999553,response,1.1168199061753437,1.15,-1.1665081222234286,1.212287319329914,1.15,-1.15,high,high,,ISIC_5281908.JPG,,ISIC_5919355.JPG,28,26,false,0.14,ll,keypress(f),0,true,1009314.3999999999,1009314.2,1006112.693,1006114.8,1006129.598,1009316.075,1,40,25,
sequence,flow.Sequence,8_24,2024-03-05T20:35:30.022Z,,,,,,,,,,,3184.6019999999553,completion,,,,,,,high,high,,,,,,,false,,,,,true,1009314.6000000001,1009314.2,1006112.693,1006114.8,1006129.598,1009316.075,1,40,,
trial,html.Screen,8_25_0,2024-03-05T20:35:37.841Z,,,,2,-0.0399381815506136,-0.0177751789152893,,0.04,true,hl,8270.425000000047,response,1.00615481805876,1.15,-1.1665081222234286,-0.8428903771195875,1.15,-1.15,high,low,,ISIC_3981425.JPG,,ISIC_0069970.JPG,28,27,false,0.31000000000000016,hl,keypress(j),0,true,1017586.6000000001,1017586.5,1009299.381,1009314.7,1009316.075,1017590.985,1,40,26,
sequence,flow.Sequence,8_25,2024-03-05T20:35:37.841Z,,,,,,,,,,,8270.425000000047,completion,,,,,,,high,low,,,,,,,false,,,,,true,1017586.8,1017586.5,1009299.381,1009314.6000000001,1009316.075,1017590.985,1,40,,
trial,html.Screen,8_26_0,2024-03-05T20:35:53.828Z,,,,2,-0.0377791839943904,0.0227626648172468,,0.04,,,16015.999000000069,timeout,1.1802887330422154,1.15,-1.1665081222234286,1.0224375154810723,1.15,-1.0999999999999999,high,high,,ISIC_7167479.JPG,,ISIC_9225640.JPG,28,26,false,0.14,,,0,true,1033573.8999999999,1033573.8,1017574.178,1017586.8999999999,1017590.985,1033606.984,1,40,27,
sequence,flow.Sequence,8_26,2024-03-05T20:35:53.828Z,,,,,,,,,,,15982.81500000006,completion,,,,,,,high,high,,,,,,,false,,,,,true,1033574.1000000001,1033573.8,1017574.178,1017586.8,1017590.985,1033606.984,1,40,,
trial,html.Screen,8_27_0,2024-03-05T20:36:02.785Z,,,,2,0.0051046740562181,-0.0178832721027728,,0.04,false,lh,8923.315999999992,response,-1.1592423187534993,1.15,-1.1665081222234286,1.067128884093211,1.15,-1.0999999999999999,low,high,,ISIC_9545819.JPG,,ISIC_6854940.JPG,28,25,false,0.29000000000000015,hl,keypress(j),0,true,1042530.3999999999,1042530.3,1033590.305,1033574.1000000001,1033606.984,1042532.552,1,40,28,
sequence,flow.Sequence,8_27,2024-03-05T20:36:02.785Z,,,,,,,,,,,8923.315999999992,completion,,,,,,,low,high,,,,,,,false,,,,,true,1042530.6000000001,1042530.3,1033590.305,1033574.1000000001,1033606.984,1042532.552,1,40,,
trial,html.Screen,8_28_0,2024-03-05T20:36:09.937Z,,,,2,0.0365981355399771,0.0162670920008846,,0.04,false,lh,7149.748000000021,response,-1.1547137855907486,1.15,-1.1665081222234286,1.0185275168641534,1.15,-1.0999999999999999,low,high,,ISIC_0982855.JPG,,ISIC_7604870.JPG,28,25,false,0.29000000000000015,hl,keypress(j),0,true,1049682.5,1049682.3,1042515.726,1042530.7,1042532.552,1049689.707,1,40,29,
sequence,flow.Sequence,8_28,2024-03-05T20:36:09.937Z,,,,,,,,,,,7149.748000000021,completion,,,,,,,low,high,,,,,,,false,,,,,true,1049682.5,1049682.3,1042515.726,1042530.7,1042532.552,1049689.707,1,40,,
trial,html.Screen,8_29_0,2024-03-05T20:36:13.601Z,,,,2,-0.0050679133050021,-0.0174815595031679,,0.04,true,lh,3656.59300000011,response,-1.0700930503975157,1.15,-1.1665081222234286,0.923753102263735,1.15,-1.0999999999999999,low,high,,ISIC_9848743.JPG,,ISIC_0000022.JPG,28,25,false,0.29000000000000015,lh,keypress(e),0,true,1053346.4,1053346.3,1049672.912,1049682.5,1049689.707,1053360.036,1,40,30,
sequence,flow.Sequence,8_29,2024-03-05T20:36:13.601Z,,,,,,,,,,,3656.59300000011,completion,,,,,,,low,high,,,,,,,false,,,,,true,1053346.5,1053346.3,1049672.912,1049682.5,1049689.707,1053360.036,1,40,,
trial,html.Screen,8_30_0,2024-03-05T20:36:15.857Z,,,,2,-0.0118555311043871,-0.0087774532070196,,0.04,false,lh,2242.2639999999665,response,-1.1547137855907486,1.15,-1.1665081222234286,1.0185275168641534,1.15,-1.0999999999999999,low,high,,ISIC_6488658.JPG,,ISIC_7604870.JPG,28,25,false,0.29000000000000015,hl,keypress(j),0,true,1055602.4,1055602.3,1053343.293,1053346.6,1053360.036,1055612.279,1,40,31,
sequence,flow.Sequence,8_30,2024-03-05T20:36:15.857Z,,,,,,,,,,,2242.2639999999665,completion,,,,,,,low,high,,,,,,,false,,,,,true,1055602.5,1055602.3,1053343.293,1053346.6,1053360.036,1055612.279,1,40,,
trial,html.Screen,8_31_0,2024-03-05T20:36:18.657Z,,,,2,-0.00126575685933,-0.0325046559638838,,0.04,false,hl,2790.0209999999497,response,1.3559315773956395,1.15,-1.1665081222234286,-0.924768326187701,1.15,-1.0999999999999999,high,low,,ISIC_5682259.JPG,,ISIC_5101111.JPG,28,26,false,0.29000000000000015,hh,keypress(i),0,true,1058402.3,1058402.3,1055595.577,1055602.6,1055612.279,1058415.097,1,40,32,
sequence,flow.Sequence,8_31,2024-03-05T20:36:18.657Z,,,,,,,,,,,2790.0209999999497,completion,,,,,,,high,low,,,,,,,false,,,,,true,1058402.4,1058402.3,1055595.577,1055602.6,1055612.279,1058415.097,1,40,,
trial,html.Screen,8_32_0,2024-03-05T20:36:22.337Z,,,,2,-0.0060934073440827,-0.0279108145883031,,0.04,false,lh,3667.2029999999795,response,-1.0822170028935367,1.0898423398296873,-1.1665081222234286,1.1654796154432183,1.15,-1.15,low,high,,ISIC_0032604.JPG,,ISIC_7288818.JPG,28,25,false,0.29000000000000015,hl,keypress(j),0,true,1062082.4,1062082.3,1058398.372,1058402.5,1058415.097,1062085.41,1,40,33,
sequence,flow.Sequence,8_32,2024-03-05T20:36:22.337Z,,,,,,,,,,,3667.2029999999795,completion,,,,,,,low,high,,,,,,,false,,,,,true,1062082.5,1062082.3,1058398.372,1058402.4,1058415.097,1062085.41,1,40,,
trial,html.Screen,8_33_0,2024-03-05T20:36:26.241Z,,,,2,0.010035581303589,-0.0100711721396864,,0.04,false,hl,3900.9899999999907,response,0.8534691366511764,1.0898423398296873,-1.1665081222234286,-1.276663727068437,1.15,-1.15,high,low,,ISIC_0030592.JPG,,ISIC_0056788.JPG,28,26,false,0.29000000000000015,lh,keypress(e),0,true,1065986.5,1065986.4,1062068.67,1062082.6,1062085.41,1065989.297,1,40,34,
sequence,flow.Sequence,8_33,2024-03-05T20:36:26.241Z,,,,,,,,,,,3900.9899999999907,completion,,,,,,,high,low,,,,,,,false,,,,,true,1065986.6,1065986.4,1062068.67,1062082.6,1062085.41,1065989.297,1,40,,
trial,html.Screen,8_34_0,2024-03-05T20:36:29.105Z,,,,2,0.0361875505619981,-0.0291457404567876,,0.04,false,lh,2860.902999999933,response,-1.1547137855907486,1.1398423398296873,-1.1665081222234286,1.0185275168641534,1.15,-1.15,low,high,,ISIC_0027480.JPG,,ISIC_7604870.JPG,28,25,false,0.29000000000000015,hh,keypress(i),0,true,1068850.3,1068850.2,1065972.589,1065986.6,1065989.297,1068858.833,1,40,35,
sequence,flow.Sequence,8_34,2024-03-05T20:36:29.105Z,,,,,,,,,,,2860.902999999933,completion,,,,,,,low,high,,,,,,,false,,,,,true,1068850.4,1068850.2,1065972.589,1065986.6,1065989.297,1068858.833,1,40,,
trial,html.Screen,8_35_0,2024-03-05T20:36:32.737Z,,,,2,0.0051046740562181,-0.0178832721027728,,0.04,true,hl,3623.366999999853,response,0.8591294258188253,1.1398423398296873,-1.1665081222234286,-0.870797302150167,1.15,-1.15,high,low,,ISIC_9545819.JPG,,ISIC_0055841.JPG,28,27,false,0.31000000000000016,hl,keypress(j),0,true,1072482.3,1072482.2,1068842.114,1068850.4,1068858.833,1072495.816,1,40,36,
sequence,flow.Sequence,8_35,2024-03-05T20:36:32.737Z,,,,,,,,,,,3623.366999999853,completion,,,,,,,high,low,,,,,,,false,,,,,true,1072482.4,1072482.2,1068842.114,1068850.4,1068858.833,1072495.816,1,40,,
trial,html.Screen,8_36_0,2024-03-05T20:36:44.755Z,,,,2,-0.0050679133050021,-0.0174815595031679,,0.04,false,hh,13170.583999999799,response,1.1990772227054871,1.1398423398296873,-1.1665081222234286,1.1224329926844498,1.15,-1.15,high,high,,ISIC_9848743.JPG,,ISIC_3425388.JPG,28,29,false,0.14,lh,keypress(e),0,true,1085666.6,1085666.4,1072479.085,1072482.4,1072495.816,1085675.641,1,40,37,
sequence,flow.Sequence,8_36,2024-03-05T20:36:44.755Z,,,,,,,,,,,13170.583999999799,completion,,,,,,,high,high,,,,,,,false,,,,,true,1085666.8,1085666.4,1072479.085,1072482.4,1072495.816,1085675.641,1,40,,
trial,html.Screen,8_37_0,2024-03-05T20:36:47.283Z,,,,2,-0.0377791839943904,0.0227626648172468,,0.04,false,ll,2518.7589999998454,response,-1.2359980588867217,1.1898423398296873,-1.1665081222234286,-1.0529964469124329,1.0999999999999999,-1.15,low,low,,ISIC_7167479.JPG,,ISIC_0032840.JPG,28,27,false,0.12,hl,keypress(j),0,true,1088194.5,1088194.4,1085658.718,1085666.8,1085675.641,1088211.516,1,40,38,
sequence,flow.Sequence,8_37,2024-03-05T20:36:47.283Z,,,,,,,,,,,2518.7589999998454,completion,,,,,,,low,low,,,,,,,false,,,,,true,1088194.6,1088194.4,1085658.718,1085666.8,1085675.641,1088211.516,1,40,,
trial,html.Screen,8_38_0,2024-03-05T20:36:49.587Z,,,,2,0.010035581303589,-0.0100711721396864,,0.04,false,lh,2286.9839999999385,response,-0.9046170303418553,1.1898423398296873,-1.1665081222234286,1.0063426986460375,1.0999999999999999,-0.9118968745312999,low,high,,ISIC_0030592.JPG,,ISIC_0055759.JPG,28,29,false,0.30000000000000016,hl,keypress(j),0,true,1090498.6,1090498.5,1088194.81,1088194.6,1088211.516,1090513.84,1,40,39,
sequence,flow.Sequence,8_38,2024-03-05T20:36:49.587Z,,,,,,,,,,,2286.9839999999385,completion,,,,,,,low,high,,,,,,,false,,,,,true,1090498.7,1090498.5,1088194.81,1088194.6,1088211.516,1090513.84,1,40,,
trial,html.Screen,8_39_0,2024-03-05T20:36:52.292Z,,,,2,-0.0158987717472563,-0.0292472192292015,,0.04,false,hh,2688.9599999999627,response,1.2254777618346506,1.1898423398296873,-1.1665081222234286,1.0356416330964822,1.15,-0.9118968745312999,high,high,,ISIC_1366765.JPG,,ISIC_1054090.JPG,28,26,false,0.14,ll,keypress(f),0,true,1093203,1093202.8,1090497.132,1090498.7,1090513.84,1093216.507,1,40,40,
sequence,flow.Sequence,8_39,2024-03-05T20:36:52.292Z,,,,,,,,,,,2688.9599999999627,completion,,,,,,,high,high,,,,,,,false,,,,,true,1093203.2,1093202.8,1090497.132,1090498.7,1090513.84,1093216.507,1,40,,
stair_loop,flow.Loop,8,2024-03-05T20:36:52.292Z,,,,,,,,,,,299485.275,completion,,,,,,,,,,,,,,,false,,,,,true,1093203.3,1093202.8,793700.666,793714.5,793717.525,1093216.507,1,40,,
exp_instructions,html.Screen,9,2024-03-05T20:36:55.251Z,,,,,,,,,,,2945.59300000011,response,,,,,,,,,,,,,,,,,continue,keypress(Space),,,1096162.5,1096162.1,1093199.791,1093203.4,1093216.507,1096169.463,,,,
trial,html.Screen,10_0_0,2024-03-05T20:37:04.774Z,,,,1,-0.0050679133050021,-0.0174815595031679,,0.04,false,lh,9516.037000000011,response,-1.1547137855907486,1.1484369359318751,-1.1665081222234288,1.0185275168641534,1.145,-1.11118968745313,low,high,,ISIC_9848743.JPG,9,ISIC_7604870.JPG,28,25,false,0.29000000000000015,hl,keypress(j),0,false,1105685.6,1105685.5,1096152.7,1096162.7,1096169.463,1105695.608,5,600,1,
break,html.Screen,10_0_1,2024-03-05T20:37:04.775Z,,,,,,,,,,,NaN,,,,,,,,low,high,,,,,,,false,,,,,false,1105686.4,1105686.3,,1105685.8,,1105695.608,5,600,,
break_continue,html.Screen,10_0_2,2024-03-05T20:37:04.775Z,,,,,,,,,,,NaN,,,,,,,,low,high,,,,,,,false,,,,,false,1105686.9,1105686.7,,1105686.5,,1105695.608,5,600,,
sequence,flow.Sequence,10_0,2024-03-05T20:37:04.776Z,,,,,,,,,,,9517.236999999965,completion,,,,,,,low,high,,,,,,,false,,,,,false,1105687.1,1105686.7,1096152.7,1096162.7,1096169.463,1105695.608,5,600,,
trial,html.Screen,10_1_0,2024-03-05T20:37:11.507Z,,,,1,-0.0023664502831079,-0.0252784582169994,,0.04,false,ll,6722.692000000039,response,-1.089914260719518,1.1484369359318751,-1.1665081222234288,-1.1695563571046357,1.145,-1.11118968745313,low,low,,ISIC_4156010.JPG,10,ISIC_0030695.JPG,28,29,false,0.12,hl,keypress(j),0,false,1112418.5,1112418.3,1105678.767,1105687.1,1105695.608,1112436.913,5,600,2,
break,html.Screen,10_1_1,2024-03-05T20:37:11.507Z,,,,,,,,,,,NaN,,,,,,,,low,low,,,,,,,false,,,,,false,1112418.8,1112418.7,,1112418.6,,1112436.913,5,600,,
break_continue,html.Screen,10_1_2,2024-03-05T20:37:11.508Z,,,,,,,,,,,NaN,,,,,,,,low,low,,,,,,,false,,,,,false,1112419.2,1112419,,1112419,,1112436.913,5,600,,
sequence,flow.Sequence,10_1,2024-03-05T20:37:11.508Z,,,,,,,,,,,6723.391999999993,completion,,,,,,,low,low,,,,,,,false,,,,,false,1112419.3,1112419,1105678.767,1105687.1,1105695.608,1112436.913,5,600,,
trial,html.Screen,10_2_0,2024-03-05T20:37:18.307Z,,,,1,-0.0060934073440827,-0.0279108145883031,,0.04,true,lh,6781.287000000011,response,-1.055319394932912,1.1484369359318751,-1.1665081222234288,1.409116680310466,1.145,-1.11118968745313,low,high,,ISIC_0032604.JPG,9,ISIC_6398669.JPG,28,25,false,0.29000000000000015,lh,keypress(e),0,false,1119218.3,1119218.2,1112402.21,1112419.4,1112436.913,1119225.796,5,600,3,
break,html.Screen,10_2_1,2024-03-05T20:37:18.307Z,,,,,,,,,,,NaN,,,,,,,,low,high,,,,,,,false,,,,,false,1119218.7,1119218.5,,1119218.3,,1119225.796,5,600,,
break_continue,html.Screen,10_2_2,2024-03-05T20:37:18.307Z,,,,,,,,,,,NaN,,,,,,,,low,high,,,,,,,false,,,,,false,1119218.8,1119218.7,,1119218.7,,1119225.796,5,600,,
sequence,flow.Sequence,10_2,2024-03-05T20:37:18.307Z,,,,,,,,,,,6781.787000000011,completion,,,,,,,low,high,,,,,,,false,,,,,false,1119218.9,1119218.7,1112402.21,1112419.4,1112436.913,1119225.796,5,600,,
trial,html.Screen,10_3_0,2024-03-05T20:37:21.155Z,,,,1,-0.012810673904807,0.00400964452501,,0.04,false,lh,2840.6039999998175,response,-0.9448560599810628,1.1484369359318751,-1.1665081222234288,0.9099421612683488,1.145,-1.11118968745313,low,high,,ISIC_0064656.JPG,10,ISIC_9684318.JPG,28,25,false,0.29000000000000015,ll,keypress(f),0,false,1122066.4,1122066.4,1119209.054,1119218.9,1119225.796,1122078.67,5,600,4,
break,html.Screen,10_3_1,2024-03-05T20:37:21.155Z,,,,,,,,,,,NaN,,,,,,,,low,high,,,,,,,false,,,,,false,1122066.8,1122066.7,,1122066.5,,1122078.67,5,600,,
break_continue,html.Screen,10_3_2,2024-03-05T20:37:21.156Z,,,,,,,,,,,NaN,,,,,,,,low,high,,,,,,,false,,,,,false,1122067,1122066.9,,1122066.9,,1122078.67,5,600,,
sequence,flow.Sequence,10_3,2024-03-05T20:37:21.156Z,,,,,,,,,,,2841.1039999998175,completion,,,,,,,low,high,,,,,,,false,,,,,false,1122067,1122066.9,1119209.054,1119218.9,1119225.796,1122078.67,5,600,,
trial,html.Screen,10_4_0,2024-03-05T20:37:29.027Z,,,,1,-0.0399381815506136,-0.0177751789152893,,0.04,false,hh,7859.630000000121,response,1.1604734171556077,1.1484369359318751,-1.1665081222234288,1.0789312625280616,1.145,-1.11118968745313,high,high,,ISIC_3981425.JPG,9,ISIC_3950753.JPG,28,26,false,0.14,lh,keypress(e),0,false,1129938.4,1129938.3,1122061.904,1122067,1122078.67,1129953.172,5,600,5,
break,html.Screen,10_4_1,2024-03-05T20:37:29.027Z,,,,,,,,,,,NaN,,,,,,,,high,high,,,,,,,false,,,,,false,1129938.7,1129938.7,,1129938.5,,1129953.172,5,600,,
break_continue,html.Screen,10_4_2,2024-03-05T20:37:29.027Z,,,,,,,,,,,NaN,,,,,,,,high,high,,,,,,,false,,,,,false,1129938.9,1129938.8,,1129938.8,,1129953.172,5,600,,
sequence,flow.Sequence,10_4,2024-03-05T20:37:29.028Z,,,,,,,,,,,7860.130000000121,completion,,,,,,,high,high,,,,,,,false,,,,,false,1129939,1129938.8,1122061.904,1122067,1122078.67,1129953.172,5,600,,
trial,html.Screen,10_5_0,2024-03-05T20:37:35.315Z,,,,1,-0.012020985739544,0.0126097407389903,,0.04,false,lh,6272.928000000073,response,-1.0822170028935367,1.1484369359318751,-1.1665081222234288,1.1654796154432183,1.145,-1.11118968745313,low,high,,ISIC_0069379.JPG,10,ISIC_7288818.JPG,28,25,false,0.29000000000000015,hh,keypress(i),0,false,1136226.3,1136226.1,1129936.491,1129939,1129953.172,1136242.774,5,600,6,
break,html.Screen,10_5_1,2024-03-05T20:37:35.315Z,,,,,,,,,,,NaN,,,,,,,,low,high,,,,,,,false,,,,,false,1136226.7,1136226.6,,1136226.4,,1136242.774,5,600,,
break_continue,html.Screen,10_5_2,2024-03-05T20:37:35.315Z,,,,,,,,,,,NaN,,,,,,,,low,high,,,,,,,false,,,,,false,1136227,1136226.9,,1136226.7,,1136242.774,5,600,,
sequence,flow.Sequence,10_5,2024-03-05T20:37:35.316Z,,,,,,,,,,,6273.727999999886,completion,,,,,,,low,high,,,,,,,false,,,,,false,1136227.1,1136226.9,1129936.491,1129939,1129953.172,1136242.774,5,600,,
trial,html.Screen,10_6_0,2024-03-05T20:37:42.261Z,,,,1,-0.0050679133050021,-0.0174815595031679,,0.04,true,hl,8095.625999999931,response,0.8923602890201078,1.1484369359318751,-1.1665081222234288,-0.8351700666074688,1.145,-1.11118968745313,high,low,,ISIC_9848743.JPG,12,ISIC_0033103.JPG,28,26,false,0.29000000000000015,hl,keypress(j),0,false,1144338.4,1144338.4,1136226.033,1136227.1,1136242.774,1144350.856,5,600,7,
break,html.Screen,10_6_1,2024-03-05T20:37:42.262Z,,,,,,,,,,,NaN,,,,,,,,high,low,,,,,,,false,,,,,false,1144338.9,1144338.7,,1144338.6,,1144350.856,5,600,,
break_continue,html.Screen,10_6_2,2024-03-05T20:37:42.262Z,,,,,,,,,,,NaN,,,,,,,,high,low,,,,,,,false,,,,,false,1144339.1,1144339,,1144338.9,,1144350.856,5,600,,
sequence,flow.Sequence,10_6,2024-03-05T20:37:42.262Z,,,,,,,,,,,8096.226000000024,completion,,,,,,,high,low,,,,,,,false,,,,,false,1144339.2,1144339,1136226.033,1136227.1,1136242.774,1144350.856,5,600,,
trial,html.Screen,10_7_0,2024-03-05T20:37:50.853Z,,,,1,0.0367218428225813,-0.0026956749740767,,0.04,true,ll,8579.444000000134,response,-1.094624209823328,1.1484369359318751,-1.1665081222234288,-1.0544499428769605,1.145,-1.11118968745313,low,low,,ISIC_7212271.JPG,10,ISIC_0055526.JPG,28,29,false,0.12,ll,keypress(f),0,false,1152930.4,1152930.3,1144334.094,1144339.3,1144350.856,1152942.769,5,600,8,
break,html.Screen,10_7_1,2024-03-05T20:37:50.854Z,,,,,,,,,,,NaN,,,,,,,,low,low,,,,,,,false,,,,,false,1152930.8,1152930.7,,1152930.5,,1152942.769,5,600,,
break_continue,html.Screen,10_7_2,2024-03-05T20:37:50.854Z,,,,,,,,,,,NaN,,,,,,,,low,low,,,,,,,false,,,,,false,1152931,1152930.9,,1152930.8,,1152942.769,5,600,,
sequence,flow.Sequence,10_7,2024-03-05T20:37:50.854Z,,,,,,,,,,,8580.043999999994,completion,,,,,,,low,low,,,,,,,false,,,,,false,1152931,1152930.9,1144334.094,1144339.2,1144350.856,1152942.769,5,600,,
trial,html.Screen,10_8_0,2024-03-05T20:37:57.701Z,,,,1,0.0063515208248796,0.0194177605767913,,0.04,true,hl,6835.430999999866,response,1.0003671514840182,1.1484369359318751,-1.1665081222234288,-0.8992716557663581,1.145,-1.11118968745313,high,low,,ISIC_5281908.JPG,9,ISIC_0061749.JPG,28,26,false,0.29000000000000015,hl,keypress(j),0,false,1159778.4,1159778.2,1152925.954,1152931.1,1152942.769,1159782.956,5,600,9,
break,html.Screen,10_8_1,2024-03-05T20:37:57.702Z,,,,,,,,,,,NaN,,,,,,,,high,low,,,,,,,false,,,,,false,1159778.8,1159778.6,,1159778.5,,1159782.956,5,600,,
break_continue,html.Screen,10_8_2,2024-03-05T20:37:57.702Z,,,,,,,,,,,NaN,,,,,,,,high,low,,,,,,,false,,,,,false,1159779,1159778.9,,1159778.8,,1159782.956,5,600,,
sequence,flow.Sequence,10_8,2024-03-05T20:37:57.702Z,,,,,,,,,,,6836.130999999819,completion,,,,,,,high,low,,,,,,,false,,,,,false,1159779,1159778.9,1152925.954,1152931.1,1152942.769,1159782.956,5,600,,
trial,html.Screen,10_9_0,2024-03-05T20:38:09.141Z,,,,1,-0.0071892445601978,0.0246015408628738,,0.04,true,ll,11435.443999999901,response,-1.0570280672376675,1.1484369359318751,-1.1665081222234288,-1.0932046580095067,1.145,-1.11118968745313,low,low,,ISIC_0014133.JPG,10,ISIC_0061320.JPG,28,29,false,0.12,ll,keypress(f),0,false,1171218.5,1171218.4,1159766.138,1159779,1159782.956,1171227.691,5,600,10,
break,html.Screen,10_9_1,2024-03-05T20:38:09.142Z,,,,,,,,,,,NaN,,,,,,,,low,low,,,,,,,false,,,,,false,1171218.8,1171218.7,,1171218.5,,1171227.691,5,600,,
break_continue,html.Screen,10_9_2,2024-03-05T20:38:09.142Z,,,,,,,,,,,NaN,,,,,,,,low,low,,,,,,,false,,,,,false,1171219.1,1171219,,1171219,,1171227.691,5,600,,
sequence,flow.Sequence,10_9,2024-03-05T20:38:09.142Z,,,,,,,,,,,11436.043999999994,completion,,,,,,,low,low,,,,,,,false,,,,,false,1171219.3,1171219,1159766.138,1159779,1159782.956,1171227.691,5,600,,
trial,html.Screen,10_10_0,2024-03-05T20:38:18.677Z,,,,1,0.0051046740562181,-0.0178832721027728,,0.04,true,hh,9526.908999999985,response,1.1990772227054871,1.1484369359318751,-1.1665081222234288,1.1224329926844498,1.145,-1.11118968745313,high,high,,ISIC_9545819.JPG,9,ISIC_3425388.JPG,28,26,false,0.14,hh,keypress(i),0,false,1180754.7,1180754.6,1171210.981,1171219.4,1171227.691,1180770.55,5,600,11,
break,html.Screen,10_10_1,2024-03-05T20:38:18.678Z,,,,,,,,,,,NaN,,,,,,,,high,high,,,,,,,false,,,,,false,1180755.1,1180755,,1180754.8,,1180770.55,5,600,,
break_continue,html.Screen,10_10_2,2024-03-05T20:38:18.678Z,,,,,,,,,,,NaN,,,,,,,,high,high,,,,,,,false,,,,,false,1180755.4,1180755.3,,1180755.2,,1180770.55,5,600,,
sequence,flow.Sequence,10_10,2024-03-05T20:38:18.678Z,,,,,,,,,,,9527.608999999939,completion,,,,,,,high,high,,,,,,,false,,,,,false,1180755.6,1180755.3,1171210.981,1171219.3,1171227.691,1180770.55,5,600,,
trial,html.Screen,10_11_0,2024-03-05T20:38:26.085Z,,,,1,0.0321039635696159,0.020496766286318,,0.04,false,hl,7391.84999999986,response,1.2838089642212804,1.1484369359318751,-1.1665081222234288,-0.8550527900640753,1.145,-1.11118968745313,high,low,,ISIC_0058063.JPG,9,ISIC_0034187.JPG,28,26,false,0.29000000000000015,ll,keypress(f),0,false,1188162.5,1188162.4,1180753.716,1180755.7,1180770.55,1188177.952,5,600,12,
break,html.Screen,10_11_1,2024-03-05T20:38:26.086Z,,,,,,,,,,,NaN,,,,,,,,high,low,,,,,,,false,,,,,false,1188162.9,1188162.8,,1188162.7,,1188177.952,5,600,,
break_continue,html.Screen,10_11_2,2024-03-05T20:38:26.086Z,,,,,,,,,,,NaN,,,,,,,,high,low,,,,,,,false,,,,,false,1188163.1,1188163.1,,1188163,,1188177.952,5,600,,
sequence,flow.Sequence,10_11,2024-03-05T20:38:26.086Z,,,,,,,,,,,7392.550000000047,completion,,,,,,,high,low,,,,,,,false,,,,,false,1188163.2,1188163.1,1180753.716,1180755.6,1180770.55,1188177.952,5,600,,
trial,html.Screen,10_12_0,2024-03-05T20:38:29.685Z,,,,1,-0.0050679133050021,-0.0174815595031679,,0.04,false,lh,3584.247999999905,response,-1.0822170028935367,1.1484369359318751,-1.1665081222234288,1.1654796154432183,1.145,-1.11118968745313,low,high,,ISIC_9848743.JPG,10,ISIC_7288818.JPG,28,25,false,0.29000000000000015,hh,keypress(i),0,false,1191762.3,1191762.2,1188161.19,1188163.2,1188177.952,1191764.859,5,600,13,
break,html.Screen,10_12_1,2024-03-05T20:38:29.685Z,,,,,,,,,,,NaN,,,,,,,,low,high,,,,,,,false,,,,,false,1191762.6,1191762.6,,1191762.4,,1191764.859,5,600,,
break_continue,html.Screen,10_12_2,2024-03-05T20:38:29.686Z,,,,,,,,,,,NaN,,,,,,,,low,high,,,,,,,false,,,,,false,1191762.9,1191762.8,,1191762.8,,1191764.859,5,600,,
sequence,flow.Sequence,10_12,2024-03-05T20:38:29.686Z,,,,,,,,,,,3584.847999999998,completion,,,,,,,low,high,,,,,,,false,,,,,false,1191763.1,1191762.8,1188161.19,1188163.2,1188177.952,1191764.859,5,600,,
trial,html.Screen,10_13_0,2024-03-05T20:38:41.431Z,,,,1,-0.012020985739544,0.0126097407389903,,0.04,false,lh,12909.341000000015,response,-1.0264463986917702,1.1484369359318751,-1.1665081222234288,1.171271535505083,1.145,-1.11118968745313,low,high,,ISIC_0069379.JPG,9,ISIC_7889838.JPG,28,25,false,0.29000000000000015,ll,keypress(f),0,false,1204674.3,1204674.2,1191748.151,1191763.1,1191764.859,1204677.745,5,600,14,
break,html.Screen,10_13_1,2024-03-05T20:38:41.432Z,,,,,,,,,,,NaN,,,,,,,,low,high,,,,,,,false,,,,,false,1204674.7,1204674.6,,1204674.4,,1204677.745,5,600,,
break_continue,html.Screen,10_13_2,2024-03-05T20:38:41.432Z,,,,,,,,,,,NaN,,,,,,,,low,high,,,,,,,false,,,,,false,1204674.8,1204674.7,,1204674.7,,1204677.745,5,600,,
sequence,flow.Sequence,10_13,2024-03-05T20:38:41.432Z,,,,,,,,,,,12909.841000000015,completion,,,,,,,low,high,,,,,,,false,,,,,false,1204674.8,1204674.7,1191748.151,1191763.1,1191764.859,1204677.745,5,600,,
trial,html.Screen,10_14_0,2024-03-05T20:38:44.391Z,,,,1,-0.012020985739544,0.0126097407389903,,0.04,false,hh,2956.3549999999814,response,1.212030980680325,1.1484369359318751,-1.1665081222234288,1.139863018685685,1.145,-1.11118968745313,high,high,,ISIC_0069379.JPG,9,ISIC_0008510.JPG,28,26,false,0.14,ll,keypress(f),0,false,1207634.2,1207634.1,1204661.03,1204674.9,1204677.745,1207647.383,5,600,15,
break,html.Screen,10_14_1,2024-03-05T20:38:44.392Z,,,,,,,,,,,NaN,,,,,,,,high,high,,,,,,,false,,,,,false,1207634.6,1207634.5,,1207634.3,,1207647.383,5,600,,
break_continue,html.Screen,10_14_2,2024-03-05T20:38:44.392Z,,,,,,,,,,,NaN,,,,,,,,high,high,,,,,,,false,,,,,false,1207634.7,1207634.6,,1207634.6,,1207647.383,5,600,,
sequence,flow.Sequence,10_14,2024-03-05T20:38:44.392Z,,,,,,,,,,,2956.8549999999814,completion,,,,,,,high,high,,,,,,,false,,,,,false,1207634.8,1207634.6,1204661.03,1204674.9,1204677.745,1207647.383,5,600,,
trial,html.Screen,10_15_0,2024-03-05T20:38:48.199Z,,,,1,-0.0377791839943904,0.0227626648172468,,0.04,false,lh,3794.717000000179,response,-1.0822170028935367,1.1484369359318751,-1.1665081222234288,1.1654796154432183,1.145,-1.11118968745313,low,high,,ISIC_7167479.JPG,9,ISIC_7288818.JPG,28,25,false,0.29000000000000015,hh,keypress(i),0,false,1211442.1,1211442.1,1207630.638,1207634.8,1207647.383,1211451.175,5,600,16,
break,html.Screen,10_15_1,2024-03-05T20:38:48.200Z,,,,,,,,,,,NaN,,,,,,,,low,high,,,,,,,false,,,,,false,1211442.5,1211442.5,,1211442.3,,1211451.175,5,600,,
break_continue,html.Screen,10_15_2,2024-03-05T20:38:48.200Z,,,,,,,,,,,NaN,,,,,,,,low,high,,,,,,,false,,,,,false,1211442.6,1211442.6,,1211442.6,,1211451.175,5,600,,
sequence,flow.Sequence,10_15,2024-03-05T20:38:48.200Z,,,,,,,,,,,3795.217000000179,completion,,,,,,,low,high,,,,,,,false,,,,,false,1211442.7,1211442.6,1207630.638,1207634.8,1207647.383,1211451.175,5,600,,
trial,html.Screen,10_16_0,2024-03-05T20:39:01.015Z,,,,1,-0.0050679133050021,-0.0174815595031679,,0.04,true,lh,12807.125,response,-1.1547137855907486,1.1484369359318751,-1.1665081222234288,1.0185275168641534,1.145,-1.11118968745313,low,high,,ISIC_9848743.JPG,10,ISIC_7604870.JPG,28,25,false,0.29000000000000015,lh,keypress(e),0,false,1224258.4,1224258.3,1211434.465,1211442.7,1211451.175,1224263.971,5,600,17,
break,html.Screen,10_16_1,2024-03-05T20:39:01.016Z,,,,,,,,,,,NaN,,,,,,,,low,high,,,,,,,false,,,,,false,1224258.9,1224258.8,,1224258.5,,1224263.971,5,600,,
break_continue,html.Screen,10_16_2,2024-03-05T20:39:01.016Z,,,,,,,,,,,NaN,,,,,,,,low,high,,,,,,,false,,,,,false,1224259.1,1224259.1,,1224258.9,,1224263.971,5,600,,
sequence,flow.Sequence,10_16,2024-03-05T20:39:01.016Z,,,,,,,,,,,12807.925000000047,completion,,,,,,,low,high,,,,,,,false,,,,,false,1224259.3,1224259.1,1211434.465,1211442.7,1211451.175,1224263.971,5,600,,
trial,html.Screen,10_17_0,2024-03-05T20:39:11.784Z,,,,1,-0.0060934073440827,-0.0279108145883031,,0.04,true,ll,10762.329000000143,response,-1.1227373144244253,1.1484369359318751,-1.1665081222234288,-1.1886610799377713,1.145,-1.11118968745313,low,low,,ISIC_0032604.JPG,9,ISIC_0059506.JPG,28,29,false,0.12,ll,keypress(f),0,false,1235026.5,1235026.3,1224247.248,1224259.4,1224263.971,1235041.399,5,600,18,
break,html.Screen,10_17_1,2024-03-05T20:39:11.784Z,,,,,,,,,,,NaN,,,,,,,,low,low,,,,,,,false,,,,,false,1235026.9,1235026.8,,1235026.6,,1235041.399,5,600,,
break_continue,html.Screen,10_17_2,2024-03-05T20:39:11.784Z,,,,,,,,,,,NaN,,,,,,,,low,low,,,,,,,false,,,,,false,1235027.1,1235027.1,,1235027,,1235041.399,5,600,,
sequence,flow.Sequence,10_17,2024-03-05T20:39:11.784Z,,,,,,,,,,,10763.12900000019,completion,,,,,,,low,low,,,,,,,false,,,,,false,1235027.3,1235027.1,1224247.248,1224259.4,1224263.971,1235041.399,5,600,,
trial,html.Screen,10_18_0,2024-03-05T20:39:22.776Z,,,,1,0.0367218428225813,-0.0026956749740767,,0.04,false,lh,10977.000999999931,response,-0.9566823908868002,1.1484369359318751,-1.1665081222234288,0.9602125665128364,1.145,-1.11118968745313,low,high,,ISIC_7212271.JPG,10,ISIC_0056784.JPG,28,25,false,0.29000000000000015,ll,keypress(f),0,false,1246018.5,1246018.4,1235024.718,1235027.4,1235041.399,1246036.808,5,600,19,
break,html.Screen,10_18_1,2024-03-05T20:39:22.776Z,,,,,,,,,,,NaN,,,,,,,,low,high,,,,,,,false,,,,,false,1246019.1,1246018.9,,1246018.7,,1246036.808,5,600,,
break_continue,html.Screen,10_18_2,2024-03-05T20:39:22.776Z,,,,,,,,,,,NaN,,,,,,,,low,high,,,,,,,false,,,,,false,1246019.4,1246019.3,,1246019.1,,1246036.808,5,600,,
sequence,flow.Sequence,10_18,2024-03-05T20:39:22.776Z,,,,,,,,,,,10977.90100000007,completion,,,,,,,low,high,,,,,,,false,,,,,false,1246019.4,1246019.3,1235024.718,1235027.3,1235041.399,1246036.808,5,600,,
trial,html.Screen,10_19_0,2024-03-05T20:39:32.711Z,,,,1,-0.012020985739544,0.0126097407389903,,0.04,false,ll,9917.292000000132,response,-1.0570280672376675,1.1484369359318751,-1.1665081222234288,-1.0932046580095067,1.145,-1.11118968745313,low,low,,ISIC_0069379.JPG,9,ISIC_0061320.JPG,28,29,false,0.12,hl,keypress(j),0,false,1255954.2,1255954.1,1246002.335,1246019.5,1246036.808,1255978.983,5,600,20,
break,html.Screen,10_19_1,2024-03-05T20:39:32.712Z,,,,,,,,,,,NaN,,,,,,,,low,low,,,,,,,false,,,,,false,1255954.6,1255954.5,,1255954.4,,1255978.983,5,600,,
break_continue,html.Screen,10_19_2,2024-03-05T20:39:32.712Z,,,,,,,,,,,NaN,,,,,,,,low,low,,,,,,,false,,,,,false,1255954.7,1255954.6,,1255954.6,,1255978.983,5,600,,
sequence,flow.Sequence,10_19,2024-03-05T20:39:32.712Z,,,,,,,,,,,9917.792000000132,completion,,,,,,,low,low,,,,,,,false,,,,,false,1255954.8,1255954.6,1246002.335,1246019.5,1246036.808,1255978.983,5,600,,
trial,html.Screen,10_20_0,2024-03-05T20:39:36.154Z,,,,1,0.0321039635696159,0.020496766286318,,0.04,false,hh,4583.317000000039,response,1.1168199061753437,1.1484369359318751,-1.1665081222234288,1.212287319329914,1.145,-1.11118968745313,high,high,,ISIC_0058063.JPG,12,ISIC_5919355.JPG,28,26,false,0.14,ll,keypress(f),0,false,1260562.4,1260562.3,1255962.307,1255954.9,1255978.983,1260583.552,5,600,21,
break,html.Screen,10_20_1,2024-03-05T20:39:36.154Z,,,,,,,,,,,NaN,,,,,,,,high,high,,,,,,,false,,,,,false,1260562.8,1260562.7,,1260562.5,,1260583.552,5,600,,
break_continue,html.Screen,10_20_2,2024-03-05T20:39:36.154Z,,,,,,,,,,,NaN,,,,,,,,high,high,,,,,,,false,,,,,false,1260563.1,1260562.9,,1260562.9,,1260583.552,5,600,,
sequence,flow.Sequence,10_20,2024-03-05T20:39:36.154Z,,,,,,,,,,,4583.916999999899,completion,,,,,,,high,high,,,,,,,false,,,,,false,1260563.1,1260562.9,1255962.307,1255954.9,1255978.983,1260583.552,5,600,,
trial,html.Screen,10_21_0,2024-03-05T20:39:48.954Z,,,,1,0.010035581303589,-0.0100711721396864,,0.04,true,lh,12778.648000000045,response,-0.9448560599810628,1.1484369359318751,-1.1665081222234288,0.9099421612683488,1.145,-1.11118968745313,low,high,,ISIC_0030592.JPG,9,ISIC_9684318.JPG,28,25,false,0.29000000000000015,lh,keypress(e),0,false,1273362.3,1273362.2,1260550.137,1260563.3,1260583.552,1273380.675,5,600,22,
break,html.Screen,10_21_1,2024-03-05T20:39:48.954Z,,,,,,,,,,,NaN,,,,,,,,low,high,,,,,,,false,,,,,false,1273362.8,1273362.7,,1273362.5,,1273380.675,5,600,,
break_continue,html.Screen,10_21_2,2024-03-05T20:39:48.954Z,,,,,,,,,,,NaN,,,,,,,,low,high,,,,,,,false,,,,,false,1273363,1273362.9,,1273362.9,,1273380.675,5,600,,
sequence,flow.Sequence,10_21,2024-03-05T20:39:48.954Z,,,,,,,,,,,12779.347999999998,completion,,,,,,,low,high,,,,,,,false,,,,,false,1273363.1,1273362.9,1260550.137,1260563.3,1260583.552,1273380.675,5,600,,
trial,html.Screen,10_22_0,2024-03-05T20:39:54.937Z,,,,1,0.0051046740562181,-0.0178832721027728,,0.04,false,lh,5965.425000000047,response,-1.082730232773217,1.1484369359318751,-1.1665081222234288,0.8833175387485132,1.145,-1.11118968745313,low,high,,ISIC_9545819.JPG,9,ISIC_0011933.JPG,28,25,false,0.29000000000000015,hl,keypress(j),0,false,1279346.3,1279346.1,1273346.247,1273363.2,1273380.675,1279352.293,5,600,23,
break,html.Screen,10_22_1,2024-03-05T20:39:54.938Z,,,,,,,,,,,NaN,,,,,,,,low,high,,,,,,,false,,,,,false,1279346.7,1279346.6,,1279346.4,,1279352.293,5,600,,
break_continue,html.Screen,10_22_2,2024-03-05T20:39:54.938Z,,,,,,,,,,,NaN,,,,,,,,low,high,,,,,,,false,,,,,false,1279346.8,1279346.8,,1279346.7,,1279352.293,5,600,,
sequence,flow.Sequence,10_22,2024-03-05T20:39:54.938Z,,,,,,,,,,,5966.125,completion,,,,,,,low,high,,,,,,,false,,,,,false,1279346.9,1279346.8,1273346.247,1273363.2,1273380.675,1279352.293,5,600,,
trial,html.Screen,10_23_0,2024-03-05T20:39:59.162Z,,,,1,0.0361875505619981,-0.0291457404567876,,0.04,false,ll,4218.006999999983,response,-1.1126049058422398,1.1484369359318751,-1.1665081222234288,-1.2305421124063929,1.145,-1.11118968745313,low,low,,ISIC_0027480.JPG,9,ISIC_0071536.JPG,28,29,false,0.12,hh,keypress(i),0,false,1283570.4,1283570.3,1279335.506,1279346.9,1279352.293,1283589.854,5,600,24,
break,html.Screen,10_23_1,2024-03-05T20:39:59.162Z,,,,,,,,,,,NaN,,,,,,,,low,low,,,,,,,false,,,,,false,1283570.8,1283570.8,,1283570.5,,1283589.854,5,600,,
break_continue,html.Screen,10_23_2,2024-03-05T20:39:59.162Z,,,,,,,,,,,NaN,,,,,,,,low,low,,,,,,,false,,,,,false,1283571,1283571,,1283570.9,,1283589.854,5,600,,
sequence,flow.Sequence,10_23,2024-03-05T20:39:59.162Z,,,,,,,,,,,4218.706999999937,completion,,,,,,,low,low,,,,,,,false,,,,,false,1283571.2,1283571,1279335.506,1279346.9,1279352.293,1283589.854,5,600,,
trial,html.Screen,10_24_0,2024-03-05T20:40:06.553Z,,,,1,-0.0166849894750452,0.0371614812368835,,0.04,true,hl,7372.246000000043,response,1.1224745971429997,1.1484369359318751,-1.1665081222234288,-0.8423270217438888,1.145,-1.11118968745313,high,low,,ISIC_6231450.JPG,10,ISIC_0057032.JPG,28,26,false,0.29000000000000015,hl,keypress(j),0,false,1290962.2,1290962.1,1283556.489,1283571.3,1283589.854,1290980.573,5,600,25,
break,html.Screen,10_24_1,2024-03-05T20:40:06.554Z,,,,,,,,,,,NaN,,,,,,,,high,low,,,,,,,false,,,,,false,1290962.7,1290962.6,,1290962.4,,1290980.573,5,600,,
break_continue,html.Screen,10_24_2,2024-03-05T20:40:06.554Z,,,,,,,,,,,NaN,,,,,,,,high,low,,,,,,,false,,,,,false,1290962.9,1290962.9,,1290962.8,,1290980.573,5,600,,
sequence,flow.Sequence,10_24,2024-03-05T20:40:06.554Z,,,,,,,,,,,7373.045999999857,completion,,,,,,,high,low,,,,,,,false,,,,,false,1290963,1290962.9,1283556.489,1283571.3,1283589.854,1290980.573,5,600,,
trial,html.Screen,10_25_0,2024-03-05T20:40:19.402Z,,,,1,-0.0158987717472563,-0.0292472192292015,,0.04,true,lh,12829.726999999955,response,-1.1547137855907486,1.1484369359318751,-1.1665081222234288,1.0185275168641534,1.145,-1.11118968745313,low,high,,ISIC_1366765.JPG,10,ISIC_7604870.JPG,28,25,false,0.29000000000000015,lh,keypress(e),0,false,1303810.4,1303810.3,1290947.169,1290963,1290980.573,1303826.731,5,600,26,
break,html.Screen,10_25_1,2024-03-05T20:40:19.402Z,,,,,,,,,,,NaN,,,,,,,,low,high,,,,,,,false,,,,,false,1303810.8,1303810.8,,1303810.5,,1303826.731,5,600,,
break_continue,html.Screen,10_25_2,2024-03-05T20:40:19.402Z,,,,,,,,,,,NaN,,,,,,,,low,high,,,,,,,false,,,,,false,1303811.1,1303811,,1303811,,1303826.731,5,600,,
sequence,flow.Sequence,10_25,2024-03-05T20:40:19.402Z,,,,,,,,,,,12830.426999999909,completion,,,,,,,low,high,,,,,,,false,,,,,false,1303811.2,1303811,1290947.169,1290963,1290980.573,1303826.731,5,600,,
trial,html.Screen,10_26_0,2024-03-05T20:40:25.482Z,,,,1,-0.0023664502831079,-0.0252784582169994,,0.04,false,ll,6063.469000000041,response,-1.2055236989581275,1.1484369359318751,-1.1665081222234288,-1.1960893075698802,1.145,-1.11118968745313,low,low,,ISIC_4156010.JPG,10,ISIC_0072393.JPG,28,29,false,0.12,lh,keypress(e),0,false,1309890.4,1309890.2,1303809.996,1303811.2,1303826.731,1309899.457,5,600,27,
break,html.Screen,10_26_1,2024-03-05T20:40:25.482Z,,,,,,,,,,,NaN,,,,,,,,low,low,,,,,,,false,,,,,false,1309890.9,1309890.8,,1309890.6,,1309899.457,5,600,,
break_continue,html.Screen,10_26_2,2024-03-05T20:40:25.482Z,,,,,,,,,,,NaN,,,,,,,,low,low,,,,,,,false,,,,,false,1309891.2,1309891.1,,1309891,,1309899.457,5,600,,
sequence,flow.Sequence,10_26,2024-03-05T20:40:25.483Z,,,,,,,,,,,6064.369000000181,completion,,,,,,,low,low,,,,,,,false,,,,,false,1309891.3,1309891.1,1303809.996,1303811.2,1303826.731,1309899.457,5,600,,
trial,html.Screen,10_27_0,2024-03-05T20:40:40.759Z,,,,1,0.0189295602385628,0.0128812415435153,,0.04,,,16016.01500000013,timeout,1.1569583426015195,1.1484369359318751,-1.1665081222234288,1.02258614327008,1.145,-1.11118968745313,high,high,,ISIC_0010372.JPG,10,ISIC_5705973.JPG,28,26,false,0.14,,,0,false,1325882.4,1325882.3,1309882.669,1309891.4,1309899.457,1325915.472,5,600,28,
break,html.Screen,10_27_1,2024-03-05T20:40:40.760Z,,,,,,,,,,,NaN,,,,,,,,high,high,,,,,,,false,,,,,false,1325882.8,1325882.7,,1325882.6,,1325915.472,5,600,,
break_continue,html.Screen,10_27_2,2024-03-05T20:40:40.760Z,,,,,,,,,,,NaN,,,,,,,,high,high,,,,,,,false,,,,,false,1325883.1,1325883,,1325882.9,,1325915.472,5,600,,
sequence,flow.Sequence,10_27,2024-03-05T20:40:40.760Z,,,,,,,,,,,15983.543000000063,completion,,,,,,,high,high,,,,,,,false,,,,,false,1325883.1,1325883,1309882.669,1309891.4,1309899.457,1325915.472,5,600,,
trial,html.Screen,10_28_0,2024-03-05T20:40:46.431Z,,,,1,0.0199897690678184,0.0312486875504497,,0.04,false,lh,5638.628000000026,response,-1.1547137855907486,1.1484369359318751,-1.1665081222234288,1.0185275168641534,1.145,-1.11118968745313,low,high,,ISIC_5482426.JPG,10,ISIC_7604870.JPG,28,25,false,0.29000000000000015,hh,keypress(i),0,false,1331554.3,1331554.1,1325898.762,1325883.2,1325915.472,1331571.105,5,600,29,
break,html.Screen,10_28_1,2024-03-05T20:40:46.432Z,,,,,,,,,,,NaN,,,,,,,,low,high,,,,,,,false,,,,,false,1331554.8,1331554.7,,1331554.5,,1331571.105,5,600,,
break_continue,html.Screen,10_28_2,2024-03-05T20:40:46.432Z,,,,,,,,,,,NaN,,,,,,,,low,high,,,,,,,false,,,,,false,1331555,1331555,,1331554.9,,1331571.105,5,600,,
sequence,flow.Sequence,10_28,2024-03-05T20:40:46.432Z,,,,,,,,,,,5639.527999999933,completion,,,,,,,low,high,,,,,,,false,,,,,false,1331555.1,1331555,1325898.762,1325883.2,1325915.472,1331571.105,5,600,,
trial,html.Screen,10_29_0,2024-03-05T20:40:49.359Z,,,,1,-0.0071892445601978,0.0246015408628738,,0.04,false,hh,2910.9950000001118,response,1.1604734171556077,1.1484369359318751,-1.1665081222234288,1.0789312625280616,1.145,-1.11118968745313,high,high,,ISIC_0014133.JPG,9,ISIC_3950753.JPG,28,26,false,0.14,ll,keypress(f),0,false,1334482.3,1334482.1,1331554.318,1331555.2,1331571.105,1334490.666,5,600,30,
break,html.Screen,10_29_1,2024-03-05T20:40:49.360Z,,,,,,,,,,,NaN,,,,,,,,high,high,,,,,,,false,,,,,false,1334482.7,1334482.6,,1334482.5,,1334490.666,5,600,,
break_continue,html.Screen,10_29_2,2024-03-05T20:40:49.360Z,,,,,,,,,,,NaN,,,,,,,,high,high,,,,,,,false,,,,,false,1334483,1334482.9,,1334482.8,,1334490.666,5,600,,
sequence,flow.Sequence,10_29,2024-03-05T20:40:49.360Z,,,,,,,,,,,2911.7949999999255,completion,,,,,,,high,high,,,,,,,false,,,,,false,1334483,1334482.9,1331554.318,1331555.2,1331571.105,1334490.666,5,600,,
trial,html.Screen,10_30_0,2024-03-05T20:40:55.375Z,,,,1,-0.00126575685933,-0.0325046559638838,,0.04,false,ll,6007.634000000078,response,-1.1894733304494307,1.1484369359318751,-1.1665081222234288,-1.1169761866204877,1.145,-1.11118968745313,low,low,,ISIC_5682259.JPG,9,ISIC_0033813.JPG,28,29,false,0.12,hh,keypress(i),0,false,1340498.4,1340498.3,1334473.946,1334483.2,1334490.666,1340513.346,5,600,31,
break,html.Screen,10_30_1,2024-03-05T20:40:55.376Z,,,,,,,,,,,NaN,,,,,,,,low,low,,,,,,,false,,,,,false,1340498.9,1340498.7,,1340498.5,,1340513.346,5,600,,
break_continue,html.Screen,10_30_2,2024-03-05T20:40:55.376Z,,,,,,,,,,,NaN,,,,,,,,low,low,,,,,,,false,,,,,false,1340499,1340499,,1340498.9,,1340513.346,5,600,,
sequence,flow.Sequence,10_30,2024-03-05T20:40:55.376Z,,,,,,,,,,,6008.334000000032,completion,,,,,,,low,low,,,,,,,false,,,,,false,1340499.1,1340499,1334473.946,1334483.1,1334490.666,1340513.346,5,600,,
trial,html.Screen,10_31_0,2024-03-05T20:40:58.144Z,,,,1,-0.0377791839943904,0.0227626648172468,,0.04,false,lh,2752.9540000001434,response,-0.8787496315223856,1.1484369359318751,-1.1665081222234288,1.3680901203013998,1.145,-1.11118968745313,low,high,,ISIC_7167479.JPG,8,ISIC_0023811.JPG,28,25,false,0.29000000000000015,ll,keypress(f),0,false,1343266.5,1343266.3,1340496.585,1340499.2,1340513.346,1343282.802,5,600,32,
break,html.Screen,10_31_1,2024-03-05T20:40:58.144Z,,,,,,,,,,,NaN,,,,,,,,low,high,,,,,,,false,,,,,false,1343266.9,1343266.8,,1343266.6,,1343282.802,5,600,,
break_continue,html.Screen,10_31_2,2024-03-05T20:40:58.144Z,,,,,,,,,,,NaN,,,,,,,,low,high,,,,,,,false,,,,,false,1343267.1,1343267.1,,1343267,,1343282.802,5,600,,
sequence,flow.Sequence,10_31,2024-03-05T20:40:58.144Z,,,,,,,,,,,2753.75400000019,completion,,,,,,,low,high,,,,,,,false,,,,,false,1343267.3,1343267.1,1340496.585,1340499.2,1340513.346,1343282.802,5,600,,
trial,html.Screen,10_32_0,2024-03-05T20:41:01.215Z,,,,1,-0.0060934073440827,-0.0279108145883031,,0.04,false,lh,3055.2980000001844,response,-0.9225524349657857,1.1484369359318751,-1.1665081222234288,0.929746784178986,1.145,-1.11118968745313,low,high,,ISIC_0032604.JPG,9,ISIC_0011077.JPG,28,25,false,0.29000000000000015,hh,keypress(i),0,false,1346338.3,1346338.1,1343266.059,1343267.3,1343282.802,1346352.512,5,600,33,
break,html.Screen,10_32_1,2024-03-05T20:41:01.216Z,,,,,,,,,,,NaN,,,,,,,,low,high,,,,,,,false,,,,,false,1346338.8,1346338.6,,1346338.4,,1346352.512,5,600,,
break_continue,html.Screen,10_32_2,2024-03-05T20:41:01.216Z,,,,,,,,,,,NaN,,,,,,,,low,high,,,,,,,false,,,,,false,1346338.9,1346338.9,,1346338.8,,1346352.512,5,600,,
sequence,flow.Sequence,10_32,2024-03-05T20:41:01.216Z,,,,,,,,,,,3056.097999999998,completion,,,,,,,low,high,,,,,,,false,,,,,false,1346339.1,1346338.9,1343266.059,1343267.3,1343282.802,1346352.512,5,600,,
trial,html.Screen,10_33_0,2024-03-05T20:41:08.239Z,,,,1,0.010035581303589,-0.0100711721396864,,0.04,false,hl,7009.787999999942,response,0.8923602890201078,1.1484369359318751,-1.1665081222234288,-0.8351700666074688,1.145,-1.11118968745313,high,low,,ISIC_0030592.JPG,10,ISIC_0033103.JPG,28,26,false,0.29000000000000015,lh,keypress(e),0,false,1353362.4,1353362.3,1346335.803,1346339.1,1346352.512,1353376.193,5,600,34,
break,html.Screen,10_33_1,2024-03-05T20:41:08.240Z,,,,,,,,,,,NaN,,,,,,,,high,low,,,,,,,false,,,,,false,1353362.9,1353362.8,,1353362.5,,1353376.193,5,600,,
break_continue,html.Screen,10_33_2,2024-03-05T20:41:08.240Z,,,,,,,,,,,NaN,,,,,,,,high,low,,,,,,,false,,,,,false,1353363,1353363,,1353362.9,,1353376.193,5,600,,
sequence,flow.Sequence,10_33,2024-03-05T20:41:08.240Z,,,,,,,,,,,7010.487999999896,completion,,,,,,,high,low,,,,,,,false,,,,,false,1353363.1,1353363,1346335.803,1346339.1,1346352.512,1353376.193,5,600,,
trial,html.Screen,10_34_0,2024-03-05T20:41:20.095Z,,,,1,-0.0060934073440827,-0.0279108145883031,,0.04,true,lh,11842.006999999983,response,-1.0961318727760048,1.1484369359318751,-1.1665081222234288,1.2134960228256146,1.145,-1.11118968745313,low,high,,ISIC_0032604.JPG,9,ISIC_9768421.JPG,28,25,false,0.29000000000000015,lh,keypress(e),0,false,1365218.3,1365218.2,1353359.516,1353363.2,1353376.193,1365238.029,5,600,35,
break,html.Screen,10_34_1,2024-03-05T20:41:20.096Z,,,,,,,,,,,NaN,,,,,,,,low,high,,,,,,,false,,,,,false,1365218.9,1365218.7,,1365218.5,,1365238.029,5,600,,
break_continue,html.Screen,10_34_2,2024-03-05T20:41:20.096Z,,,,,,,,,,,NaN,,,,,,,,low,high,,,,,,,false,,,,,false,1365219,1365218.9,,1365218.9,,1365238.029,5,600,,
sequence,flow.Sequence,10_34,2024-03-05T20:41:20.096Z,,,,,,,,,,,11842.706999999937,completion,,,,,,,low,high,,,,,,,false,,,,,false,1365219.1,1365218.9,1353359.516,1353363.1,1353376.193,1365238.029,5,600,,
trial,html.Screen,10_35_0,2024-03-05T20:41:36.094Z,,,,1,-0.0057914759495055,0.018500200317654,,0.04,,,16016.037999999942,timeout,0.9013888878932071,1.1484369359318751,-1.1665081222234288,-0.9328095253308732,1.145,-1.11118968745313,high,low,,ISIC_0058723.JPG,9,ISIC_0068259.JPG,28,26,false,0.29000000000000015,,,0,false,1381220.9,1381220.8,1365204.64,1365219.1,1365238.029,1381254.067,5,600,36,
break,html.Screen,10_35_1,2024-03-05T20:41:36.094Z,,,,,,,,,,,NaN,,,,,,,,high,low,,,,,,,false,,,,,false,1381221.4,1381221.3,,1381221.2,,1381254.067,5,600,,
break_continue,html.Screen,10_35_2,2024-03-05T20:41:36.094Z,,,,,,,,,,,NaN,,,,,,,,high,low,,,,,,,false,,,,,false,1381221.6,1381221.6,,1381221.5,,1381254.067,5,600,,
sequence,flow.Sequence,10_35,2024-03-05T20:41:36.094Z,,,,,,,,,,,15983.570999999996,completion,,,,,,,high,low,,,,,,,false,,,,,false,1381221.7,1381221.6,1365204.64,1365219.1,1365238.029,1381254.067,5,600,,
trial,html.Screen,10_36_0,2024-03-05T20:41:43.531Z,,,,1,-0.012020985739544,0.0126097407389903,,0.04,false,lh,7404.132999999914,response,-0.887838744955182,1.1484369359318751,-1.1665081222234288,1.3716210719758812,1.145,-1.11118968745313,low,high,,ISIC_0069379.JPG,10,ISIC_1488727.JPG,28,25,false,0.29000000000000015,ll,keypress(f),0,false,1388658.4,1388658.2,1381237.331,1381221.8,1381254.067,1388678.124,5,600,37,
break,html.Screen,10_36_1,2024-03-05T20:41:43.531Z,,,,,,,,,,,NaN,,,,,,,,low,high,,,,,,,false,,,,,false,1388658.7,1388658.6,,1388658.4,,1388678.124,5,600,,
break_continue,html.Screen,10_36_2,2024-03-05T20:41:43.531Z,,,,,,,,,,,NaN,,,,,,,,low,high,,,,,,,false,,,,,false,1388658.8,1388658.8,,1388658.8,,1388678.124,5,600,,
sequence,flow.Sequence,10_36,2024-03-05T20:41:43.532Z,,,,,,,,,,,7404.733000000007,completion,,,,,,,low,high,,,,,,,false,,,,,false,1388658.9,1388658.8,1381237.331,1381221.8,1381254.067,1388678.124,5,600,,
trial,html.Screen,10_37_0,2024-03-05T20:41:49.755Z,,,,1,-0.0166849894750452,0.0371614812368835,,0.04,false,lh,6204.0759999998845,response,-0.9212323139676136,1.1484369359318751,-1.1665081222234288,0.9882196642247332,1.145,-1.11118968745313,low,high,,ISIC_6231450.JPG,10,ISIC_0014255.JPG,28,25,false,0.29000000000000015,ll,keypress(f),0,false,1394882.3,1394882.2,1388644.623,1388659,1388678.124,1394884.294,5,600,38,
break,html.Screen,10_37_1,2024-03-05T20:41:49.755Z,,,,,,,,,,,NaN,,,,,,,,low,high,,,,,,,false,,,,,false,1394882.8,1394882.7,,1394882.4,,1394884.294,5,600,,
break_continue,html.Screen,10_37_2,2024-03-05T20:41:49.756Z,,,,,,,,,,,NaN,,,,,,,,low,high,,,,,,,false,,,,,false,1394883,1394882.9,,1394882.8,,1394884.294,5,600,,
sequence,flow.Sequence,10_37,2024-03-05T20:41:49.756Z,,,,,,,,,,,6204.775999999838,completion,,,,,,,low,high,,,,,,,false,,,,,false,1394883.1,1394882.9,1388644.623,1388659,1388678.124,1394884.294,5,600,,
trial,html.Screen,10_38_0,2024-03-05T20:42:03.499Z,,,,1,0.0063515208248796,0.0194177605767913,,0.04,false,ll,13741.806000000099,response,-1.2383563585964383,1.1484369359318751,-1.1665081222234288,-1.0364354388740975,1.145,-1.11118968745313,low,low,,ISIC_5281908.JPG,10,ISIC_0027622.JPG,28,29,false,0.12,hh,keypress(i),0,false,1408626.2,1408626.1,1394867.53,1394883.2,1394884.294,1408631.355,5,600,39,
break,html.Screen,10_38_1,2024-03-05T20:42:03.499Z,,,,,,,,,,,NaN,,,,,,,,low,low,,,,,,,false,,,,,false,1408626.6,1408626.5,,1408626.4,,1408631.355,5,600,,
break_continue,html.Screen,10_38_2,2024-03-05T20:42:03.499Z,,,,,,,,,,,NaN,,,,,,,,low,low,,,,,,,false,,,,,false,1408626.8,1408626.8,,1408626.6,,1408631.355,5,600,,
sequence,flow.Sequence,10_38,2024-03-05T20:42:03.500Z,,,,,,,,,,,13742.506000000052,completion,,,,,,,low,low,,,,,,,false,,,,,false,1408627,1408626.8,1394867.53,1394883.1,1394884.294,1408631.355,5,600,,
trial,html.Screen,10_39_0,2024-03-05T20:42:16.923Z,,,,1,0.0189295602385628,0.0128812415435153,,0.04,false,ll,13418.844999999972,response,-1.1474466950560966,1.1484369359318751,-1.1665081222234288,-1.173734476257662,1.145,-1.11118968745313,low,low,,ISIC_0010372.JPG,9,ISIC_5216586.JPG,28,29,false,0.12,hh,keypress(i),0,false,1422050.4,1422050.2,1408614.594,1408627,1408631.355,1422061.417,5,600,40,
break,html.Screen,10_39_1,2024-03-05T20:42:16.923Z,,,,,,,,,,,NaN,,,,,,,,low,low,,,,,,,false,,,,,false,1422050.8,1422050.6,,1422050.5,,1422061.417,5,600,,
break_continue,html.Screen,10_39_2,2024-03-05T20:42:16.924Z,,,,,,,,,,,NaN,,,,,,,,low,low,,,,,,,false,,,,,false,1422051.1,1422051,,1422050.9,,1422061.417,5,600,,
sequence,flow.Sequence,10_39,2024-03-05T20:42:16.924Z,,,,,,,,,,,13419.645000000019,completion,,,,,,,low,low,,,,,,,false,,,,,false,1422051.2,1422051,1408614.594,1408627,1408631.355,1422061.417,5,600,,
trial,html.Screen,10_40_0,2024-03-05T20:42:30.395Z,,,,1,-0.0057914759495055,0.018500200317654,,0.04,false,hl,13460.683000000194,response,1.1235224875125256,1.1484369359318751,-1.1665081222234288,-0.8641223012137988,1.145,-1.11118968745313,high,low,,ISIC_0058723.JPG,9,ISIC_0033901.JPG,28,26,false,0.29000000000000015,lh,keypress(e),0,false,1435522.2,1435522.1,1422044.683,1422051.2,1422061.417,1435524.858,5,600,41,
break,html.Screen,10_40_1,2024-03-05T20:42:30.395Z,,,,,,,,,,,NaN,,,,,,,,high,low,,,,,,,false,,,,,false,1435522.6,1435522.5,,1435522.2,,1435524.858,5,600,,
break_continue,html.Screen,10_40_2,2024-03-05T20:42:30.395Z,,,,,,,,,,,NaN,,,,,,,,high,low,,,,,,,false,,,,,false,1435522.8,1435522.8,,1435522.7,,1435524.858,5,600,,
sequence,flow.Sequence,10_40,2024-03-05T20:42:30.396Z,,,,,,,,,,,13461.383000000147,completion,,,,,,,high,low,,,,,,,false,,,,,false,1435523,1435522.8,1422044.683,1422051.2,1422061.417,1435524.858,5,600,,
trial,html.Screen,10_41_0,2024-03-05T20:42:34.198Z,,,,1,0.0321039635696159,0.020496766286318,,0.04,false,lh,3805.2420000000857,response,-0.9670240379618178,1.1484369359318751,-1.1665081222234288,1.1806404773220665,1.145,-1.11118968745313,low,high,,ISIC_0058063.JPG,6,ISIC_0002288.JPG,28,25,false,0.29000000000000015,hl,keypress(j),0,false,1439330.2,1439330.1,1435508.131,1435523.1,1435524.858,1439345.36,5,600,42,
break,html.Screen,10_41_1,2024-03-05T20:42:34.199Z,,,,,,,,,,,NaN,,,,,,,,low,high,,,,,,,false,,,,,false,1439330.6,1439330.4,,1439330.3,,1439345.36,5,600,,
break_continue,html.Screen,10_41_2,2024-03-05T20:42:34.199Z,,,,,,,,,,,NaN,,,,,,,,low,high,,,,,,,false,,,,,false,1439330.9,1439330.8,,1439330.7,,1439345.36,5,600,,
sequence,flow.Sequence,10_41,2024-03-05T20:42:34.199Z,,,,,,,,,,,3805.942000000039,completion,,,,,,,low,high,,,,,,,false,,,,,false,1439330.9,1439330.8,1435508.131,1435523.1,1435524.858,1439345.36,5,600,,
trial,html.Screen,10_42_0,2024-03-05T20:42:39.830Z,,,,1,-0.0158987717472563,-0.0292472192292015,,0.04,false,lh,5616.839999999851,response,-1.2704198237183777,1.1484369359318751,-1.1665081222234288,1.138121072015301,1.145,-1.11118968745313,low,high,,ISIC_1366765.JPG,9,ISIC_0501843.JPG,28,25,false,0.29000000000000015,ll,keypress(f),0,false,1444962.2,1444962.2,1439328.602,1439330.9,1439345.36,1444967.628,5,600,43,
break,html.Screen,10_42_1,2024-03-05T20:42:39.831Z,,,,,,,,,,,NaN,,,,,,,,low,high,,,,,,,false,,,,,false,1444962.6,1444962.6,,1444962.3,,1444967.628,5,600,,
break_continue,html.Screen,10_42_2,2024-03-05T20:42:39.831Z,,,,,,,,,,,NaN,,,,,,,,low,high,,,,,,,false,,,,,false,1444962.8,1444962.7,,1444962.7,,1444967.628,5,600,,
sequence,flow.Sequence,10_42,2024-03-05T20:42:39.831Z,,,,,,,,,,,5617.339999999851,completion,,,,,,,low,high,,,,,,,false,,,,,false,1444962.8,1444962.7,1439328.602,1439330.9,1439345.36,1444967.628,5,600,,
trial,html.Screen,10_43_0,2024-03-05T20:42:48.583Z,,,,1,-0.0071892445601978,0.0246015408628738,,0.04,false,lh,8746.571999999927,response,-1.296989496412063,1.1484369359318751,-1.1665081222234288,1.1425074323097002,1.145,-1.11118968745313,low,high,,ISIC_0014133.JPG,9,ISIC_6356803.JPG,28,25,false,0.29000000000000015,ll,keypress(f),0,false,1453714.3,1453714.2,1444950.847,1444962.8,1444967.628,1453726.357,5,600,44,
break,html.Screen,10_43_1,2024-03-05T20:42:48.583Z,,,,,,,,,,,NaN,,,,,,,,low,high,,,,,,,false,,,,,false,1453714.7,1453714.6,,1453714.4,,1453726.357,5,600,,
break_continue,html.Screen,10_43_2,2024-03-05T20:42:48.583Z,,,,,,,,,,,NaN,,,,,,,,low,high,,,,,,,false,,,,,false,1453714.9,1453714.8,,1453714.8,,1453726.357,5,600,,
sequence,flow.Sequence,10_43,2024-03-05T20:42:48.583Z,,,,,,,,,,,8747.17200000002,completion,,,,,,,low,high,,,,,,,false,,,,,false,1453714.9,1453714.8,1444950.847,1444962.8,1444967.628,1453726.357,5,600,,
trial,html.Screen,10_44_0,2024-03-05T20:42:59.846Z,,,,1,0.0063515208248796,0.0194177605767913,,0.04,true,lh,11251.842999999877,response,-1.2704198237183777,1.1484369359318751,-1.1665081222234288,1.138121072015301,1.145,-1.11118968745313,low,high,,ISIC_5281908.JPG,10,ISIC_0501843.JPG,28,25,false,0.29000000000000015,lh,keypress(e),0,false,1464978.2,1464978.2,1453709.616,1453715,1453726.357,1464987.625,5,600,45,
break,html.Screen,10_44_1,2024-03-05T20:42:59.847Z,,,,,,,,,,,NaN,,,,,,,,low,high,,,,,,,false,,,,,false,1464978.5,1464978.5,,1464978.3,,1464987.625,5,600,,
break_continue,html.Screen,10_44_2,2024-03-05T20:42:59.847Z,,,,,,,,,,,NaN,,,,,,,,low,high,,,,,,,false,,,,,false,1464978.8,1464978.7,,1464978.6,,1464987.625,5,600,,
sequence,flow.Sequence,10_44,2024-03-05T20:42:59.847Z,,,,,,,,,,,11252.342999999877,completion,,,,,,,low,high,,,,,,,false,,,,,false,1464978.9,1464978.7,1453709.616,1453715,1453726.357,1464987.625,5,600,,
trial,html.Screen,10_45_0,2024-03-05T20:43:13.558Z,,,,1,0.0365981355399771,0.0162670920008846,,0.04,true,hl,13702.475000000093,response,0.8644465729542988,1.1484369359318751,-1.1665081222234288,-0.8679598285079457,1.145,-1.11118968745313,high,low,,ISIC_0982855.JPG,9,ISIC_6718969.JPG,28,26,false,0.29000000000000015,hl,keypress(j),0,false,1478690.2,1478690.1,1464970.92,1464978.9,1464987.625,1478701.292,5,600,46,
break,html.Screen,10_45_1,2024-03-05T20:43:13.559Z,,,,,,,,,,,NaN,,,,,,,,high,low,,,,,,,false,,,,,false,1478690.6,1478690.5,,1478690.3,,1478701.292,5,600,,
break_continue,html.Screen,10_45_2,2024-03-05T20:43:13.559Z,,,,,,,,,,,NaN,,,,,,,,high,low,,,,,,,false,,,,,false,1478690.9,1478690.8,,1478690.7,,1478701.292,5,600,,
sequence,flow.Sequence,10_45,2024-03-05T20:43:13.559Z,,,,,,,,,,,13703.175000000047,completion,,,,,,,high,low,,,,,,,false,,,,,false,1478691,1478690.8,1464970.92,1464978.9,1464987.625,1478701.292,5,600,,
trial,html.Screen,10_46_0,2024-03-05T20:43:21.062Z,,,,1,0.0086413421586899,0.0360184993500958,,0.04,true,ll,7492.708000000101,response,-1.1227373144244253,1.1484369359318751,-1.1665081222234288,-1.1886610799377713,1.145,-1.11118968745313,low,low,,ISIC_0010767.JPG,10,ISIC_0059506.JPG,28,29,false,0.12,ll,keypress(f),0,false,1486194.2,1486194,1478684.549,1478691,1478701.292,1486208.786,5,600,47,
