sender,sender_type,sender_id,timestamp,meta,,age,blockNo,c1,c2,condition,control_tolerance,correct,correctResponse,duration,ended_on,f1,f1_high,f1_low,f2,f2_high,f2_low,feature_level1,feature_level2,gender,img_left,img_reveal,img_right,n_control_images,n_target_images,practice,range_tolerance,response,response_action,selection_duration,staircase,time_commit,time_end,time_render,time_run,time_show,time_switch,total_blocks,total_trials,trialNo,url
informed_consent,html.Screen,0,2023-11-20T16:33:55.246Z,"{""labjs_version"":""20.2.4"",""labjs_build"":{""flavor"":""development"",""commit"":""f5b4a49f956347addd546a832a3327688c2c0fef""},""location"":""https://labjs.felixhenninger.com/api/labjs_preview/index.html"",""userAgent"":""Mozilla/5.0 (Windows NT 10.0; Win64; x64) AppleWebKit/537.36 (KHTML, like Gecko) Chrome/119.0.0.0 Safari/537.36"",""platform"":""Win32"",""language"":""en-US"",""locale"":""en-US"",""timeZone"":""America/Chicago"",""timezoneOffset"":360,""screen_width"":1920,""screen_height"":1080,""scroll_width"":945,""scroll_height"":918,""window_innerWidth"":945,""window_innerHeight"":966,""devicePixelRatio"":1}",,,,,,,,,,35629.91900009537,response,,,,,,,,,,,,,,,,,consent,click button,,,36200.60000002384,36193.90000009537,547.319,718.2000000476837,563.981,36047.762,,,,{}
Demography form,html.Form,1,2023-11-20T16:34:15.358Z,,,18,,,,,,,,20264.638000095365,form submission,,,,,,,,,female,,,,,,,,,,,,56312.5,56312.40000009537,36014.277,36200.800000071526,36047.762,56147.232,,,,
Welcome,html.Screen,2,2023-11-20T16:34:34.736Z,,,,,,,"[""asym"",""bor""]",,,,19542.668000095364,response,,,,,,,,,,,,,,,,,continue,click button,,,75690.5,75689.90000009537,56130.717,56312.60000002384,56147.232,75530.559,,,,
demo_instructions,html.Screen,3,2023-11-20T16:34:51.512Z,,,,,,,,,,,16935.341000095374,response,,,,,,,,,,,,,,,,,continue,click button,,,92466.70000004768,92465.90000009537,75514.137,75690.60000002384,75530.559,92313.88,,,,
trial,html.Screen,4_0_0,2023-11-20T16:35:14.374Z,,,,0,-1.2181031651370575,-1.2158573487067317,,,true,hh,23014.020000095363,response,1.2724584600905462,1.2,-1.2,1.1411016103695344,1.2,-1.2,high,high,,ISIC_7242312.JPG,,ISIC_0059625.JPG,,26,true,0.15000000000000002,hh,keypress(i),100,false,115328,115327.90000009537,92297.653,92466.80000007153,92313.88,115180.741,1,16,1,
sequence,flow.Sequence,4_0,2023-11-20T16:35:14.374Z,,,,,,,,,,,23014.020000095363,completion,,,,,,,high,high,,,,,,,true,,,,,false,115328.20000004768,115327.90000009537,92297.653,92466.80000007153,92313.88,115180.741,1,16,,
trial,html.Screen,4_1_0,2023-11-20T16:35:23.277Z,,,,0,-1.101214461533281,-1.1849883512428183,,,true,hh,9049.659000095373,response,1.09666761087476,1.2,-1.2,1.1072126870290426,1.2,-1.2,high,high,,ISIC_0064943.JPG,,ISIC_0071754.JPG,,26,true,0.15000000000000002,hh,keypress(i),100,false,124230.60000002384,124230.40000009537,115163.845,115328.30000007153,115180.741,124097.342,1,16,2,
sequence,flow.Sequence,4_1,2023-11-20T16:35:23.277Z,,,,,,,,,,,9049.659000095373,completion,,,,,,,high,high,,,,,,,true,,,,,false,124230.90000009537,124230.40000009537,115163.845,115328.20000004768,115180.741,124097.342,1,16,,
trial,html.Screen,4_2_0,2023-11-20T16:35:30.243Z,,,,0,-1.29026082950341,-1.144672688339213,,,true,hh,7099.458000071521,response,1.2706447584800626,1.2,-1.2,1.0903308007916603,1.2,-1.2,high,high,,ISIC_0054317.JPG,,ISIC_9425937.JPG,,26,true,0.15000000000000002,hh,keypress(i),100,false,131197.10000002384,131196.80000007153,124080.504,124231,124097.342,131064.003,1,16,3,
sequence,flow.Sequence,4_2,2023-11-20T16:35:30.243Z,,,,,,,,,,,7099.458000071521,completion,,,,,,,high,high,,,,,,,true,,,,,false,131197.30000007153,131196.80000007153,124080.504,124231,124097.342,131064.003,1,16,,
trial,html.Screen,4_3_0,2023-11-20T16:35:35.226Z,,,,0,-1.247270138097585,-1.1704704713504994,,,true,hh,5115.3970000953705,response,1.1598623261077452,1.2,-1.2,1.203269031614007,1.2,-1.2,high,high,,ISIC_0065774.JPG,,ISIC_0002639.JPG,,26,true,0.15000000000000002,hh,keypress(i),100,false,136179.60000002384,136179.40000009537,131047.164,131197.40000009537,131064.003,136030.494,1,16,4,
sequence,flow.Sequence,4_3,2023-11-20T16:35:35.226Z,,,,,,,,,,,5115.3970000953705,completion,,,,,,,high,high,,,,,,,true,,,,,false,136179.80000007153,136179.40000009537,131047.164,131197.40000009537,131064.003,136030.494,1,16,,
trial,html.Screen,4_4_0,2023-11-20T16:35:41.246Z,,,,0,1.2012395086389958,1.0618985767073823,,,true,ll,6169.206000047678,response,-1.2249552940807693,1.2,-1.2,-1.1723015116910682,1.2,-1.2,low,low,,ISIC_9876004.JPG,,ISIC_0055251.JPG,,30,true,0.1,ll,keypress(f),100,false,142199.80000007153,142199.70000004768,136014.257,136179.90000009537,136030.494,142063.908,1,16,5,
sequence,flow.Sequence,4_4,2023-11-20T16:35:41.246Z,,,,,,,,,,,6169.206000047678,completion,,,,,,,low,low,,,,,,,true,,,,,false,142200,142199.70000004768,136014.257,136179.80000007153,136030.494,142063.908,1,16,,
trial,html.Screen,4_5_0,2023-11-20T16:35:44.963Z,,,,0,1.2024083555600384,1.149077673153018,,,true,ll,3852.3920000715298,response,-1.082730232773217,1.2,-1.2,-1.2594580992890123,1.2,-1.2,low,low,,ISIC_3566243.JPG,,ISIC_0011933.JPG,,53,true,0.15000000000000002,ll,keypress(f),100,false,145916.5,145916.30000007153,142047.139,142200.10000002384,142063.908,145780.463,1,16,6,
sequence,flow.Sequence,4_5,2023-11-20T16:35:44.963Z,,,,,,,,,,,3852.3920000715298,completion,,,,,,,low,low,,,,,,,true,,,,,false,145916.60000002384,145916.30000007153,142047.139,142200,142063.908,145780.463,1,16,,
trial,html.Screen,4_6_0,2023-11-20T16:35:47.254Z,,,,0,1.1210325063849345,1.1498648320956202,,,true,ll,2427.8370000715367,response,-1.2974483548597415,1.2,-1.2,-1.34311625795084,1.2,-1.2,low,low,,ISIC_0032162.JPG,,ISIC_0011007.JPG,,53,true,0.15000000000000002,ll,keypress(f),100,false,148208.5,148208.30000007153,145764.058,145916.60000002384,145780.463,148063.813,1,16,7,
sequence,flow.Sequence,4_6,2023-11-20T16:35:47.255Z,,,,,,,,,,,2427.8370000715367,completion,,,,,,,low,low,,,,,,,true,,,,,false,148208.5,148208.30000007153,145764.058,145916.60000002384,145780.463,148063.813,1,16,,
trial,html.Screen,4_7_0,2023-11-20T16:35:49.818Z,,,,0,1.0870240111136478,1.332340670965917,,,true,ll,2708.1870000000054,response,-1.0698162624196283,1.2,-1.2,-1.219634566983089,1.2,-1.2,low,low,,ISIC_0000660.JPG,,ISIC_0030552.JPG,,53,true,0.15000000000000002,ll,keypress(f),100,false,150772.20000004768,150772,148047.21,148208.60000002384,148063.813,150630.645,1,16,8,
sequence,flow.Sequence,4_7,2023-11-20T16:35:49.818Z,,,,,,,,,,,2708.1870000000054,completion,,,,,,,low,low,,,,,,,true,,,,,false,150772.40000009537,150772,148047.21,148208.60000002384,148063.813,150630.645,1,16,,
trial,html.Screen,4_8_0,2023-11-20T16:35:58.873Z,,,,0,1.2331439637486756,-0.9691143900156988,,,true,lh,9196.35500000001,response,-1.0164576835546473,1.2,-1.2,0.8120626538423016,1.2,-1.2,low,high,,ISIC_7877488.JPG,,ISIC_6002694.JPG,,27,true,0.42000000000000026,lh,keypress(e),100,false,159827.20000004768,159827,150613.802,150772.40000009537,150630.645,159680.619,1,16,9,
sequence,flow.Sequence,4_8,2023-11-20T16:35:58.873Z,,,,,,,,,,,9196.35500000001,completion,,,,,,,low,high,,,,,,,true,,,,,false,159827.40000009537,159827,150613.802,150772.40000009537,150630.645,159680.619,1,16,,
trial,html.Screen,4_9_0,2023-11-20T16:36:06.484Z,,,,0,0.879102500583965,-1.0933081951979773,,,true,lh,7756.781000095361,response,-1.4092385398614515,1.2,-1.2,1.3046237992197836,1.2,-1.2,low,high,,ISIC_0046223.JPG,,ISIC_7254359.JPG,,27,true,0.42000000000000026,lh,keypress(e),100,false,167437.60000002384,167437.40000009537,159663.771,159827.40000009537,159680.619,167297.288,1,16,10,
sequence,flow.Sequence,4_9,2023-11-20T16:36:06.484Z,,,,,,,,,,,7756.781000095361,completion,,,,,,,low,high,,,,,,,true,,,,,false,167437.70000004768,167437.40000009537,159663.771,159827.40000009537,159680.619,167297.288,1,16,,
trial,html.Screen,4_10_0,2023-11-20T16:36:16.735Z,,,,0,0.858338058340649,-0.9540612223480284,,,true,lh,10391.012000071525,response,-0.809764442462202,1.2,-1.2,1.005337148078696,1.2,-1.2,low,high,,ISIC_8922893.JPG,,ISIC_2379379.JPG,,27,true,0.42000000000000026,lh,keypress(e),100,false,177688.40000009537,177688.30000007153,167280.441,167437.80000007153,167297.288,177547.542,1,16,11,
sequence,flow.Sequence,4_10,2023-11-20T16:36:16.735Z,,,,,,,,,,,10391.012000071525,completion,,,,,,,low,high,,,,,,,true,,,,,false,177688.60000002384,177688.30000007153,167280.441,167437.80000007153,167297.288,177547.542,1,16,,
trial,html.Screen,4_11_0,2023-11-20T16:36:19.530Z,,,,0,0.869932994914832,-0.8880533324432531,,,true,lh,2936.3580000953807,response,-1.0115965332688306,1.2,-1.2,0.8282633603842442,1.2,-1.2,low,high,,ISIC_8617084.JPG,,ISIC_1069587.JPG,,27,true,0.42000000000000026,lh,keypress(e),100,false,180484,180483.90000009537,177530.456,177688.70000004768,177547.542,180347.144,1,16,12,
sequence,flow.Sequence,4_11,2023-11-20T16:36:19.530Z,,,,,,,,,,,2936.3580000953807,completion,,,,,,,low,high,,,,,,,true,,,,,false,180484.10000002384,180483.90000009537,177530.456,177688.60000002384,177547.542,180347.144,1,16,,
trial,html.Screen,4_12_0,2023-11-20T16:36:26.437Z,,,,0,-0.991146183030456,0.9949639823722534,,,true,hl,7043.0560000476835,response,0.9433720631499012,1.2,-1.2,-1.0582071940347648,1.2,-1.2,high,low,,ISIC_6342224.JPG,,ISIC_4890201.JPG,,26,true,0.3600000000000002,hl,keypress(j),100,false,187390.5,187390.20000004768,180330.593,180484.20000004768,180347.144,187247.522,1,16,13,
sequence,flow.Sequence,4_12,2023-11-20T16:36:26.437Z,,,,,,,,,,,7043.0560000476835,completion,,,,,,,high,low,,,,,,,true,,,,,false,187390.60000002384,187390.20000004768,180330.593,180484.20000004768,180347.144,187247.522,1,16,,
trial,html.Screen,4_13_0,2023-11-20T16:36:30.130Z,,,,0,-0.9388660854518424,0.79533948698576,,,true,hl,3836.5780000238447,response,0.869932994914832,1.2,-1.2,-0.8880533324432531,1.2,-1.2,high,low,,ISIC_9291926.JPG,,ISIC_8617084.JPG,,33,true,0.42000000000000026,hl,keypress(j),100,false,191084.30000007153,191084.10000002384,187230.453,187390.60000002384,187247.522,190947.099,1,16,14,
sequence,flow.Sequence,4_13,2023-11-20T16:36:30.130Z,,,,,,,,,,,3836.5780000238447,completion,,,,,,,high,low,,,,,,,true,,,,,false,191084.40000009537,191084.10000002384,187230.453,187390.60000002384,187247.522,190947.099,1,16,,
trial,html.Screen,4_14_0,2023-11-20T16:36:37.181Z,,,,0,-0.991146183030456,0.9949639823722534,,,true,hl,7188.101000047696,response,1.4747161152848791,1.2,-1.2,-0.847048591307387,1.2,-1.2,high,low,,ISIC_6342224.JPG,,ISIC_0016092.JPG,,33,true,0.42000000000000026,hl,keypress(j),100,false,198135.40000009537,198135.20000004768,190930.586,191084.5,190947.099,197997.244,1,16,15,
sequence,flow.Sequence,4_14,2023-11-20T16:36:37.182Z,,,,,,,,,,,7188.101000047696,completion,,,,,,,high,low,,,,,,,true,,,,,false,198135.5,198135.20000004768,190930.586,191084.5,190947.099,197997.244,1,16,,
trial,html.Screen,4_15_0,2023-11-20T16:36:40.796Z,,,,0,-0.991146183030456,0.9949639823722534,,,true,hl,3752.4560000476777,response,1.0026266089287914,1.2,-1.2,-1.0913275913920335,1.2,-1.2,high,low,,ISIC_6342224.JPG,,ISIC_0033520.JPG,,33,true,0.42000000000000026,hl,keypress(j),100,false,201749.80000007153,201749.70000004768,197980.439,198135.60000002384,197997.244,201613.914,1,16,16,
sequence,flow.Sequence,4_15,2023-11-20T16:36:40.796Z,,,,,,,,,,,3752.4560000476777,completion,,,,,,,high,low,,,,,,,true,,,,,false,201750,201749.70000004768,197980.439,198135.60000002384,197997.244,201613.914,1,16,,
demonstration_loop,flow.Loop,4,2023-11-20T16:36:40.796Z,,,,,,,,,,,109435.82000004768,completion,,,,,,,,,,,,,,,true,,,,,false,201750,201749.70000004768,92297.653,92466.80000007153,92313.88,201613.914,1,16,,
practice_instructions,html.Screen,5,2023-11-20T16:36:43.784Z,,,,,,,,,,,3123.686000023852,response,,,,,,,,,,,,,,,,,continue,click button,,,204738.5,204737.60000002384,201597.099,201750,201613.914,204580.419,,,,
trial,html.Screen,6_0_0,2023-11-20T16:36:51.745Z,,,,1,-1.242586748440878,-1.1207933200172129,,,true,hh,8113.281000047689,response,1.2724584600905462,1.2,-1.2,1.1411016103695344,1.2,-1.2,high,high,,ISIC_0013073.JPG,,ISIC_0059625.JPG,,26,true,0.15000000000000002,hh,keypress(i),0,false,212699.40000009537,212693.70000004768,204563.915,204738.5,204580.419,212547.008,1,40,1,
sequence,flow.Sequence,6_0,2023-11-20T16:36:51.746Z,,,,,,,,,,,8113.281000047689,completion,,,,,,,high,high,,,,,,,true,,,,,false,212699.5,212693.70000004768,204563.915,204738.5,204580.419,212547.008,1,40,,
trial,html.Screen,6_1_0,2023-11-20T16:37:05.066Z,,,,1,0.869932994914832,-0.8880533324432531,,,false,lh,13472.392000095366,response,-0.8035152873995188,1.2,-1.2,0.82868450251632,1.2,-1.2,low,high,,ISIC_8617084.JPG,,ISIC_0010671.JPG,,27,true,0.42000000000000026,hl,keypress(j),0,false,226019.5,226019.40000009537,212530.376,212699.5,212547.008,225863.699,1,40,2,
sequence,flow.Sequence,6_1,2023-11-20T16:37:05.066Z,,,,,,,,,,,13472.392000095366,completion,,,,,,,low,high,,,,,,,true,,,,,false,226019.5,226019.40000009537,212530.376,212699.5,212547.008,225863.699,1,40,,
trial,html.Screen,6_2_0,2023-11-20T16:37:20.935Z,,,,1,-1.276222161935671,0.9657780821973284,,,,,15866.722999999998,timeout,1.0751036484083878,1.2,-1.2,-1.143906455483852,1.2,-1.2,high,low,,ISIC_6710411.JPG,,ISIC_0064406.JPG,,26,true,0.3600000000000002,,,0,false,241888.80000007153,241888.60000002384,225846.621,226019.60000002384,225863.699,241730.422,1,40,3,
sequence,flow.Sequence,6_2,2023-11-20T16:37:20.935Z,,,,,,,,,,,16024.901000023849,completion,,,,,,,high,low,,,,,,,true,,,,,false,241888.80000007153,241888.60000002384,225846.621,226019.60000002384,225863.699,241730.422,1,40,,
trial,html.Screen,6_3_0,2023-11-20T16:37:29.146Z,,,,1,-1.2071341803968807,-1.235960269089932,,,true,hh,8368.878000071534,response,1.048330701104555,1.2,-1.2,0.8086625502956353,1.2,-1.2,high,high,,ISIC_0058174.JPG,,ISIC_0030508.JPG,,253,true,0.42000000000000026,hh,keypress(i),0,false,250099.5,250099.30000007153,241714.134,241888.80000007153,241730.422,249947.002,1,40,4,
sequence,flow.Sequence,6_3,2023-11-20T16:37:29.146Z,,,,,,,,,,,8368.878000071534,completion,,,,,,,high,high,,,,,,,true,,,,,false,250099.60000002384,250099.30000007153,241714.134,241888.80000007153,241730.422,249947.002,1,40,,
trial,html.Screen,6_4_0,2023-11-20T16:37:35.594Z,,,,1,-0.7833710010171356,0.9315588090336896,,,false,hl,6600.298000071518,response,0.869932994914832,1.2,-1.2,-0.8880533324432531,1.2,-1.2,high,low,,ISIC_3826102.JPG,,ISIC_8617084.JPG,,26,true,0.3600000000000002,lh,keypress(e),0,false,256547.40000009537,256547.30000007153,249930.08,250099.60000002384,249947.002,256397.041,1,40,5,
sequence,flow.Sequence,6_4,2023-11-20T16:37:35.594Z,,,,,,,,,,,6600.298000071518,completion,,,,,,,high,low,,,,,,,true,,,,,false,256547.60000002384,256547.30000007153,249930.08,250099.60000002384,249947.002,256397.041,1,40,,
trial,html.Screen,6_5_0,2023-11-20T16:37:41.497Z,,,,1,1.2012395086389958,1.0618985767073823,,,true,ll,6053.959000000003,response,-1.4243540001408843,1.2,-1.2,-1.1063213242357228,1.2,-1.2,low,low,,ISIC_9876004.JPG,,ISIC_0028567.JPG,,339,true,0.42000000000000026,ll,keypress(f),0,false,262451.10000002384,262451,256380.375,256547.60000002384,256397.041,262297.168,1,40,6,
sequence,flow.Sequence,6_5,2023-11-20T16:37:41.497Z,,,,,,,,,,,6053.959000000003,completion,,,,,,,low,low,,,,,,,true,,,,,false,262451.3000000715,262451,256380.375,256547.60000002384,256397.041,262297.168,1,40,,
trial,html.Screen,6_6_0,2023-11-20T16:37:45.386Z,,,,1,-1.101214461533281,-1.1849883512428183,,,true,hh,4042.0320000476786,response,1.1653123206802332,1.2,-1.2,1.2976858999596654,1.2,-1.2,high,high,,ISIC_0064943.JPG,,ISIC_0071508.JPG,,26,true,0.15000000000000002,hh,keypress(i),0,false,266339.3000000715,266339.2000000477,262280.378,262451.3000000715,262297.168,266180.311,1,40,7,
sequence,flow.Sequence,6_6,2023-11-20T16:37:45.386Z,,,,,,,,,,,4042.0320000476786,completion,,,,,,,high,high,,,,,,,true,,,,,false,266339.5,266339.2000000477,262280.378,262451.3000000715,262297.168,266180.311,1,40,,
trial,html.Screen,6_7_0,2023-11-20T16:37:51.402Z,,,,1,1.2331439637486756,-0.9691143900156988,,,false,lh,6174.989000071539,response,-0.796241477082623,1.2,-1.2,0.9017449335975743,1.2,-1.2,low,high,,ISIC_7877488.JPG,,ISIC_8588033.JPG,,27,true,0.42000000000000026,ll,keypress(f),0,false,272355.3000000715,272355.3000000715,266163.727,266339.5,266180.311,272196.947,1,40,8,
sequence,flow.Sequence,6_7,2023-11-20T16:37:51.402Z,,,,,,,,,,,6174.989000071539,completion,,,,,,,low,high,,,,,,,true,,,,,false,272355.40000009537,272355.3000000715,266163.727,266339.5,266180.311,272196.947,1,40,,
trial,html.Screen,6_8_0,2023-11-20T16:37:57.146Z,,,,1,1.2503149164557643,1.0796591227570405,,,true,ll,5902.253000047698,response,-1.2322060291690602,1.2,-1.2,-1.2686491386389651,1.2,-1.2,low,low,,ISIC_2466892.JPG,,ISIC_0011697.JPG,,245,true,0.3600000000000002,ll,keypress(f),0,false,278099.3000000715,278099.2000000477,272180.394,272355.40000009537,272196.947,277946.973,1,40,9,
sequence,flow.Sequence,6_8,2023-11-20T16:37:57.146Z,,,,,,,,,,,5902.253000047698,completion,,,,,,,low,low,,,,,,,true,,,,,false,278099.40000009537,278099.2000000477,272180.394,272355.40000009537,272196.947,277946.973,1,40,,
trial,html.Screen,6_9_0,2023-11-20T16:38:07.673Z,,,,1,1.2331439637486756,-0.9691143900156988,,,true,lh,10679.627000023844,response,-1.0264463986917702,1.2,-1.2,1.2804054832904397,1.2,-1.2,low,high,,ISIC_7877488.JPG,,ISIC_7889838.JPG,,27,true,0.42000000000000026,lh,keypress(e),0,false,288626.7000000477,288626.60000002384,277930.39,278099.40000009537,277946.973,288463.621,1,40,10,
sequence,flow.Sequence,6_9,2023-11-20T16:38:07.673Z,,,,,,,,,,,10679.627000023844,completion,,,,,,,low,high,,,,,,,true,,,,,false,288626.8000000715,288626.60000002384,277930.39,278099.40000009537,277946.973,288463.621,1,40,,
trial,html.Screen,6_10_0,2023-11-20T16:38:16.297Z,,,,1,-1.2169050727663315,-1.1067845563421794,,,true,hh,8787.079000047699,response,0.8689515664606163,1.2,-1.2,1.0538817435713148,1.2,-1.2,high,high,,ISIC_7016261.JPG,,ISIC_7333928.JPG,,179,true,0.3600000000000002,hh,keypress(i),0,false,297250.8000000715,297250.7000000477,288446.858,288626.8000000715,288463.621,297097.038,1,40,11,
sequence,flow.Sequence,6_10,2023-11-20T16:38:16.297Z,,,,,,,,,,,8787.079000047699,completion,,,,,,,high,high,,,,,,,true,,,,,false,297250.90000009537,297250.7000000477,288446.858,288626.8000000715,288463.621,297097.038,1,40,,
trial,html.Screen,6_11_0,2023-11-20T16:38:21.002Z,,,,1,1.1210325063849345,1.1498648320956202,,,true,ll,4858.162000047683,response,-1.1033977063872138,1.2,-1.2,-1.2513071571733083,1.2,-1.2,low,low,,ISIC_0032162.JPG,,ISIC_0025472.JPG,,30,true,0.1,ll,keypress(f),0,false,301955.3000000715,301955.2000000477,297079.972,297250.90000009537,297097.038,301796.956,1,40,12,
sequence,flow.Sequence,6_11,2023-11-20T16:38:21.002Z,,,,,,,,,,,4858.162000047683,completion,,,,,,,low,low,,,,,,,true,,,,,false,301955.40000009537,301955.2000000477,297079.972,297250.90000009537,297097.038,301796.956,1,40,,
trial,html.Screen,6_12_0,2023-11-20T16:38:23.290Z,,,,1,1.0858641668099058,1.1638942560200525,,,true,ll,2446.244000047678,response,-1.2618585285282764,1.2,-1.2,-1.0804044917288194,1.2,-1.2,low,low,,ISIC_5439597.JPG,,ISIC_0011691.JPG,,53,true,0.15000000000000002,ll,keypress(f),0,false,304243.3000000715,304243.2000000477,301780.29,301955.5,301796.956,304080.25,1,40,13,
sequence,flow.Sequence,6_12,2023-11-20T16:38:23.290Z,,,,,,,,,,,2446.244000047678,completion,,,,,,,low,low,,,,,,,true,,,,,false,304243.40000009537,304243.2000000477,301780.29,301955.5,301796.956,304080.25,1,40,,
trial,html.Screen,6_13_0,2023-11-20T16:38:25.560Z,,,,1,0.8487429103619056,-0.9778257804233036,,,true,lh,2433.5500000715256,response,-0.7911024675435955,1.2,-1.2,0.7975977016137676,1.2,-1.2,low,high,,ISIC_4554863.JPG,,ISIC_5813642.JPG,,27,true,0.42000000000000026,lh,keypress(e),0,false,306514.10000002384,306513.8000000715,304063.747,304243.5,304080.25,306363.688,1,40,14,
sequence,flow.Sequence,6_13,2023-11-20T16:38:25.560Z,,,,,,,,,,,2433.5500000715256,completion,,,,,,,low,high,,,,,,,true,,,,,false,306514.2000000477,306513.8000000715,304063.747,304243.5,304080.25,306363.688,1,40,,
trial,html.Screen,6_14_0,2023-11-20T16:38:27.482Z,,,,1,1.1181734135756094,-0.944560381774994,,,true,lh,2071.51200004766,response,-0.7911024675435955,1.2,-1.2,0.7975977016137676,1.2,-1.2,low,high,,ISIC_9688534.JPG,,ISIC_5813642.JPG,,27,true,0.42000000000000026,lh,keypress(e),0,false,308435.40000009537,308435.2000000477,306347.178,306514.3000000715,306363.688,308280.31,1,40,15,
sequence,flow.Sequence,6_14,2023-11-20T16:38:27.482Z,,,,,,,,,,,2071.51200004766,completion,,,,,,,low,high,,,,,,,true,,,,,false,308435.5,308435.2000000477,306347.178,306514.3000000715,306363.688,308280.31,1,40,,
trial,html.Screen,6_15_0,2023-11-20T16:38:31.801Z,,,,1,-0.796241477082623,0.9017449335975743,,,true,hl,4474.290000023844,response,1.2075172235545184,1.2,-1.2,-0.9116724966267612,1.2,-1.2,high,low,,ISIC_8588033.JPG,,ISIC_0024235.JPG,,26,true,0.3600000000000002,hl,keypress(j),0,false,312754.7000000477,312754.60000002384,308263.722,308435.60000002384,308280.31,312596.921,1,40,16,
sequence,flow.Sequence,6_15,2023-11-20T16:38:31.801Z,,,,,,,,,,,4474.290000023844,completion,,,,,,,high,low,,,,,,,true,,,,,false,312754.8000000715,312754.60000002384,308263.722,308435.60000002384,308280.31,312596.921,1,40,,
trial,html.Screen,6_16_0,2023-11-20T16:38:33.754Z,,,,1,-0.8035152873995188,0.82868450251632,,,true,hl,2110.2790000477107,response,1.0751036484083878,1.2,-1.2,-1.143906455483852,1.2,-1.2,high,low,,ISIC_0010671.JPG,,ISIC_0064406.JPG,,33,true,0.42000000000000026,hl,keypress(j),0,false,314707.40000009537,314707.2000000477,312580.383,312754.8000000715,312596.921,314546.999,1,40,17,
sequence,flow.Sequence,6_16,2023-11-20T16:38:33.754Z,,,,,,,,,,,2110.2790000477107,completion,,,,,,,high,low,,,,,,,true,,,,,false,314707.40000009537,314707.2000000477,312580.383,312754.8000000715,312596.921,314546.999,1,40,,
trial,html.Screen,6_17_0,2023-11-20T16:38:35.449Z,,,,1,-1.1033977063872138,-1.2513071571733083,,,true,hh,1855.6010000238311,response,1.0870240111136478,1.2,-1.2,1.332340670965917,1.2,-1.2,high,high,,ISIC_0025472.JPG,,ISIC_0000660.JPG,,253,true,0.42000000000000026,hh,keypress(i),0,false,316402.7000000477,316402.60000002384,314530.209,314707.5,314546.999,316246.921,1,40,18,
sequence,flow.Sequence,6_17,2023-11-20T16:38:35.449Z,,,,,,,,,,,1855.6010000238311,completion,,,,,,,high,high,,,,,,,true,,,,,false,316402.8000000715,316402.60000002384,314530.209,314707.5,314546.999,316246.921,1,40,,
trial,html.Screen,6_18_0,2023-11-20T16:38:36.634Z,,,,1,1.011737552725394,-0.8500530224490773,,,true,lh,1340.4790000953944,response,-0.8623414234919863,1.2,-1.2,0.782830143980698,1.2,-1.2,low,high,,ISIC_2998367.JPG,,ISIC_2727016.JPG,,27,true,0.42000000000000026,lh,keypress(e),0,false,317587.5,317587.40000009537,316230.511,316402.8000000715,316246.921,317430.245,1,40,19,
sequence,flow.Sequence,6_18,2023-11-20T16:38:36.634Z,,,,,,,,,,,1340.4790000953944,completion,,,,,,,low,high,,,,,,,true,,,,,false,317587.60000002384,317587.40000009537,316230.511,316402.8000000715,316246.921,317430.245,1,40,,
trial,html.Screen,6_19_0,2023-11-20T16:38:39.098Z,,,,1,-0.9388660854518424,0.79533948698576,,,true,hl,2620.9550000476884,response,0.8579451262594331,1.2,-1.2,-0.9633172970727744,1.2,-1.2,high,low,,ISIC_9291926.JPG,,ISIC_0067172.JPG,,26,true,0.3600000000000002,hl,keypress(j),0,false,320051.3000000715,320051.2000000477,317413.75,317587.60000002384,317430.245,319896.948,1,40,20,
sequence,flow.Sequence,6_19,2023-11-20T16:38:39.098Z,,,,,,,,,,,2620.9550000476884,completion,,,,,,,high,low,,,,,,,true,,,,,false,320051.40000009537,320051.2000000477,317413.75,317587.60000002384,317430.245,319896.948,1,40,,
trial,html.Screen,6_20_0,2023-11-20T16:38:42.202Z,,,,1,-0.948927472020595,1.0660437155921598,,,true,hl,3258.152000023867,response,0.8487429103619056,1.2,-1.2,-0.9778257804233036,1.2,-1.2,high,low,,ISIC_5808758.JPG,,ISIC_4554863.JPG,,33,true,0.42000000000000026,hl,keypress(j),0,false,323155.2000000477,323155.10000002384,319880.336,320051.40000009537,319896.948,322997.007,1,40,21,
sequence,flow.Sequence,6_20,2023-11-20T16:38:42.202Z,,,,,,,,,,,3258.152000023867,completion,,,,,,,high,low,,,,,,,true,,,,,false,323155.40000009537,323155.10000002384,319880.336,320051.40000009537,319896.948,322997.007,1,40,,
trial,html.Screen,6_21_0,2023-11-20T16:38:44.329Z,,,,1,1.3411179702686655,1.255103311449152,,,true,ll,2285.893000095384,response,-1.3114122234470091,1.2,-1.2,-0.9157868672217788,1.2,-1.2,low,low,,ISIC_5611010.JPG,,ISIC_6176182.JPG,,339,true,0.42000000000000026,ll,keypress(f),0,false,325283,325282.90000009537,322980.443,323155.40000009537,322997.007,325130.237,1,40,22,
sequence,flow.Sequence,6_21,2023-11-20T16:38:44.329Z,,,,,,,,,,,2285.893000095384,completion,,,,,,,low,low,,,,,,,true,,,,,false,325283.2000000477,325282.90000009537,322980.443,323155.40000009537,322997.007,325130.237,1,40,,
trial,html.Screen,6_22_0,2023-11-20T16:38:46.009Z,,,,1,-0.8655167308525522,0.9298580423306444,,,true,hl,1832.7629999999772,response,1.011737552725394,1.2,-1.2,-0.8500530224490773,1.2,-1.2,high,low,,ISIC_4603706.JPG,,ISIC_2998367.JPG,,26,true,0.3600000000000002,hl,keypress(j),0,false,326963.10000002384,326963,325113.588,325283.2000000477,325130.237,326814.019,1,40,23,
sequence,flow.Sequence,6_22,2023-11-20T16:38:46.009Z,,,,,,,,,,,1832.7629999999772,completion,,,,,,,high,low,,,,,,,true,,,,,false,326963.2000000477,326963,325113.588,325283.2000000477,325130.237,326814.019,1,40,,
trial,html.Screen,6_23_0,2023-11-20T16:38:47.433Z,,,,1,0.9696118525781644,-0.9244148283103414,,,true,lh,1572.5810000238707,response,-1.0022829373011404,1.2,-1.2,0.8311726972863814,1.2,-1.2,low,high,,ISIC_7927525.JPG,,ISIC_0033287.JPG,,27,true,0.42000000000000026,lh,keypress(e),0,false,328386.60000002384,328386.60000002384,326796.921,326963.2000000477,326814.019,328230.422,1,40,24,
sequence,flow.Sequence,6_23,2023-11-20T16:38:47.433Z,,,,,,,,,,,1572.5810000238707,completion,,,,,,,low,high,,,,,,,true,,,,,false,328386.7000000477,328386.60000002384,326796.921,326963.2000000477,326814.019,328230.422,1,40,,
trial,html.Screen,6_24_0,2023-11-20T16:38:48.777Z,,,,1,1.2503149164557643,1.0796591227570405,,,true,ll,1500.6780000238214,response,-1.3829859918989194,1.2,-1.2,-1.2030355493299076,1.2,-1.2,low,low,,ISIC_2466892.JPG,,ISIC_0058022.JPG,,245,true,0.3600000000000002,ll,keypress(f),0,false,329731.10000002384,329731.10000002384,328214.009,328386.8000000715,328230.422,329580.468,1,40,25,
sequence,flow.Sequence,6_24,2023-11-20T16:38:48.778Z,,,,,,,,,,,1500.6780000238214,completion,,,,,,,low,low,,,,,,,true,,,,,false,329731.2000000477,329731.10000002384,328214.009,328386.8000000715,328230.422,329580.468,1,40,,
trial,html.Screen,6_25_0,2023-11-20T16:38:50.010Z,,,,1,-1.1033977063872138,-1.2513071571733083,,,true,hh,1382.6320000238484,response,1.1388430156686884,1.2,-1.2,1.2700552354887775,1.2,-1.2,high,high,,ISIC_0025472.JPG,,ISIC_9939653.JPG,,26,true,0.15000000000000002,hh,keypress(i),0,false,330963.3000000715,330963.10000002384,329563.829,329731.3000000715,329580.468,330813.605,1,40,26,
sequence,flow.Sequence,6_25,2023-11-20T16:38:50.010Z,,,,,,,,,,,1382.6320000238484,completion,,,,,,,high,high,,,,,,,true,,,,,false,330963.40000009537,330963.10000002384,329563.829,329731.3000000715,329580.468,330813.605,1,40,,
trial,html.Screen,6_26_0,2023-11-20T16:38:51.337Z,,,,1,-1.4092385398614515,1.3046237992197836,,,true,hl,1477.3950000000186,response,0.858338058340649,1.2,-1.2,-0.9540612223480284,1.2,-1.2,high,low,,ISIC_7254359.JPG,,ISIC_8922893.JPG,,26,true,0.3600000000000002,hl,keypress(j),0,false,332291.10000002384,332291,330796.963,330963.40000009537,330813.605,332130.25,1,40,27,
sequence,flow.Sequence,6_26,2023-11-20T16:38:51.337Z,,,,,,,,,,,1477.3950000000186,completion,,,,,,,high,low,,,,,,,true,,,,,false,332291.10000002384,332291,330796.963,330963.40000009537,330813.605,332130.25,1,40,,
trial,html.Screen,6_27_0,2023-11-20T16:38:54.922Z,,,,1,1.1653123206802332,1.2976858999596654,,,true,ll,3744.9500000476837,response,-1.0644984649911948,1.2,-1.2,-0.8053137102379775,1.2,-1.2,low,low,,ISIC_0071508.JPG,,ISIC_2007396.JPG,,339,true,0.42000000000000026,ll,keypress(f),0,false,335875.3000000715,335875.2000000477,332113.831,332291.3000000715,332130.25,335713.546,1,40,28,
sequence,flow.Sequence,6_27,2023-11-20T16:38:54.922Z,,,,,,,,,,,3744.9500000476837,completion,,,,,,,low,low,,,,,,,true,,,,,false,335875.40000009537,335875.2000000477,332113.831,332291.2000000477,332130.25,335713.546,1,40,,
trial,html.Screen,6_28_0,2023-11-20T16:38:56.729Z,,,,1,-1.2181031651370575,-1.2158573487067317,,,true,hh,1969.3540000953944,response,1.201100953917304,1.2,-1.2,1.1751492358160105,1.2,-1.2,high,high,,ISIC_7242312.JPG,,ISIC_0647224.JPG,,26,true,0.15000000000000002,hh,keypress(i),0,false,337683,337682.90000009537,335697.076,335875.5,335713.546,337530.188,1,40,29,
sequence,flow.Sequence,6_28,2023-11-20T16:38:56.729Z,,,,,,,,,,,1969.3540000953944,completion,,,,,,,high,high,,,,,,,true,,,,,false,337683,337682.90000009537,335697.076,335875.5,335713.546,337530.188,1,40,,
trial,html.Screen,6_29_0,2023-11-20T16:38:57.833Z,,,,1,1.020990671779317,-1.0116513850520903,,,true,lh,1256.6120000715018,response,-0.8655167308525522,1.2,-1.2,0.9298580423306444,1.2,-1.2,low,high,,ISIC_0011995.JPG,,ISIC_4603706.JPG,,27,true,0.42000000000000026,lh,keypress(e),0,false,338787,338786.8000000715,337514.002,337683.10000002384,337530.188,338630.325,1,40,30,
sequence,flow.Sequence,6_29,2023-11-20T16:38:57.833Z,,,,,,,,,,,1256.6120000715018,completion,,,,,,,low,high,,,,,,,true,,,,,false,338787.10000002384,338786.8000000715,337514.002,337683,337530.188,338630.325,1,40,,
trial,html.Screen,6_30_0,2023-11-20T16:38:59.241Z,,,,1,1.2706447584800626,1.0903308007916603,,,true,ll,1564.7750000238302,response,-0.8797187572470211,1.2,-1.2,-1.3078927932538844,1.2,-1.2,low,low,,ISIC_9425937.JPG,,ISIC_0010235.JPG,,245,true,0.3600000000000002,ll,keypress(f),0,false,340195.2000000477,340195.10000002384,338613.83,338787.2000000477,338630.325,340047.112,1,40,31,
sequence,flow.Sequence,6_30,2023-11-20T16:38:59.242Z,,,,,,,,,,,1564.7750000238302,completion,,,,,,,low,low,,,,,,,true,,,,,false,340195.2000000477,340195.10000002384,338613.83,338787.2000000477,338630.325,340047.112,1,40,,
trial,html.Screen,6_31_0,2023-11-20T16:39:00.921Z,,,,1,1.2024083555600384,1.149077673153018,,,true,ll,1827.8879999999772,response,-1.2974483548597415,1.2,-1.2,-1.34311625795084,1.2,-1.2,low,low,,ISIC_3566243.JPG,,ISIC_0011007.JPG,,53,true,0.15000000000000002,ll,keypress(f),0,false,341875.2000000477,341875,340030.481,340195.3000000715,340047.112,341713.519,1,40,32,
sequence,flow.Sequence,6_31,2023-11-20T16:39:00.921Z,,,,,,,,,,,1827.8879999999772,completion,,,,,,,low,low,,,,,,,true,,,,,false,341875.2000000477,341875,340030.481,340195.3000000715,340047.112,341713.519,1,40,,
trial,html.Screen,6_32_0,2023-11-20T16:39:16.909Z,,,,1,-0.8200962008791046,0.7936051642828523,,,,,16016.865000000049,timeout,1.0143509683988825,1.2,-1.2,-1.3163955902021656,1.2,-1.2,high,low,,ISIC_0027031.JPG,,ISIC_0062031.JPG,,26,true,0.3600000000000002,,,0,false,357862.3000000715,357862.2000000477,341697.135,341875.2000000477,341713.519,357730.384,1,40,33,
sequence,flow.Sequence,6_32,2023-11-20T16:39:16.909Z,,,,,,,,,,,16148.681000047713,completion,,,,,,,high,low,,,,,,,true,,,,,false,357862.3000000715,357862.2000000477,341697.135,341875.2000000477,341713.519,357730.384,1,40,,
trial,html.Screen,6_33_0,2023-11-20T16:39:22.617Z,,,,1,-1.2915523362516486,-1.1264977790562936,,,true,hh,5840.016000095347,response,0.9463574451861866,1.2,-1.2,1.33861142060187,1.2,-1.2,high,high,,ISIC_0502582.JPG,,ISIC_5049365.JPG,,253,true,0.42000000000000026,hh,keypress(i),0,false,363570.5,363570.40000009537,357713.813,357862.40000009537,357730.384,363413.502,1,40,34,
sequence,flow.Sequence,6_33,2023-11-20T16:39:22.617Z,,,,,,,,,,,5840.016000095347,completion,,,,,,,high,high,,,,,,,true,,,,,false,363570.7000000477,363570.40000009537,357713.813,357862.40000009537,357730.384,363413.502,1,40,,
trial,html.Screen,6_34_0,2023-11-20T16:39:25.945Z,,,,1,0.9433720631499012,-1.0582071940347648,,,true,lh,3484.5980000238633,response,-0.8623414234919863,1.2,-1.2,0.782830143980698,1.2,-1.2,low,high,,ISIC_4890201.JPG,,ISIC_2727016.JPG,,27,true,0.42000000000000026,lh,keypress(e),0,false,366898.2000000477,366898.10000002384,363396.982,363570.7000000477,363413.502,366746.851,1,40,35,
sequence,flow.Sequence,6_34,2023-11-20T16:39:25.945Z,,,,,,,,,,,3484.5980000238633,completion,,,,,,,low,high,,,,,,,true,,,,,false,366898.3000000715,366898.10000002384,363396.982,363570.7000000477,363413.502,366746.851,1,40,,
trial,html.Screen,6_35_0,2023-11-20T16:39:29.145Z,,,,1,-1.2071341803968807,-1.235960269089932,,,true,hh,3352.148999999976,response,0.878837306607763,1.2,-1.2,0.9806817794837708,1.2,-1.2,high,high,,ISIC_0058174.JPG,,ISIC_6250970.JPG,,179,true,0.3600000000000002,hh,keypress(i),0,false,370099.10000002384,370099,366730.096,366898.40000009537,366746.851,369947.035,1,40,36,
sequence,flow.Sequence,6_35,2023-11-20T16:39:29.145Z,,,,,,,,,,,3352.148999999976,completion,,,,,,,high,high,,,,,,,true,,,,,false,370099.10000002384,370099,366730.096,366898.40000009537,366746.851,369947.035,1,40,,
trial,html.Screen,6_36_0,2023-11-20T16:39:31.754Z,,,,1,-1.272699544571422,-1.12917997553565,,,true,hh,2760.1650000477093,response,1.1137763092539212,1.2,-1.2,1.1599906701455132,1.2,-1.2,high,high,,ISIC_0012057.JPG,,ISIC_5413788.JPG,,26,true,0.15000000000000002,hh,keypress(i),0,false,372707.3000000715,372707.2000000477,369930.382,370099.10000002384,369947.035,372546.847,1,40,37,
sequence,flow.Sequence,6_36,2023-11-20T16:39:31.754Z,,,,,,,,,,,2760.1650000477093,completion,,,,,,,high,high,,,,,,,true,,,,,false,372707.40000009537,372707.2000000477,369930.382,370099.10000002384,369947.035,372546.847,1,40,,
trial,html.Screen,6_37_0,2023-11-20T16:39:34.169Z,,,,1,-0.7833710010171356,0.9315588090336896,,,true,hl,2575.853000047675,response,1.0865333402803938,1.2,-1.2,-1.0542635307358266,1.2,-1.2,high,low,,ISIC_3826102.JPG,,ISIC_0034006.JPG,,26,true,0.3600000000000002,hl,keypress(j),0,false,375122.8000000715,375122.7000000477,372530.399,372707.40000009537,372546.847,374963.621,1,40,38,
sequence,flow.Sequence,6_37,2023-11-20T16:39:34.169Z,,,,,,,,,,,2575.853000047675,completion,,,,,,,high,low,,,,,,,true,,,,,false,375122.90000009537,375122.7000000477,372530.399,372707.40000009537,372546.847,374963.621,1,40,,
trial,html.Screen,6_38_0,2023-11-20T16:39:35.722Z,,,,1,1.1642596483638106,1.109799097093339,,,true,ll,1711.4790000238572,response,-1.4645781283163042,1.2,-1.2,-0.9682677628288195,1.2,-1.2,low,low,,ISIC_0765584.JPG,,ISIC_0011505.JPG,,339,true,0.42000000000000026,ll,keypress(f),0,false,376675.2000000477,376675.10000002384,374946.822,375123,374963.621,376513.486,1,40,39,
sequence,flow.Sequence,6_38,2023-11-20T16:39:35.722Z,,,,,,,,,,,1711.4790000238572,completion,,,,,,,low,low,,,,,,,true,,,,,false,376675.3000000715,376675.10000002384,374946.822,375122.90000009537,374963.621,376513.486,1,40,,
trial,html.Screen,6_39_0,2023-11-20T16:39:40.234Z,,,,1,0.8809306963311293,-0.8614910030038974,,,true,lh,4673.6140000238665,response,-0.7833710010171356,1.2,-1.2,0.9315588090336896,1.2,-1.2,low,high,,ISIC_0013731.JPG,,ISIC_3826102.JPG,,27,true,0.42000000000000026,lh,keypress(e),0,false,381187.10000002384,381187.10000002384,376497.303,376675.3000000715,376513.486,381030.357,1,40,40,
sequence,flow.Sequence,6_39,2023-11-20T16:39:40.234Z,,,,,,,,,,,4673.6140000238665,completion,,,,,,,low,high,,,,,,,true,,,,,false,381187.3000000715,381187.10000002384,376497.303,376675.3000000715,376513.486,381030.357,1,40,,
practice_loop,flow.Loop,6,2023-11-20T16:39:40.234Z,,,,,,,,,,,176606.68100002385,completion,,,,,,,,,,,,,,,true,,,,,false,381187.40000009537,381187.10000002384,204563.915,204738.5,204580.419,381030.357,1,40,,
stair_instructions,html.Screen,7,2023-11-20T16:39:59.424Z,,,,,,,,,,,19347.04300009535,response,,,,,,,,,,,,,,,,,continue,click button,,,400378.2000000477,400377.40000009537,381013.663,381187.40000009537,381030.357,400230.671,,,,
trial,html.Screen,8_0_0,2023-11-20T16:40:11.964Z,,,,2,0.0112310719058792,-0.0469047359904117,,0.05,false,lh,12686.829000000027,response,-0.8947611078712571,1.2,-1.2,0.8960964505004638,1.2,-1.2,low,high,,ISIC_0068184.JPG,,ISIC_6441128.JPG,33,27,false,0.42000000000000026,hl,keypress(j),0,true,412917.60000002384,412917.5,400196.944,400378.3000000715,400230.671,412780.35,1,40,1,
sequence,flow.Sequence,8_0,2023-11-20T16:40:11.964Z,,,,,,,,,,,12686.829000000027,completion,,,,,,,low,high,,,,,,,false,,,,,true,412917.7000000477,412917.5,400196.944,400378.3000000715,400230.671,412780.35,1,40,,
trial,html.Screen,8_1_0,2023-11-20T16:40:17.738Z,,,,2,-0.0363437082783146,-0.0333332186217051,,0.05,true,hh,5910.850000047707,response,1.201100953917304,1.15,-1.2,1.1751492358160105,1.2,-1.15,high,high,,ISIC_3314555.JPG,,ISIC_0647224.JPG,33,27,false,0.14,hh,keypress(i),0,true,418691.3000000715,418691.2000000477,412763.489,412917.8000000715,412780.35,418530.132,1,40,2,
sequence,flow.Sequence,8_1,2023-11-20T16:40:17.738Z,,,,,,,,,,,5910.850000047707,completion,,,,,,,high,high,,,,,,,false,,,,,true,418691.40000009537,418691.2000000477,412763.489,412917.8000000715,412780.35,418530.132,1,40,,
trial,html.Screen,8_2_0,2023-11-20T16:40:23.305Z,,,,2,-0.007397293189458,-0.0174716772037504,,0.05,false,lh,5728.668000071542,response,-0.991146183030456,1.15,-1.15,0.9949639823722534,1.15,-1.15,low,high,,ISIC_0056226.JPG,,ISIC_6342224.JPG,33,27,false,0.3700000000000002,ll,keypress(f),0,true,424258.90000009537,424258.8000000715,418513.473,418691.5,418530.132,424096.795,1,40,3,
sequence,flow.Sequence,8_2,2023-11-20T16:40:23.305Z,,,,,,,,,,,5728.668000071542,completion,,,,,,,low,high,,,,,,,false,,,,,true,424259,424258.8000000715,418513.473,418691.5,418530.132,424096.795,1,40,,
trial,html.Screen,8_3_0,2023-11-20T16:40:27.644Z,,,,2,0.013431314305098,-0.0140597582944232,,0.05,true,hh,4500.305000023858,response,1.0959058628476686,1.15,-1.15,1.1684835186766898,1.15,-1.15,high,high,,ISIC_0069617.JPG,,ISIC_5920470.JPG,33,30,false,0.13,hh,keypress(i),0,true,428597.2000000477,428597.10000002384,424079.945,424259,424096.795,428446.89,1,40,4,
sequence,flow.Sequence,8_3,2023-11-20T16:40:27.644Z,,,,,,,,,,,4500.305000023858,completion,,,,,,,high,high,,,,,,,false,,,,,true,428597.40000009537,428597.10000002384,424079.945,424259,424096.795,428446.89,1,40,,
trial,html.Screen,8_4_0,2023-11-20T16:40:32.456Z,,,,2,-0.0329095507339554,0.0382899749693245,,0.05,false,hl,4963.0100000953535,response,1.0751036484083878,1.0821946907621791,-1.15,-1.143906455483852,1.15,-1.15,high,low,,ISIC_8812781.JPG,,ISIC_0064406.JPG,33,27,false,0.30000000000000016,hh,keypress(i),0,true,433410.10000002384,433409.90000009537,428430.279,428597.40000009537,428446.89,433246.74,1,40,5,
sequence,flow.Sequence,8_4,2023-11-20T16:40:32.457Z,,,,,,,,,,,4963.0100000953535,completion,,,,,,,high,low,,,,,,,false,,,,,true,433410.2000000477,433409.90000009537,428430.279,428597.40000009537,428446.89,433246.74,1,40,,
trial,html.Screen,8_5_0,2023-11-20T16:40:38.490Z,,,,2,-0.039728379742806,0.0228701131373768,,0.05,false,hh,6196.260000000009,response,0.96885674750163,1.0821946907621791,-1.15,1.153255258098753,1.15,-1.15,high,high,,ISIC_0054073.JPG,,ISIC_5722914.JPG,33,31,false,0.13,lh,keypress(e),0,true,439443.10000002384,439443,433230.212,433410.3000000715,433246.74,439280.106,1,40,6,
sequence,flow.Sequence,8_5,2023-11-20T16:40:38.490Z,,,,,,,,,,,6196.260000000009,completion,,,,,,,high,high,,,,,,,false,,,,,true,439443.2000000477,439443,433230.212,433410.3000000715,433246.74,439280.106,1,40,,
trial,html.Screen,8_6_0,2023-11-20T16:40:47.338Z,,,,2,0.0112310719058792,-0.0469047359904117,,0.05,true,hl,9011.094000047655,response,0.9454713230140772,1.1321946907621792,-1.15,-0.9245167441969216,1.0641794532535702,-1.15,high,low,,ISIC_0068184.JPG,,ISIC_9101055.JPG,33,25,false,0.30000000000000016,hl,keypress(j),0,true,448291.3000000715,448291.2000000477,439263.506,439443.3000000715,439280.106,448130.071,1,40,7,
sequence,flow.Sequence,8_6,2023-11-20T16:40:47.338Z,,,,,,,,,,,9011.094000047655,completion,,,,,,,high,low,,,,,,,false,,,,,true,448291.40000009537,448291.2000000477,439263.506,439443.3000000715,439280.106,448130.071,1,40,,
trial,html.Screen,8_7_0,2023-11-20T16:40:57.737Z,,,,2,-0.0450282431170921,0,,0.05,false,lh,10560.929000000004,response,-1.276222161935671,1.1321946907621792,-1.15,0.9657780821973284,1.0641794532535702,-1.15,low,high,,ISIC_1805163.JPG,,ISIC_6710411.JPG,33,30,false,0.3600000000000002,ll,keypress(f),0,true,458691.10000002384,458691,448113.164,448291.5,448130.071,458530.057,1,40,8,
sequence,flow.Sequence,8_7,2023-11-20T16:40:57.738Z,,,,,,,,,,,10560.929000000004,completion,,,,,,,low,high,,,,,,,false,,,,,true,458691.2000000477,458691,448113.164,448291.40000009537,448130.071,458530.057,1,40,,
trial,html.Screen,8_8_0,2023-11-20T16:41:04.169Z,,,,2,0.0362376068089956,0.047825070846155,,0.05,true,ll,6592.943000000028,response,-1.0351900568634125,1.1321946907621792,-1.0503694530662964,-1.060448537312289,1.1141794532535703,-1.15,low,low,,ISIC_6985114.JPG,,ISIC_4377208.JPG,33,28,false,0.1,ll,keypress(f),0,true,465123.10000002384,465123,458513.339,458691.2000000477,458530.057,464963.431,1,40,9,
sequence,flow.Sequence,8_8,2023-11-20T16:41:04.170Z,,,,,,,,,,,6592.943000000028,completion,,,,,,,low,low,,,,,,,false,,,,,true,465123.2000000477,465123,458513.339,458691.2000000477,458530.057,464963.431,1,40,,
trial,html.Screen,8_9_0,2023-11-20T16:41:11.225Z,,,,2,0.0097091270150747,-0.0417921315885292,,0.05,false,lh,7215.469000095385,response,-0.9873794329144926,1.1321946907621792,-1.0503694530662964,0.7991077882008257,1.1141794532535703,-0.9978192970878508,low,high,,ISIC_3967213.JPG,,ISIC_0013498.JPG,33,26,false,0.3200000000000002,hh,keypress(i),0,true,472179,472178.90000009537,464946.828,465123.2000000477,464963.431,472030.241,1,40,10,
sequence,flow.Sequence,8_9,2023-11-20T16:41:11.225Z,,,,,,,,,,,7215.469000095385,completion,,,,,,,low,high,,,,,,,false,,,,,true,472179.10000002384,472178.90000009537,464946.828,465123.2000000477,464963.431,472030.241,1,40,,
trial,html.Screen,8_10_0,2023-11-20T16:41:18.425Z,,,,2,0.000047919190197942736,0.0462652940855003,,0.05,true,hl,7348.6590000953875,response,1.2364994561934892,1.1321946907621792,-1.1003694530662964,-0.9174173651516624,1.1141794532535703,-0.9978192970878508,high,low,,ISIC_0011507.JPG,,ISIC_3481133.JPG,33,26,false,0.27000000000000013,hl,keypress(j),0,true,479379,479378.90000009537,472013.389,472179.2000000477,472030.241,479230.247,1,40,11,
sequence,flow.Sequence,8_10,2023-11-20T16:41:18.426Z,,,,,,,,,,,7348.6590000953875,completion,,,,,,,high,low,,,,,,,false,,,,,true,479379.10000002384,479378.90000009537,472013.389,472179.2000000477,472030.241,479230.247,1,40,,
trial,html.Screen,8_11_0,2023-11-20T16:41:30.186Z,,,,2,-0.0069555338059566,0.0310100918136373,,0.05,true,lh,11908.753000000026,response,-0.7998855902596425,1.0821946907621791,-1.1003694530662964,1.1518579145663017,1.1141794532535703,-0.9978192970878508,low,high,,ISIC_0011177.JPG,,ISIC_0025061.JPG,33,25,false,0.3200000000000002,lh,keypress(e),0,true,491139.10000002384,491139,479213.311,479379.10000002384,479230.247,490980.019,1,40,12,
sequence,flow.Sequence,8_11,2023-11-20T16:41:30.186Z,,,,,,,,,,,11908.753000000026,completion,,,,,,,low,high,,,,,,,false,,,,,true,491139.2000000477,491139,479213.311,479379.10000002384,479230.247,490980.019,1,40,,
trial,html.Screen,8_12_0,2023-11-20T16:41:33.289Z,,,,2,0.0188047466661863,-0.0288346930436979,,0.05,false,ll,3262.8810000953963,response,-1.064818044116379,1.0821946907621791,-1.1003694530662964,-1.0146741178993408,1.0641794532535702,-0.9978192970878508,low,low,,ISIC_0014157.JPG,,ISIC_0032504.JPG,33,26,false,0.1,lh,keypress(e),0,true,494242.90000009537,494242.90000009537,490962.985,491139.3000000715,490980.019,494080.04,1,40,13,
sequence,flow.Sequence,8_12,2023-11-20T16:41:33.290Z,,,,,,,,,,,3262.8810000953963,completion,,,,,,,low,low,,,,,,,false,,,,,true,494243.10000002384,494242.90000009537,490962.985,491139.2000000477,490980.019,494080.04,1,40,,
trial,html.Screen,8_13_0,2023-11-20T16:41:41.257Z,,,,2,0.013431314305098,-0.0140597582944232,,0.05,true,ll,8130.560000023863,response,-0.7858981101622865,1.0821946907621791,-0.8823518171880107,-1.098700382725708,1.0641794532535702,-1.0478192970878508,low,low,,ISIC_0069617.JPG,,ISIC_0059733.JPG,33,47,false,0.1,ll,keypress(f),0,true,502210.8000000715,502210.60000002384,494063.354,494243.10000002384,494080.04,502063.818,1,40,14,
sequence,flow.Sequence,8_13,2023-11-20T16:41:41.257Z,,,,,,,,,,,8130.560000023863,completion,,,,,,,low,low,,,,,,,false,,,,,true,502210.90000009537,502210.60000002384,494063.354,494243.10000002384,494080.04,502063.818,1,40,,
trial,html.Screen,8_14_0,2023-11-20T16:41:44.122Z,,,,2,-0.0069555338059566,0.0310100918136373,,0.05,true,hh,3011.2820000238135,response,1.0316392011945703,1.0821946907621791,-0.8823518171880107,1.1580619988377847,1.0641794532535702,-1.0478192970878508,high,high,,ISIC_0011177.JPG,,ISIC_0054206.JPG,33,26,false,0.1,hh,keypress(i),0,true,505075.10000002384,505075.10000002384,502030.023,502211,502063.818,504913.358,1,40,15,
sequence,flow.Sequence,8_14,2023-11-20T16:41:44.122Z,,,,,,,,,,,3011.2820000238135,completion,,,,,,,high,high,,,,,,,false,,,,,true,505075.3000000715,505075.10000002384,502030.023,502211,502063.818,504913.358,1,40,,
trial,html.Screen,8_15_0,2023-11-20T16:41:55.002Z,,,,2,0.0051189696037511,-0.0396625911332438,,0.05,true,hl,11041.842000047676,response,0.9454713230140772,1.0821946907621791,-0.8823518171880107,-0.9245167441969216,1.0641794532535702,-1.0478192970878508,high,low,,ISIC_9742891.JPG,,ISIC_9101055.JPG,33,25,false,0.2400000000000001,hl,keypress(j),0,true,515955.3000000715,515955.2000000477,504896.668,505075.3000000715,504913.358,515796.74,1,40,16,
sequence,flow.Sequence,8_15,2023-11-20T16:41:55.002Z,,,,,,,,,,,11041.842000047676,completion,,,,,,,high,low,,,,,,,false,,,,,true,515955.40000009537,515955.2000000477,504896.668,505075.3000000715,504913.358,515796.74,1,40,,
trial,html.Screen,8_16_0,2023-11-20T16:42:00.329Z,,,,2,-0.0057914759495055,-0.0074667911845194,,0.05,false,hh,5485.960000047693,response,1.0378929077920005,1.032194690762179,-0.8823518171880107,1.012953297890337,1.0641794532535702,-0.9978192970878508,high,high,,ISIC_0058723.JPG,,ISIC_0231745.JPG,33,31,false,0.1,ll,keypress(f),0,true,521282.8000000715,521282.7000000477,515779.913,515955.40000009537,515796.74,521130.274,1,40,17,
sequence,flow.Sequence,8_16,2023-11-20T16:42:00.329Z,,,,,,,,,,,5485.960000047693,completion,,,,,,,high,high,,,,,,,false,,,,,true,521282.90000009537,521282.7000000477,515779.913,515955.40000009537,515796.74,521130.274,1,40,,
trial,html.Screen,8_17_0,2023-11-20T16:42:05.097Z,,,,2,-0.007397293189458,-0.0174716772037504,,0.05,true,hh,4920.52600007155,response,1.086647361897092,1.0821946907621791,-0.8823518171880107,1.1528935990320313,1.1141794532535703,-0.9978192970878508,high,high,,ISIC_0056226.JPG,,ISIC_3505339.JPG,33,28,false,0.11,hh,keypress(i),0,true,526051,526050.8000000715,521113.476,521283,521130.274,525896.664,1,40,18,
sequence,flow.Sequence,8_17,2023-11-20T16:42:05.097Z,,,,,,,,,,,4920.52600007155,completion,,,,,,,high,high,,,,,,,false,,,,,true,526051.1000000238,526050.8000000715,521113.476,521283,521130.274,525896.664,1,40,,
trial,html.Screen,8_18_0,2023-11-20T16:42:14.056Z,,,,2,-0.0070725527271049,-0.0049995141077508,,0.05,true,ll,9113.136000071536,response,-0.9090432487160188,1.0821946907621791,-0.8823518171880107,-1.033319341099857,1.1141794532535703,-0.9978192970878508,low,low,,ISIC_6124481.JPG,,ISIC_4119029.JPG,33,45,false,0.1,ll,keypress(f),0,true,535010,535009.8000000715,525879.852,526051.1000000238,525896.664,534846.647,1,40,19,
sequence,flow.Sequence,8_18,2023-11-20T16:42:14.057Z,,,,,,,,,,,9113.136000071536,completion,,,,,,,low,low,,,,,,,false,,,,,true,535010.1000000238,535009.8000000715,525879.852,526051.1000000238,525896.664,534846.647,1,40,,
trial,html.Screen,8_19_0,2023-11-20T16:42:16.553Z,,,,2,-0.0329095507339554,0.0382899749693245,,0.05,true,hh,2660.25300009537,response,1.0097932576366906,1.0821946907621791,-0.9211812949079379,1.0644834610939486,1.1141794532535703,-0.9978192970878508,high,high,,ISIC_8812781.JPG,,ISIC_8559515.JPG,33,28,false,0.11,hh,keypress(i),0,true,537507,537506.9000000954,534829.728,535010.1000000238,534846.647,537346.705,1,40,20,
sequence,flow.Sequence,8_19,2023-11-20T16:42:16.554Z,,,,,,,,,,,2660.25300009537,completion,,,,,,,high,high,,,,,,,false,,,,,true,537507.1000000238,537506.9000000954,534829.728,535010.1000000238,534846.647,537346.705,1,40,,
trial,html.Screen,8_20_0,2023-11-20T16:42:20.185Z,,,,2,0.0102460616775615,-0.0309670599545429,,0.05,true,ll,3792.295000000042,response,-1.0022982145596024,1.032194690762179,-0.9211812949079379,-0.9703352077282876,1.0641794532535702,-0.9978192970878508,low,low,,ISIC_0072041.JPG,,ISIC_0011930.JPG,33,46,false,0.1,ll,keypress(f),0,true,541139,541139,537330.132,537507.1000000238,537346.705,540980.009,1,40,21,
sequence,flow.Sequence,8_20,2023-11-20T16:42:20.186Z,,,,,,,,,,,3792.295000000042,completion,,,,,,,low,low,,,,,,,false,,,,,true,541139.1000000238,541139,537330.132,537507.1000000238,537346.705,540980.009,1,40,,
trial,html.Screen,8_21_0,2023-11-20T16:42:22.601Z,,,,2,-0.039728379742806,0.0228701131373768,,0.05,true,ll,2574.3910000954056,response,-0.8990371936242809,1.032194690762179,-0.9211812949079379,-0.9654850730344297,1.0641794532535702,-0.936316711143945,low,low,,ISIC_0054073.JPG,,ISIC_0010308.JPG,33,47,false,0.1,ll,keypress(f),0,true,543554.6000000238,543554.4000000954,540963.36,541139.2000000477,540980.009,543396.65,1,40,22,
sequence,flow.Sequence,8_21,2023-11-20T16:42:22.601Z,,,,,,,,,,,2574.3910000954056,completion,,,,,,,low,low,,,,,,,false,,,,,true,543554.7000000477,543554.4000000954,540963.36,541139.2000000477,540980.009,543396.65,1,40,,
trial,html.Screen,8_22_0,2023-11-20T16:42:25.449Z,,,,2,-0.0027483411352856,-0.0100996915276271,,0.05,false,lh,3005.3499999999767,response,-0.7833710010171356,1.032194690762179,-0.8822611333293553,0.9315588090336896,1.0641794532535702,-0.936316711143945,low,high,,ISIC_7364041.JPG,,ISIC_3826102.JPG,33,25,false,0.2300000000000001,hh,keypress(i),0,true,546402.1000000238,546402,543380.246,543554.8000000715,543396.65,546246.618,1,40,23,
sequence,flow.Sequence,8_22,2023-11-20T16:42:25.449Z,,,,,,,,,,,3005.3499999999767,completion,,,,,,,low,high,,,,,,,false,,,,,true,546402.2000000477,546402,543380.246,543554.7000000477,543396.65,546246.618,1,40,,
trial,html.Screen,8_23_0,2023-11-20T16:42:33.209Z,,,,2,-0.0456515796420274,0.0273567130070961,,0.05,true,ll,7916.282000095351,response,-1.00170887975541,1.032194690762179,-0.9322611333293553,-0.8949188450526304,1.0641794532535702,-0.936316711143945,low,low,,ISIC_0068610.JPG,,ISIC_0057067.JPG,33,42,false,0.1,ll,keypress(f),0,true,554162.9000000954,554162.9000000954,546230.195,546402.3000000715,546246.618,554013.53,1,40,24,
sequence,flow.Sequence,8_23,2023-11-20T16:42:33.210Z,,,,,,,,,,,7916.282000095351,completion,,,,,,,low,low,,,,,,,false,,,,,true,554163,554162.9000000954,546230.195,546402.3000000715,546246.618,554013.53,1,40,,
trial,html.Screen,8_24_0,2023-11-20T16:42:40.137Z,,,,2,0.0113873532168551,0.0054999201556291,,0.05,false,ll,7077.270000071498,response,-1.021420495018506,1.032194690762179,-0.9322611333293553,-0.8195763659090913,1.0641794532535702,-0.8983138624040201,low,low,,ISIC_8812621.JPG,,ISIC_0011493.JPG,33,43,false,0.1,lh,keypress(e),0,true,561090.9000000954,561090.8000000715,553996.424,554163.1000000238,554013.53,560929.967,1,40,25,
sequence,flow.Sequence,8_24,2023-11-20T16:42:40.138Z,,,,,,,,,,,7077.270000071498,completion,,,,,,,low,low,,,,,,,false,,,,,true,561091,561090.8000000715,553996.424,554163,554013.53,560929.967,1,40,,
trial,html.Screen,8_25_0,2023-11-20T16:42:44.505Z,,,,2,-0.0085520978188085,0.0464691161264081,,0.05,false,hl,4528.933000095421,response,1.2364994561934892,1.032194690762179,-0.9615646873869579,-0.9174173651516624,1.0641794532535702,-0.9483138624040202,high,low,,ISIC_0758797.JPG,,ISIC_3481133.JPG,33,28,false,0.21000000000000008,hh,keypress(i),0,true,565459,565458.9000000954,560913.34,561091.1000000238,560929.967,565296.622,1,40,26,
sequence,flow.Sequence,8_25,2023-11-20T16:42:44.506Z,,,,,,,,,,,4528.933000095421,completion,,,,,,,high,low,,,,,,,false,,,,,true,565459.1000000238,565458.9000000954,560913.34,561091,560929.967,565296.622,1,40,,
trial,html.Screen,8_26_0,2023-11-20T16:42:52.601Z,,,,2,-0.0107854985447517,-0.0478010417136109,,0.05,true,hl,8257.678000071552,response,0.879102500583965,1.032194690762179,-0.9615646873869579,-1.0933081951979773,1.0641794532535702,-0.9983138624040202,high,low,,ISIC_0010500.JPG,,ISIC_0046223.JPG,33,25,false,0.22000000000000008,hl,keypress(j),0,true,573554.4000000954,573554.3000000715,565280.269,565459.1000000238,565296.622,573396.635,1,40,27,
sequence,flow.Sequence,8_26,2023-11-20T16:42:52.601Z,,,,,,,,,,,8257.678000071552,completion,,,,,,,high,low,,,,,,,false,,,,,true,573554.5,573554.3000000715,565280.269,565459.1000000238,565296.622,573396.635,1,40,,
trial,html.Screen,8_27_0,2023-11-20T16:42:55.737Z,,,,2,0.0348234368746005,-0.0236866303880924,,0.05,false,hl,3293.765000095358,response,0.858338058340649,0.982194690762179,-0.9615646873869579,-0.9540612223480284,1.0641794532535702,-0.9983138624040202,high,low,,ISIC_0011099.JPG,,ISIC_8922893.JPG,33,26,false,0.21000000000000008,hh,keypress(i),0,true,576690.6000000238,576690.4000000954,573379.95,573554.5,573396.635,576529.944,1,40,28,
sequence,flow.Sequence,8_27,2023-11-20T16:42:55.737Z,,,,,,,,,,,3293.765000095358,completion,,,,,,,high,low,,,,,,,false,,,,,true,576690.6000000238,576690.4000000954,573379.95,573554.5,573396.635,576529.944,1,40,,
trial,html.Screen,8_28_0,2023-11-20T16:43:07.322Z,,,,2,-0.0324770283903853,-0.0249968632204382,,0.05,false,hl,11744.95600009535,response,0.8579451262594331,0.982194690762179,-0.9615646873869579,-0.9633172970727744,1.0641794532535702,-1.0483138624040202,high,low,,ISIC_7266462.JPG,,ISIC_0067172.JPG,33,25,false,0.22000000000000008,lh,keypress(e),0,true,588275,588274.9000000954,576513.469,576690.7000000477,576529.944,588113.234,1,40,29,
sequence,flow.Sequence,8_28,2023-11-20T16:43:07.322Z,,,,,,,,,,,11744.95600009535,completion,,,,,,,high,low,,,,,,,false,,,,,true,588275.1000000238,588274.9000000954,576513.469,576690.7000000477,576529.944,588113.234,1,40,,
trial,html.Screen,8_29_0,2023-11-20T16:43:16.969Z,,,,2,-0.0450282431170921,0,,0.05,true,lh,9809.366000023787,response,-0.7118141631588264,1.032194690762179,-0.9615646873869579,1.0369885917487718,1.0641794532535702,-1.0983138624040203,low,high,,ISIC_1805163.JPG,,ISIC_6917681.JPG,33,25,false,0.2600000000000001,lh,keypress(e),0,true,597922.7000000477,597922.6000000238,588096.628,588275.2000000477,588113.234,597763.251,1,40,30,
sequence,flow.Sequence,8_29,2023-11-20T16:43:16.969Z,,,,,,,,,,,9809.366000023787,completion,,,,,,,low,high,,,,,,,false,,,,,true,597922.8000000715,597922.6000000238,588096.628,588275.2000000477,588113.234,597763.251,1,40,,
trial,html.Screen,8_30_0,2023-11-20T16:43:22.969Z,,,,2,-0.0456515796420274,0.0273567130070961,,0.05,true,hh,6158.7489999999525,response,1.0270718265914571,1.032194690762179,-0.9615646873869579,0.9536353804316964,1.0141794532535702,-1.0983138624040203,high,high,,ISIC_0068610.JPG,,ISIC_3431915.JPG,33,32,false,0.1,hh,keypress(i),0,true,603922,603922,597746.256,597922.8000000715,597763.251,603763.234,1,40,31,
sequence,flow.Sequence,8_30,2023-11-20T16:43:22.969Z,,,,,,,,,,,6158.7489999999525,completion,,,,,,,high,high,,,,,,,false,,,,,true,603922.1000000238,603922,597746.256,597922.8000000715,597763.251,603763.234,1,40,,
trial,html.Screen,8_31_0,2023-11-20T16:43:26.137Z,,,,2,-0.0107854985447517,-0.0478010417136109,,0.05,false,lh,3327.5660000714706,response,-0.948927472020595,1.032194690762179,-0.9615646873869579,1.0660437155921598,1.0141794532535702,-1.0983138624040203,low,high,,ISIC_0010500.JPG,,ISIC_5808758.JPG,33,25,false,0.2300000000000001,hh,keypress(i),0,true,607090.9000000954,607090.8000000715,603746.574,603922.1000000238,603763.234,606929.922,1,40,32,
sequence,flow.Sequence,8_31,2023-11-20T16:43:26.138Z,,,,,,,,,,,3327.5660000714706,completion,,,,,,,low,high,,,,,,,false,,,,,true,607091.1000000238,607090.8000000715,603746.574,603922.1000000238,603763.234,606929.922,1,40,,
trial,html.Screen,8_32_0,2023-11-20T16:43:33.929Z,,,,2,-0.0116094682222121,0.0258434522530318,,0.05,false,hh,7952.778000047663,response,1.0650525146668357,1.032194690762179,-1.011564687386958,0.9852293825146712,0.9598395480119282,-1.0983138624040203,high,high,,ISIC_9239632.JPG,,ISIC_6642608.JPG,33,38,false,0.1,lh,keypress(e),0,true,614882.9000000954,614882.7000000477,606913.31,607091.1000000238,606929.922,614729.91,1,40,33,
sequence,flow.Sequence,8_32,2023-11-20T16:43:33.930Z,,,,,,,,,,,7952.778000047663,completion,,,,,,,high,high,,,,,,,false,,,,,true,614882.9000000954,614882.7000000477,606913.31,607091.1000000238,606929.922,614729.91,1,40,,
trial,html.Screen,8_33_0,2023-11-20T16:43:44.361Z,,,,2,-0.0329095507339554,0.0382899749693245,,0.05,false,lh,10584.890000071493,response,-0.9873794329144926,1.0821946907621791,-1.011564687386958,0.7991077882008257,0.9598395480119282,-1.0983138624040203,low,high,,ISIC_8812781.JPG,,ISIC_0013498.JPG,33,25,false,0.2300000000000001,ll,keypress(f),0,true,625314.9000000954,625314.8000000715,614713.239,614883.1000000238,614729.91,625163.354,1,40,34,
sequence,flow.Sequence,8_33,2023-11-20T16:43:44.362Z,,,,,,,,,,,10584.890000071493,completion,,,,,,,low,high,,,,,,,false,,,,,true,625315,625314.8000000715,614713.239,614883.1000000238,614729.91,625163.354,1,40,,
trial,html.Screen,8_34_0,2023-11-20T16:43:47.529Z,,,,2,0.0097091270150747,-0.0417921315885292,,0.05,false,hl,3319.3460000476334,response,1.2695509547992938,1.0821946907621791,-1.011564687386958,-0.9641099676945492,1.0098395480119282,-1.0983138624040203,high,low,,ISIC_3967213.JPG,,ISIC_0025841.JPG,33,25,false,0.2500000000000001,hh,keypress(i),0,true,628482.8000000715,628482.7000000477,625146.183,625315,625163.354,628329.91,1,40,35,
sequence,flow.Sequence,8_34,2023-11-20T16:43:47.529Z,,,,,,,,,,,3319.3460000476334,completion,,,,,,,high,low,,,,,,,false,,,,,true,628482.9000000954,628482.7000000477,625146.183,625315,625163.354,628329.91,1,40,,
trial,html.Screen,8_35_0,2023-11-20T16:43:53.289Z,,,,2,0.0051189696037511,-0.0396625911332438,,0.05,false,hl,5912.390000071493,response,1.1181734135756094,1.0821946907621791,-1.011564687386958,-0.944560381774994,1.0098395480119282,-1.1483138624040203,high,low,,ISIC_9742891.JPG,,ISIC_9688534.JPG,33,27,false,0.30000000000000016,hh,keypress(i),0,true,634242.5,634242.3000000715,628313.352,628483,628329.91,634079.873,1,40,36,
sequence,flow.Sequence,8_35,2023-11-20T16:43:53.289Z,,,,,,,,,,,5912.390000071493,completion,,,,,,,high,low,,,,,,,false,,,,,true,634242.5,634242.3000000715,628313.352,628482.9000000954,628329.91,634079.873,1,40,,
trial,html.Screen,8_36_0,2023-11-20T16:44:00.585Z,,,,2,-0.0456515796420274,0.0273567130070961,,0.05,false,lh,7458.927000071504,response,-0.9235571765207048,1.1438621841874517,-1.011564687386958,1.0008081653938232,1.0098395480119282,-1.1983138624040204,low,high,,ISIC_0068610.JPG,,ISIC_8796632.JPG,33,25,false,0.2400000000000001,ll,keypress(f),0,true,641538.9000000954,641538.8000000715,634063.239,634242.6000000238,634079.873,641379.852,1,40,37,
sequence,flow.Sequence,8_36,2023-11-20T16:44:00.586Z,,,,,,,,,,,7458.927000071504,completion,,,,,,,low,high,,,,,,,false,,,,,true,641539,641538.8000000715,634063.239,634242.5,634079.873,641379.852,1,40,,
trial,html.Screen,8_37_0,2023-11-20T16:44:04.537Z,,,,2,-0.007397293189458,-0.0174716772037504,,0.05,true,ll,4110.94800007157,response,-0.9342143229318964,1.1438621841874517,-0.9615646873869579,-1.195482218669593,1.0598395480119283,-1.1983138624040204,low,low,,ISIC_0056226.JPG,,ISIC_8073555.JPG,33,26,false,0.1,ll,keypress(f),0,true,645490.9000000954,645490.8000000715,641363.192,641539.1000000238,641379.852,645329.896,1,40,38,
sequence,flow.Sequence,8_37,2023-11-20T16:44:04.538Z,,,,,,,,,,,4110.94800007157,completion,,,,,,,low,low,,,,,,,false,,,,,true,645491,645490.8000000715,641363.192,641539.1000000238,641379.852,645329.896,1,40,,
trial,html.Screen,8_38_0,2023-11-20T16:44:07.273Z,,,,2,0.0409338693593207,-0.0072462710499874,,0.05,true,hh,2896.904000071576,response,1.200284020742371,1.1438621841874517,-0.9615646873869579,1.0002918079433898,1.0598395480119283,-1.1983138624040204,high,high,,ISIC_3608788.JPG,,ISIC_0678758.JPG,33,30,false,0.11,hh,keypress(i),0,true,648226.9000000954,648226.8000000715,645313.564,645491.1000000238,645329.896,648080.399,1,40,39,
sequence,flow.Sequence,8_38,2023-11-20T16:44:07.274Z,,,,,,,,,,,2896.904000071576,completion,,,,,,,high,high,,,,,,,false,,,,,true,648227,648226.8000000715,645313.564,645491.1000000238,645329.896,648080.399,1,40,,
trial,html.Screen,8_39_0,2023-11-20T16:44:15.577Z,,,,2,0.0245376145053177,-0.0436993426328401,,0.05,false,ll,8450.40100007155,response,-0.8760226494531969,1.1438621841874517,-0.9615646873869579,-1.1346099537107004,1.0598395480119283,-1.1983138624040204,low,low,,ISIC_0056444.JPG,,ISIC_0053742.JPG,33,26,false,0.1,hl,keypress(j),0,true,656530.9000000954,656530.8000000715,648046.746,648227.1000000238,648080.399,656380.041,1,40,40,
sequence,flow.Sequence,8_39,2023-11-20T16:44:15.578Z,,,,,,,,,,,8450.40100007155,completion,,,,,,,low,low,,,,,,,false,,,,,true,656531.1000000238,656530.8000000715,648046.746,648227.1000000238,648080.399,656380.041,1,40,,
stair_loop,flow.Loop,8,2023-11-20T16:44:15.578Z,,,,,,,,,,,256300.12900007155,completion,,,,,,,,,,,,,,,false,,,,,true,656531.2000000477,656530.8000000715,400196.944,400378.3000000715,400230.671,656380.041,1,40,,
exp_instructions,html.Screen,9,2023-11-20T16:44:48.841Z,,,,,,,,,,,33414.3590000954,response,,,,,,,,,,,,,,,,,continue,keypress(Space),,,689794.9000000954,689794.4000000954,656362.966,656531.2000000477,656380.041,689646.474,,,,
trial,html.Screen,10_0_0,2023-11-20T16:44:57.947Z,,,,1,0.0159061451859594,0.0296598845560212,,0.05,false,hl,9254.126000023796,response,1.2075172235545184,1.0570281894472333,-0.9631308150304152,-0.9116724966267612,1.0399434911569136,-1.0614895614492004,high,low,,ISIC_0072564.JPG,9,ISIC_0024235.JPG,33,28,false,0.2600000000000001,lh,keypress(e),0,false,698900.8000000715,698900.6000000238,689629.041,689794.9000000954,689646.474,698746.576,5,600,1,
break,html.Screen,10_0_1,2023-11-20T16:44:57.948Z,,,,,,,,,,,NaN,,,,,,,,high,low,,,,,,,false,,,,,false,698901.2000000477,698901,,698900.8000000715,,698746.576,5,600,,
break_continue,html.Screen,10_0_2,2023-11-20T16:44:57.948Z,,,,,,,,,,,NaN,,,,,,,,high,low,,,,,,,false,,,,,false,698901.4000000954,698901.3000000715,,698901.3000000715,,698746.576,5,600,,
sequence,flow.Sequence,10_0,2023-11-20T16:44:57.948Z,,,,,,,,,,,9254.82600007148,completion,,,,,,,high,low,,,,,,,false,,,,,false,698901.5,698901.3000000715,689629.041,689794.9000000954,689646.474,698746.576,5,600,,
trial,html.Screen,10_1_0,2023-11-20T16:45:01.017Z,,,,1,0.0409338693593207,-0.0072462710499874,,0.05,true,hh,3224.2240000715246,response,1.057008495826831,1.0570281894472333,-0.9631308150304152,1.1278122585028287,1.0399434911569136,-1.0614895614492004,high,high,,ISIC_3608788.JPG,9,ISIC_2819798.JPG,33,26,false,0.1,hh,keypress(i),0,false,701970.9000000954,701970.8000000715,698729.79,698901.5,698746.576,701813.161,5,600,2,
break,html.Screen,10_1_1,2023-11-20T16:45:01.018Z,,,,,,,,,,,NaN,,,,,,,,high,high,,,,,,,false,,,,,false,701971.2000000477,701971.1000000238,,701971,,701813.161,5,600,,
break_continue,html.Screen,10_1_2,2023-11-20T16:45:01.018Z,,,,,,,,,,,NaN,,,,,,,,high,high,,,,,,,false,,,,,false,701971.4000000954,701971.4000000954,,701971.2000000477,,701813.161,5,600,,
sequence,flow.Sequence,10_1,2023-11-20T16:45:01.018Z,,,,,,,,,,,3224.8240000953665,completion,,,,,,,high,high,,,,,,,false,,,,,false,701971.4000000954,701971.4000000954,698729.79,698901.5,698746.576,701813.161,5,600,,
trial,html.Screen,10_2_0,2023-11-20T16:45:06.121Z,,,,1,-0.0363437082783146,-0.0333332186217051,,0.05,true,hh,5261.639000071562,response,1.0878102877901663,1.0570281894472333,-0.9631308150304152,0.9483364581769096,1.0399434911569136,-1.0614895614492004,high,high,,ISIC_3314555.JPG,9,ISIC_1413242.JPG,33,26,false,0.1,hh,keypress(i),0,false,707074.9000000954,707074.8000000715,701796.499,701971.5,701813.161,706913.121,5,600,3,
break,html.Screen,10_2_1,2023-11-20T16:45:06.122Z,,,,,,,,,,,NaN,,,,,,,,high,high,,,,,,,false,,,,,false,707075.2000000477,707075.1000000238,,707075,,706913.121,5,600,,
break_continue,html.Screen,10_2_2,2023-11-20T16:45:06.122Z,,,,,,,,,,,NaN,,,,,,,,high,high,,,,,,,false,,,,,false,707075.4000000954,707075.4000000954,,707075.3000000715,,706913.121,5,600,,
sequence,flow.Sequence,10_2,2023-11-20T16:45:06.122Z,,,,,,,,,,,5262.239000095404,completion,,,,,,,high,high,,,,,,,false,,,,,false,707075.5,707075.4000000954,701796.499,701971.4000000954,701813.161,706913.121,5,600,,
trial,html.Screen,10_3_0,2023-11-20T16:45:10.297Z,,,,1,-0.0450282431170921,0,,0.05,false,hl,4337.378999999957,response,0.8179805381029407,1.0570281894472333,-0.9631308150304152,-0.8578467162767749,1.0399434911569136,-1.0614895614492004,high,low,,ISIC_1805163.JPG,9,ISIC_0067253.JPG,33,28,false,0.2600000000000001,ll,keypress(f),0,false,711250.6000000238,711250.5,706896.439,707075.5,706913.121,711096.534,5,600,4,
break,html.Screen,10_3_1,2023-11-20T16:45:10.298Z,,,,,,,,,,,NaN,,,,,,,,high,low,,,,,,,false,,,,,false,711251,711250.9000000954,,711250.6000000238,,711096.534,5,600,,
break_continue,html.Screen,10_3_2,2023-11-20T16:45:10.298Z,,,,,,,,,,,NaN,,,,,,,,high,low,,,,,,,false,,,,,false,711251.2000000477,711251.1000000238,,711251,,711096.534,5,600,,
sequence,flow.Sequence,10_3,2023-11-20T16:45:10.298Z,,,,,,,,,,,4337.979000023799,completion,,,,,,,high,low,,,,,,,false,,,,,false,711251.2000000477,711251.1000000238,706896.439,707075.5,706913.121,711096.534,5,600,,
trial,html.Screen,10_4_0,2023-11-20T16:45:21.065Z,,,,1,-0.0107854985447517,-0.0478010417136109,,0.05,false,hh,10922.166000047699,response,1.0650525146668357,1.0570281894472333,-0.9631308150304152,0.9852293825146712,1.0399434911569136,-1.0614895614492004,high,high,,ISIC_0010500.JPG,9,ISIC_6642608.JPG,33,26,false,0.1,hl,keypress(j),0,false,722018.7000000477,722018.7000000477,711079.868,711251.3000000715,711096.534,721863.303,5,600,5,
break,html.Screen,10_4_1,2023-11-20T16:45:21.066Z,,,,,,,,,,,NaN,,,,,,,,high,high,,,,,,,false,,,,,false,722019.1000000238,722019.1000000238,,722018.9000000954,,721863.303,5,600,,
break_continue,html.Screen,10_4_2,2023-11-20T16:45:21.066Z,,,,,,,,,,,NaN,,,,,,,,high,high,,,,,,,false,,,,,false,722019.3000000715,722019.2000000477,,722019.1000000238,,721863.303,5,600,,
sequence,flow.Sequence,10_4,2023-11-20T16:45:21.066Z,,,,,,,,,,,10922.666000047699,completion,,,,,,,high,high,,,,,,,false,,,,,false,722019.4000000954,722019.2000000477,711079.868,711251.3000000715,711096.534,721863.303,5,600,,
trial,html.Screen,10_5_0,2023-11-20T16:45:28.873Z,,,,1,0.0188047466661863,-0.0288346930436979,,0.05,false,ll,7963.297000023886,response,-0.9185517403328254,1.0570281894472333,-0.9631308150304152,-0.9975299101285906,1.0399434911569136,-1.0614895614492004,low,low,,ISIC_0014157.JPG,8,ISIC_0011130.JPG,33,37,false,0.1,hl,keypress(j),0,false,729826.7000000477,729826.6000000238,721846.558,722019.5,721863.303,729680.257,5,600,6,
break,html.Screen,10_5_1,2023-11-20T16:45:28.874Z,,,,,,,,,,,NaN,,,,,,,,low,low,,,,,,,false,,,,,false,729827,729826.9000000954,,729826.8000000715,,729680.257,5,600,,
break_continue,html.Screen,10_5_2,2023-11-20T16:45:28.874Z,,,,,,,,,,,NaN,,,,,,,,low,low,,,,,,,false,,,,,false,729827.1000000238,729827.1000000238,,729827,,729680.257,5,600,,
sequence,flow.Sequence,10_5,2023-11-20T16:45:28.874Z,,,,,,,,,,,7963.797000023886,completion,,,,,,,low,low,,,,,,,false,,,,,false,729827.2000000477,729827.1000000238,721846.558,722019.5,721863.303,729680.257,5,600,,
trial,html.Screen,10_6_0,2023-11-20T16:45:33.289Z,,,,1,-0.007397293189458,-0.0174716772037504,,0.05,false,lh,4562.543000071542,response,-0.7871162143493278,1.0570281894472333,-0.9631308150304152,0.8429329800778957,1.0399434911569136,-1.0614895614492004,low,high,,ISIC_0056226.JPG,9,ISIC_3439215.JPG,33,27,false,0.2500000000000001,hl,keypress(j),0,false,734242.9000000954,734242.8000000715,729646.64,729827.2000000477,729680.257,734079.784,5,600,7,
break,html.Screen,10_6_1,2023-11-20T16:45:33.290Z,,,,,,,,,,,NaN,,,,,,,,low,high,,,,,,,false,,,,,false,734243.1000000238,734243,,734242.9000000954,,734079.784,5,600,,
break_continue,html.Screen,10_6_2,2023-11-20T16:45:33.290Z,,,,,,,,,,,NaN,,,,,,,,low,high,,,,,,,false,,,,,false,734243.4000000954,734243.3000000715,,734243.2000000477,,734079.784,5,600,,
sequence,flow.Sequence,10_6,2023-11-20T16:45:33.290Z,,,,,,,,,,,4563.043000071542,completion,,,,,,,low,high,,,,,,,false,,,,,false,734243.5,734243.3000000715,729646.64,729827.2000000477,729680.257,734079.784,5,600,,
trial,html.Screen,10_7_0,2023-11-20T16:45:38.473Z,,,,1,0.0113873532168551,0.0054999201556291,,0.05,false,ll,5346.916000047699,response,-0.9357713502691224,1.0570281894472333,-0.9631308150304152,-1.0696934992096478,1.0399434911569136,-1.0614895614492004,low,low,,ISIC_8812621.JPG,8,ISIC_0009886.JPG,33,37,false,0.1,lh,keypress(e),0,false,739426.7000000477,739426.7000000477,734063.283,734243.5,734079.784,739280.29,5,600,8,
break,html.Screen,10_7_1,2023-11-20T16:45:38.474Z,,,,,,,,,,,NaN,,,,,,,,low,low,,,,,,,false,,,,,false,739427,739427,,739426.9000000954,,739280.29,5,600,,
break_continue,html.Screen,10_7_2,2023-11-20T16:45:38.474Z,,,,,,,,,,,NaN,,,,,,,,low,low,,,,,,,false,,,,,false,739427.3000000715,739427.2000000477,,739427.1000000238,,739280.29,5,600,,
sequence,flow.Sequence,10_7,2023-11-20T16:45:38.474Z,,,,,,,,,,,5347.416000047699,completion,,,,,,,low,low,,,,,,,false,,,,,false,739427.4000000954,739427.2000000477,734063.283,734243.5,734079.784,739280.29,5,600,,
trial,html.Screen,10_8_0,2023-11-20T16:45:43.289Z,,,,1,0.0113873532168551,0.0054999201556291,,0.05,false,ll,4961.9100000476465,response,-0.9787884514439864,1.0570281894472333,-0.9631308150304152,-1.139528725910855,1.0399434911569136,-1.0614895614492004,low,low,,ISIC_8812621.JPG,9,ISIC_0032726.JPG,33,37,false,0.1,hh,keypress(i),0,false,744242.2000000477,744242.2000000477,739246.306,739427.4000000954,739280.29,744096.562,5,600,9,
break,html.Screen,10_8_1,2023-11-20T16:45:43.289Z,,,,,,,,,,,NaN,,,,,,,,low,low,,,,,,,false,,,,,false,744242.6000000238,744242.5,,744242.4000000954,,744096.562,5,600,,
break_continue,html.Screen,10_8_2,2023-11-20T16:45:43.289Z,,,,,,,,,,,NaN,,,,,,,,low,low,,,,,,,false,,,,,false,744242.7000000477,744242.7000000477,,744242.7000000477,,744096.562,5,600,,
sequence,flow.Sequence,10_8,2023-11-20T16:45:43.289Z,,,,,,,,,,,4962.4100000476465,completion,,,,,,,low,low,,,,,,,false,,,,,false,744242.7000000477,744242.7000000477,739246.306,739427.4000000954,739280.29,744096.562,5,600,,
trial,html.Screen,10_9_0,2023-11-20T16:45:48.233Z,,,,1,-0.0085520978188085,0.0464691161264081,,0.05,false,hh,5090.138000047649,response,1.0565911491759823,1.0570281894472333,-0.9631308150304152,1.0221582682700174,1.0399434911569136,-1.0614895614492004,high,high,,ISIC_0758797.JPG,9,ISIC_6604862.JPG,33,26,false,0.1,hl,keypress(j),0,false,749186.9000000954,749186.7000000477,744079.77,744242.8000000715,744096.562,749029.877,5,600,10,
break,html.Screen,10_9_1,2023-11-20T16:45:48.234Z,,,,,,,,,,,NaN,,,,,,,,high,high,,,,,,,false,,,,,false,749187.1000000238,749187,,749186.9000000954,,749029.877,5,600,,
break_continue,html.Screen,10_9_2,2023-11-20T16:45:48.234Z,,,,,,,,,,,NaN,,,,,,,,high,high,,,,,,,false,,,,,false,749187.3000000715,749187.2000000477,,749187.1000000238,,749029.877,5,600,,
sequence,flow.Sequence,10_9,2023-11-20T16:45:48.234Z,,,,,,,,,,,5090.638000047649,completion,,,,,,,high,high,,,,,,,false,,,,,false,749187.4000000954,749187.2000000477,744079.77,744242.8000000715,744096.562,749029.877,5,600,,
trial,html.Screen,10_10_0,2023-11-20T16:45:57.497Z,,,,1,0.0362376068089956,0.047825070846155,,0.05,true,hh,9420.023000095389,response,1.037577073517966,1.0570281894472333,-0.9631308150304152,1.027048110709042,1.0399434911569136,-1.0614895614492004,high,high,,ISIC_6985114.JPG,9,ISIC_0004932.JPG,33,26,false,0.1,hh,keypress(i),0,false,758450,758449.9000000954,749013.262,749187.4000000954,749029.877,758296.336,5,600,11,
break,html.Screen,10_10_1,2023-11-20T16:45:57.497Z,,,,,,,,,,,NaN,,,,,,,,high,high,,,,,,,false,,,,,false,758450.3000000715,758450.2000000477,,758450.1000000238,,758296.336,5,600,,
break_continue,html.Screen,10_10_2,2023-11-20T16:45:57.497Z,,,,,,,,,,,NaN,,,,,,,,high,high,,,,,,,false,,,,,false,758450.5,758450.4000000954,,758450.3000000715,,758296.336,5,600,,
sequence,flow.Sequence,10_10,2023-11-20T16:45:57.497Z,,,,,,,,,,,9420.523000095389,completion,,,,,,,high,high,,,,,,,false,,,,,false,758450.6000000238,758450.4000000954,749013.262,749187.4000000954,749029.877,758296.336,5,600,,
trial,html.Screen,10_11_0,2023-11-20T16:46:00.394Z,,,,1,0.0348234368746005,-0.0236866303880924,,0.05,true,hh,3050.4640000715153,response,0.9607077625123552,1.0570281894472333,-0.9631308150304152,1.0682608339754711,1.0399434911569136,-1.0614895614492004,high,high,,ISIC_0011099.JPG,9,ISIC_0064763.JPG,33,26,false,0.1,hh,keypress(i),0,false,761347,761346.8000000715,758279.792,758450.7000000477,758296.336,761196.47,5,600,12,
break,html.Screen,10_11_1,2023-11-20T16:46:00.394Z,,,,,,,,,,,NaN,,,,,,,,high,high,,,,,,,false,,,,,false,761347.3000000715,761347.2000000477,,761347,,761196.47,5,600,,
break_continue,html.Screen,10_11_2,2023-11-20T16:46:00.394Z,,,,,,,,,,,NaN,,,,,,,,high,high,,,,,,,false,,,,,false,761347.5,761347.4000000954,,761347.4000000954,,761196.47,5,600,,
sequence,flow.Sequence,10_11,2023-11-20T16:46:00.394Z,,,,,,,,,,,3051.064000095357,completion,,,,,,,high,high,,,,,,,false,,,,,false,761347.6000000238,761347.4000000954,758279.792,758450.7000000477,758296.336,761196.47,5,600,,
trial,html.Screen,10_12_0,2023-11-20T16:46:03.609Z,,,,1,-0.0057914759495055,-0.0074667911845194,,0.05,false,lh,3366.3300000715535,response,-0.8035152873995188,1.0570281894472333,-0.9631308150304152,0.82868450251632,1.0399434911569136,-1.0614895614492004,low,high,,ISIC_0058723.JPG,9,ISIC_0010671.JPG,33,27,false,0.2500000000000001,ll,keypress(f),0,false,764562.9000000954,764562.8000000715,761179.676,761347.6000000238,761196.47,764413.288,5,600,13,
break,html.Screen,10_12_1,2023-11-20T16:46:03.610Z,,,,,,,,,,,NaN,,,,,,,,low,high,,,,,,,false,,,,,false,764563.2000000477,764563.1000000238,,764563,,764413.288,5,600,,
break_continue,html.Screen,10_12_2,2023-11-20T16:46:03.610Z,,,,,,,,,,,NaN,,,,,,,,low,high,,,,,,,false,,,,,false,764563.3000000715,764563.3000000715,,764563.2000000477,,764413.288,5,600,,
sequence,flow.Sequence,10_12,2023-11-20T16:46:03.610Z,,,,,,,,,,,3366.8300000715535,completion,,,,,,,low,high,,,,,,,false,,,,,false,764563.4000000954,764563.3000000715,761179.676,761347.6000000238,761196.47,764413.288,5,600,,
trial,html.Screen,10_13_0,2023-11-20T16:46:05.657Z,,,,1,-0.039728379742806,0.0228701131373768,,0.05,true,hh,2196.9120000477415,response,0.9607077625123552,1.0570281894472333,-0.9631308150304152,1.0682608339754711,1.0399434911569136,-1.0614895614492004,high,high,,ISIC_0054073.JPG,8,ISIC_0064763.JPG,33,26,false,0.1,hh,keypress(i),0,false,766610.3000000715,766610.2000000477,764396.582,764563.4000000954,764413.288,766463.533,5,600,14,
break,html.Screen,10_13_1,2023-11-20T16:46:05.657Z,,,,,,,,,,,NaN,,,,,,,,high,high,,,,,,,false,,,,,false,766610.5,766610.5,,766610.4000000954,,766463.533,5,600,,
break_continue,html.Screen,10_13_2,2023-11-20T16:46:05.657Z,,,,,,,,,,,NaN,,,,,,,,high,high,,,,,,,false,,,,,false,766610.7000000477,766610.7000000477,,766610.6000000238,,766463.533,5,600,,
sequence,flow.Sequence,10_13,2023-11-20T16:46:05.657Z,,,,,,,,,,,2197.4120000477415,completion,,,,,,,high,high,,,,,,,false,,,,,false,766610.8000000715,766610.7000000477,764396.582,764563.4000000954,764413.288,766463.533,5,600,,
trial,html.Screen,10_14_0,2023-11-20T16:46:11.209Z,,,,1,-0.0050679133050021,0.0009714874637896,,0.05,false,hl,5698.66700004763,response,0.9433720631499012,1.0570281894472333,-0.9631308150304152,-1.0582071940347648,1.0399434911569136,-1.0614895614492004,high,low,,ISIC_9848743.JPG,9,ISIC_4890201.JPG,33,28,false,0.2600000000000001,hh,keypress(i),0,false,772162.3000000715,772162.2000000477,766429.943,766610.8000000715,766463.533,772013.151,5,600,15,
break,html.Screen,10_14_1,2023-11-20T16:46:11.209Z,,,,,,,,,,,NaN,,,,,,,,high,low,,,,,,,false,,,,,false,772162.6000000238,772162.6000000238,,772162.4000000954,,772013.151,5,600,,
break_continue,html.Screen,10_14_2,2023-11-20T16:46:11.209Z,,,,,,,,,,,NaN,,,,,,,,high,low,,,,,,,false,,,,,false,772162.9000000954,772162.8000000715,,772162.7000000477,,772013.151,5,600,,
sequence,flow.Sequence,10_14,2023-11-20T16:46:11.210Z,,,,,,,,,,,5699.267000071472,completion,,,,,,,high,low,,,,,,,false,,,,,false,772163,772162.8000000715,766429.943,766610.8000000715,766463.533,772013.151,5,600,,
trial,html.Screen,10_15_0,2023-11-20T16:46:14.601Z,,,,1,0.0097091270150747,-0.0417921315885292,,0.05,false,lh,3541.649000071571,response,-0.9873794329144926,1.0570281894472333,-0.9631308150304152,0.7991077882008257,1.0399434911569136,-1.0614895614492004,low,high,,ISIC_3967213.JPG,9,ISIC_0013498.JPG,33,27,false,0.2500000000000001,hh,keypress(i),0,false,775554.9000000954,775554.8000000715,771996.527,772163,772013.151,775396.342,5,600,16,
break,html.Screen,10_15_1,2023-11-20T16:46:14.602Z,,,,,,,,,,,NaN,,,,,,,,low,high,,,,,,,false,,,,,false,775555.2000000477,775555.1000000238,,775555,,775396.342,5,600,,
break_continue,html.Screen,10_15_2,2023-11-20T16:46:14.602Z,,,,,,,,,,,NaN,,,,,,,,low,high,,,,,,,false,,,,,false,775555.4000000954,775555.3000000715,,775555.2000000477,,775396.342,5,600,,
sequence,flow.Sequence,10_15,2023-11-20T16:46:14.602Z,,,,,,,,,,,3542.149000071571,completion,,,,,,,low,high,,,,,,,false,,,,,false,775555.4000000954,775555.3000000715,771996.527,772163,772013.151,775396.342,5,600,,
trial,html.Screen,10_16_0,2023-11-20T16:46:19.241Z,,,,1,0.0188047466661863,-0.0288346930436979,,0.05,false,lh,4798.358000047738,response,-0.8200962008791046,1.0570281894472333,-0.9631308150304152,0.7936051642828523,1.0399434911569136,-1.0614895614492004,low,high,,ISIC_0014157.JPG,8,ISIC_0027031.JPG,33,27,false,0.2500000000000001,hh,keypress(i),0,false,780194.8000000715,780194.7000000477,775379.834,775555.5,775396.342,780046.814,5,600,17,
break,html.Screen,10_16_1,2023-11-20T16:46:19.242Z,,,,,,,,,,,NaN,,,,,,,,low,high,,,,,,,false,,,,,false,780195.1000000238,780195.1000000238,,780195,,780046.814,5,600,,
break_continue,html.Screen,10_16_2,2023-11-20T16:46:19.242Z,,,,,,,,,,,NaN,,,,,,,,low,high,,,,,,,false,,,,,false,780195.3000000715,780195.2000000477,,780195.1000000238,,780046.814,5,600,,
sequence,flow.Sequence,10_16,2023-11-20T16:46:19.242Z,,,,,,,,,,,4798.858000047738,completion,,,,,,,low,high,,,,,,,false,,,,,false,780195.3000000715,780195.2000000477,775379.834,775555.5,775396.342,780046.814,5,600,,
trial,html.Screen,10_17_0,2023-11-20T16:46:25.225Z,,,,1,-0.0324770283903853,-0.0249968632204382,,0.05,true,ll,6131.586000095354,response,-0.8809051780367407,1.0570281894472333,-0.9631308150304152,-1.044525830449456,1.0399434911569136,-1.0614895614492004,low,low,,ISIC_7266462.JPG,9,ISIC_0029212.JPG,33,37,false,0.1,ll,keypress(f),0,false,786178.6000000238,786178.4000000954,780029.555,780195.4000000954,780046.814,786029.875,5,600,18,
break,html.Screen,10_17_1,2023-11-20T16:46:25.225Z,,,,,,,,,,,NaN,,,,,,,,low,low,,,,,,,false,,,,,false,786179,786178.8000000715,,786178.7000000477,,786029.875,5,600,,
break_continue,html.Screen,10_17_2,2023-11-20T16:46:25.226Z,,,,,,,,,,,NaN,,,,,,,,low,low,,,,,,,false,,,,,false,786179.1000000238,786179.1000000238,,786179,,786029.875,5,600,,
sequence,flow.Sequence,10_17,2023-11-20T16:46:25.226Z,,,,,,,,,,,6132.286000023829,completion,,,,,,,low,low,,,,,,,false,,,,,false,786179.2000000477,786179.1000000238,780029.555,780195.4000000954,780046.814,786029.875,5,600,,
trial,html.Screen,10_18_0,2023-11-20T16:46:29.993Z,,,,1,0.0159061451859594,0.0296598845560212,,0.05,false,lh,4916.425000071526,response,-1.0213365328004047,1.0570281894472333,-0.9631308150304152,1.088524359911891,1.0399434911569136,-1.0614895614492004,low,high,,ISIC_0072564.JPG,9,ISIC_5434229.JPG,33,27,false,0.2500000000000001,ll,keypress(f),0,false,790946.4000000954,790946.3000000715,786012.967,786179.2000000477,786029.875,790796.531,5,600,19,
break,html.Screen,10_18_1,2023-11-20T16:46:29.993Z,,,,,,,,,,,NaN,,,,,,,,low,high,,,,,,,false,,,,,false,790946.8000000715,790946.7000000477,,790946.5,,790796.531,5,600,,
break_continue,html.Screen,10_18_2,2023-11-20T16:46:29.994Z,,,,,,,,,,,NaN,,,,,,,,low,high,,,,,,,false,,,,,false,790947.1000000238,790947,,790946.9000000954,,790796.531,5,600,,
sequence,flow.Sequence,10_18,2023-11-20T16:46:29.994Z,,,,,,,,,,,4917.125,completion,,,,,,,low,high,,,,,,,false,,,,,false,790947.1000000238,790947,786012.967,786179.2000000477,786029.875,790796.531,5,600,,
trial,html.Screen,10_19_0,2023-11-20T16:46:36.105Z,,,,1,0.013431314305098,-0.0140597582944232,,0.05,true,hh,6262.069000023883,response,1.135787555082309,1.0570281894472333,-0.9631308150304152,1.0095789588135065,1.0399434911569136,-1.0614895614492004,high,high,,ISIC_0069617.JPG,9,ISIC_0032526.JPG,33,26,false,0.1,hh,keypress(i),0,false,797058.8000000715,797058.6000000238,790779.814,790947.2000000477,790796.531,796896.319,5,600,20,
break,html.Screen,10_19_1,2023-11-20T16:46:36.106Z,,,,,,,,,,,NaN,,,,,,,,high,high,,,,,,,false,,,,,false,797059.1000000238,797059.1000000238,,797058.9000000954,,796896.319,5,600,,
break_continue,html.Screen,10_19_2,2023-11-20T16:46:36.106Z,,,,,,,,,,,NaN,,,,,,,,high,high,,,,,,,false,,,,,false,797059.3000000715,797059.2000000477,,797059.2000000477,,796896.319,5,600,,
sequence,flow.Sequence,10_19,2023-11-20T16:46:36.106Z,,,,,,,,,,,6262.669000047725,completion,,,,,,,high,high,,,,,,,false,,,,,false,797059.4000000954,797059.2000000477,790779.814,790947.1000000238,790796.531,796896.319,5,600,,
trial,html.Screen,10_20_0,2023-11-20T16:46:42.633Z,,,,1,-0.0069555338059566,0.0310100918136373,,0.05,false,hh,6690.281000023824,response,1.0565911491759823,1.0570281894472333,-0.9631308150304152,1.0221582682700174,1.0399434911569136,-1.0614895614492004,high,high,,ISIC_0011177.JPG,8,ISIC_6604862.JPG,33,26,false,0.1,lh,keypress(e),0,false,803586.7000000477,803586.6000000238,796879.694,797059.4000000954,796896.319,803429.72,5,600,21,
break,html.Screen,10_20_1,2023-11-20T16:46:42.634Z,,,,,,,,,,,NaN,,,,,,,,high,high,,,,,,,false,,,,,false,803586.9000000954,803586.9000000954,,803586.7000000477,,803429.72,5,600,,
break_continue,html.Screen,10_20_2,2023-11-20T16:46:42.634Z,,,,,,,,,,,NaN,,,,,,,,high,high,,,,,,,false,,,,,false,803587.1000000238,803587.1000000238,,803587,,803429.72,5,600,,
sequence,flow.Sequence,10_20,2023-11-20T16:46:42.634Z,,,,,,,,,,,6690.781000023824,completion,,,,,,,high,high,,,,,,,false,,,,,false,803587.2000000477,803587.1000000238,796879.694,797059.4000000954,796896.319,803429.72,5,600,,
trial,html.Screen,10_21_0,2023-11-20T16:46:51.625Z,,,,1,0.0113873532168551,0.0054999201556291,,0.05,false,ll,9149.080000071554,response,-0.8835058339726064,1.0570281894472333,-0.9631308150304152,-1.035612893059322,1.0399434911569136,-1.0614895614492004,low,low,,ISIC_8812621.JPG,9,ISIC_0069595.JPG,33,37,false,0.1,hh,keypress(i),0,false,812578.9000000954,812578.8000000715,803413.34,803587.3000000715,803429.72,812429.94,5,600,22,
break,html.Screen,10_21_1,2023-11-20T16:46:51.626Z,,,,,,,,,,,NaN,,,,,,,,low,low,,,,,,,false,,,,,false,812579.2000000477,812579.1000000238,,812579,,812429.94,5,600,,
break_continue,html.Screen,10_21_2,2023-11-20T16:46:51.626Z,,,,,,,,,,,NaN,,,,,,,,low,low,,,,,,,false,,,,,false,812579.4000000954,812579.3000000715,,812579.2000000477,,812429.94,5,600,,
sequence,flow.Sequence,10_21,2023-11-20T16:46:51.626Z,,,,,,,,,,,9149.580000071554,completion,,,,,,,low,low,,,,,,,false,,,,,false,812579.4000000954,812579.3000000715,803413.34,803587.3000000715,803429.72,812429.94,5,600,,
trial,html.Screen,10_22_0,2023-11-20T16:46:55.193Z,,,,1,-0.0070725527271049,-0.0049995141077508,,0.05,true,ll,3716.560000000056,response,-0.9049419708812736,1.0570281894472333,-0.9631308150304152,-1.1525122949771718,1.0399434911569136,-1.0614895614492004,low,low,,ISIC_6124481.JPG,9,ISIC_0011348.JPG,33,37,false,0.1,ll,keypress(f),0,false,816146.6000000238,816146.5,812413.24,812579.4000000954,812429.94,815996.46,5,600,23,
break,html.Screen,10_22_1,2023-11-20T16:46:55.193Z,,,,,,,,,,,NaN,,,,,,,,low,low,,,,,,,false,,,,,false,816146.9000000954,816146.8000000715,,816146.7000000477,,815996.46,5,600,,
break_continue,html.Screen,10_22_2,2023-11-20T16:46:55.194Z,,,,,,,,,,,NaN,,,,,,,,low,low,,,,,,,false,,,,,false,816147.1000000238,816147,,816147,,815996.46,5,600,,
sequence,flow.Sequence,10_22,2023-11-20T16:46:55.194Z,,,,,,,,,,,3717.060000000056,completion,,,,,,,low,low,,,,,,,false,,,,,false,816147.2000000477,816147,812413.24,812579.4000000954,812429.94,815996.46,5,600,,
trial,html.Screen,10_23_0,2023-11-20T16:46:58.249Z,,,,1,-0.0363437082783146,-0.0333332186217051,,0.05,false,lh,3206.240000047721,response,-1.0115965332688306,1.0570281894472333,-0.9631308150304152,0.8282633603842442,1.0399434911569136,-1.0614895614492004,low,high,,ISIC_3314555.JPG,9,ISIC_1069587.JPG,33,27,false,0.2500000000000001,hh,keypress(i),0,false,819202.9000000954,819202.7000000477,815979.785,816147.2000000477,815996.46,819046.529,5,600,24,
break,html.Screen,10_23_1,2023-11-20T16:46:58.250Z,,,,,,,,,,,NaN,,,,,,,,low,high,,,,,,,false,,,,,false,819203.3000000715,819203.2000000477,,819202.9000000954,,819046.529,5,600,,
break_continue,html.Screen,10_23_2,2023-11-20T16:46:58.250Z,,,,,,,,,,,NaN,,,,,,,,low,high,,,,,,,false,,,,,false,819203.5,819203.4000000954,,819203.3000000715,,819046.529,5,600,,
sequence,flow.Sequence,10_23,2023-11-20T16:46:58.250Z,,,,,,,,,,,3206.9400000954047,completion,,,,,,,low,high,,,,,,,false,,,,,false,819203.5,819203.4000000954,815979.785,816147.2000000477,815996.46,819046.529,5,600,,
trial,html.Screen,10_24_0,2023-11-20T16:47:02.985Z,,,,1,0.0409338693593207,-0.0072462710499874,,0.05,true,hh,4892.171000047703,response,1.0650525146668357,1.0570281894472333,-0.9631308150304152,0.9852293825146712,1.0399434911569136,-1.0614895614492004,high,high,,ISIC_3608788.JPG,9,ISIC_6642608.JPG,33,26,false,0.1,hh,keypress(i),0,false,823938.8000000715,823938.7000000477,819029.851,819203.5,819046.529,823779.656,5,600,25,
break,html.Screen,10_24_1,2023-11-20T16:47:02.986Z,,,,,,,,,,,NaN,,,,,,,,high,high,,,,,,,false,,,,,false,823939.2000000477,823939.1000000238,,823938.9000000954,,823779.656,5,600,,
break_continue,html.Screen,10_24_2,2023-11-20T16:47:02.986Z,,,,,,,,,,,NaN,,,,,,,,high,high,,,,,,,false,,,,,false,823939.3000000715,823939.3000000715,,823939.2000000477,,823779.656,5,600,,
sequence,flow.Sequence,10_24,2023-11-20T16:47:02.986Z,,,,,,,,,,,4892.771000071545,completion,,,,,,,high,high,,,,,,,false,,,,,false,823939.3000000715,823939.3000000715,819029.851,819203.5,819046.529,823779.656,5,600,,
trial,html.Screen,10_25_0,2023-11-20T16:47:07.065Z,,,,1,-0.0217698886732706,0.0410870915161425,,0.05,true,hh,4238.744000095408,response,0.9786457729523576,1.0570281894472333,-0.9631308150304152,1.1189056385517386,1.0399434911569136,-1.0614895614492004,high,high,,ISIC_0072173.JPG,9,ISIC_3926019.JPG,33,26,false,0.1,hh,keypress(i),0,false,828018.5,828018.4000000954,823762.988,823939.4000000954,823779.656,827863.096,5,600,26,
break,html.Screen,10_25_1,2023-11-20T16:47:07.065Z,,,,,,,,,,,NaN,,,,,,,,high,high,,,,,,,false,,,,,false,828018.8000000715,828018.7000000477,,828018.6000000238,,827863.096,5,600,,
break_continue,html.Screen,10_25_2,2023-11-20T16:47:07.066Z,,,,,,,,,,,NaN,,,,,,,,high,high,,,,,,,false,,,,,false,828019,828018.9000000954,,828018.8000000715,,827863.096,5,600,,
sequence,flow.Sequence,10_25,2023-11-20T16:47:07.066Z,,,,,,,,,,,4239.244000095408,completion,,,,,,,high,high,,,,,,,false,,,,,false,828019.1000000238,828018.9000000954,823762.988,823939.4000000954,823779.656,827863.096,5,600,,
trial,html.Screen,10_26_0,2023-11-20T16:47:11.065Z,,,,1,-0.0217698886732706,0.0410870915161425,,0.05,true,hh,4155.304000095348,response,1.131522954199764,1.0570281894472333,-0.9631308150304152,1.1047184491749509,1.0399434911569136,-1.0614895614492004,high,high,,ISIC_0072173.JPG,9,ISIC_1868816.JPG,33,26,false,0.1,hh,keypress(i),0,false,832018.4000000954,832018.4000000954,827846.466,828019.1000000238,827863.096,831862.997,5,600,27,
break,html.Screen,10_26_1,2023-11-20T16:47:11.065Z,,,,,,,,,,,NaN,,,,,,,,high,high,,,,,,,false,,,,,false,832018.7000000477,832018.6000000238,,832018.6000000238,,831862.997,5,600,,
break_continue,html.Screen,10_26_2,2023-11-20T16:47:11.066Z,,,,,,,,,,,NaN,,,,,,,,high,high,,,,,,,false,,,,,false,832019,832018.9000000954,,832018.8000000715,,831862.997,5,600,,
sequence,flow.Sequence,10_26,2023-11-20T16:47:11.066Z,,,,,,,,,,,4155.804000095348,completion,,,,,,,high,high,,,,,,,false,,,,,false,832019,832018.9000000954,827846.466,828019.1000000238,827863.096,831862.997,5,600,,
trial,html.Screen,10_27_0,2023-11-20T16:47:20.792Z,,,,1,0.0159061451859594,0.0296598845560212,,0.05,true,hl,9882.603000023868,response,1.2075172235545184,1.0570281894472333,-0.9631308150304152,-0.9116724966267612,1.0399434911569136,-1.0614895614492004,high,low,,ISIC_0072564.JPG,8,ISIC_0024235.JPG,33,28,false,0.2600000000000001,hl,keypress(j),0,false,841745.8000000715,841745.6000000238,831846.32,832019.1000000238,831862.997,841596.374,5,600,28,
break,html.Screen,10_27_1,2023-11-20T16:47:20.793Z,,,,,,,,,,,NaN,,,,,,,,high,low,,,,,,,false,,,,,false,841746,841746,,841745.8000000715,,841596.374,5,600,,
break_continue,html.Screen,10_27_2,2023-11-20T16:47:20.793Z,,,,,,,,,,,NaN,,,,,,,,high,low,,,,,,,false,,,,,false,841746.3000000715,841746.2000000477,,841746.1000000238,,841596.374,5,600,,
sequence,flow.Sequence,10_27,2023-11-20T16:47:20.793Z,,,,,,,,,,,9883.20300004771,completion,,,,,,,high,low,,,,,,,false,,,,,false,841746.3000000715,841746.2000000477,831846.32,832019.1000000238,831862.997,841596.374,5,600,,
trial,html.Screen,10_28_0,2023-11-20T16:47:25.913Z,,,,1,0.013431314305098,-0.0140597582944232,,0.05,true,hl,5270.226000023889,response,1.020990671779317,1.0570281894472333,-0.9631308150304152,-1.0116513850520903,1.0399434911569136,-1.0614895614492004,high,low,,ISIC_0069617.JPG,8,ISIC_0011995.JPG,33,28,false,0.2600000000000001,hl,keypress(j),0,false,846866.6000000238,846866.6000000238,841579.779,841746.3000000715,841596.374,846712.962,5,600,29,
break,html.Screen,10_28_1,2023-11-20T16:47:25.914Z,,,,,,,,,,,NaN,,,,,,,,high,low,,,,,,,false,,,,,false,846866.9000000954,846866.9000000954,,846866.7000000477,,846712.962,5,600,,
break_continue,html.Screen,10_28_2,2023-11-20T16:47:25.914Z,,,,,,,,,,,NaN,,,,,,,,high,low,,,,,,,false,,,,,false,846867.1000000238,846867.1000000238,,846867,,846712.962,5,600,,
sequence,flow.Sequence,10_28,2023-11-20T16:47:25.914Z,,,,,,,,,,,5270.726000023889,completion,,,,,,,high,low,,,,,,,false,,,,,false,846867.3000000715,846867.1000000238,841579.779,841746.3000000715,841596.374,846712.962,5,600,,
trial,html.Screen,10_29_0,2023-11-20T16:47:30.729Z,,,,1,0.0113873532168551,0.0054999201556291,,0.05,false,hl,4968.93800009531,response,1.0143509683988825,1.0570281894472333,-0.9631308150304152,-1.3163955902021656,1.0399434911569136,-1.0614895614492004,high,low,,ISIC_8812621.JPG,9,ISIC_0062031.JPG,33,28,false,0.2600000000000001,ll,keypress(f),0,false,851682,851681.9000000954,846696.143,846867.3000000715,846712.962,851529.6,5,600,30,
break,html.Screen,10_29_1,2023-11-20T16:47:30.729Z,,,,,,,,,,,NaN,,,,,,,,high,low,,,,,,,false,,,,,false,851682.3000000715,851682.2000000477,,851682.1000000238,,851529.6,5,600,,
break_continue,html.Screen,10_29_2,2023-11-20T16:47:30.729Z,,,,,,,,,,,NaN,,,,,,,,high,low,,,,,,,false,,,,,false,851682.5,851682.5,,851682.3000000715,,851529.6,5,600,,
sequence,flow.Sequence,10_29,2023-11-20T16:47:30.729Z,,,,,,,,,,,4969.537999999942,completion,,,,,,,high,low,,,,,,,false,,,,,false,851682.5,851682.5,846696.143,846867.3000000715,846712.962,851529.6,5,600,,
trial,html.Screen,10_30_0,2023-11-20T16:47:37.273Z,,,,1,-0.0389988030702649,-0.0143212271490256,,0.05,false,ll,6696.400000000023,response,-0.8760226494531969,1.0570281894472333,-0.9631308150304152,-1.1346099537107004,1.0399434911569136,-1.0614895614492004,low,low,,ISIC_0064669.JPG,9,ISIC_0053742.JPG,33,37,false,0.1,lh,keypress(e),0,false,858226.1000000238,858226,851513.127,851682.6000000238,851529.6,858062.949,5,600,31,
break,html.Screen,10_30_1,2023-11-20T16:47:37.273Z,,,,,,,,,,,NaN,,,,,,,,low,low,,,,,,,false,,,,,false,858226.3000000715,858226.3000000715,,858226.2000000477,,858062.949,5,600,,
break_continue,html.Screen,10_30_2,2023-11-20T16:47:37.273Z,,,,,,,,,,,NaN,,,,,,,,low,low,,,,,,,false,,,,,false,858226.6000000238,858226.5,,858226.5,,858062.949,5,600,,
sequence,flow.Sequence,10_30,2023-11-20T16:47:37.273Z,,,,,,,,,,,6696.900000000023,completion,,,,,,,low,low,,,,,,,false,,,,,false,858226.7000000477,858226.5,851513.127,851682.6000000238,851529.6,858062.949,5,600,,
trial,html.Screen,10_31_0,2023-11-20T16:47:41.513Z,,,,1,-0.0027483411352856,-0.0100996915276271,,0.05,false,hl,4403.550999999978,response,1.0656673213158945,1.0570281894472333,-0.9631308150304152,-0.8082541692781954,1.0399434911569136,-1.0614895614492004,high,low,,ISIC_7364041.JPG,9,ISIC_0033985.JPG,33,28,false,0.2600000000000001,hh,keypress(i),0,false,862466.5,862466.5,858046.64,858226.7000000477,858062.949,862313.036,5,600,32,
break,html.Screen,10_31_1,2023-11-20T16:47:41.514Z,,,,,,,,,,,NaN,,,,,,,,high,low,,,,,,,false,,,,,false,862466.9000000954,862466.8000000715,,862466.6000000238,,862313.036,5,600,,
break_continue,html.Screen,10_31_2,2023-11-20T16:47:41.514Z,,,,,,,,,,,NaN,,,,,,,,high,low,,,,,,,false,,,,,false,862467.1000000238,862467,,862466.9000000954,,862313.036,5,600,,
sequence,flow.Sequence,10_31,2023-11-20T16:47:41.514Z,,,,,,,,,,,4404.050999999978,completion,,,,,,,high,low,,,,,,,false,,,,,false,862467.2000000477,862467,858046.64,858226.7000000477,858062.949,862313.036,5,600,,
trial,html.Screen,10_32_0,2023-11-20T16:47:44.761Z,,,,1,0.0245376145053177,-0.0436993426328401,,0.05,false,hl,3401.3640000954038,response,0.8579451262594331,1.0570281894472333,-0.9631308150304152,-0.9633172970727744,1.0399434911569136,-1.0614895614492004,high,low,,ISIC_0056444.JPG,9,ISIC_0067172.JPG,33,28,false,0.2600000000000001,hh,keypress(i),0,false,865714.4000000954,865714.4000000954,862296.408,862467.2000000477,862313.036,865563.021,5,600,33,
break,html.Screen,10_32_1,2023-11-20T16:47:44.761Z,,,,,,,,,,,NaN,,,,,,,,high,low,,,,,,,false,,,,,false,865714.7000000477,865714.7000000477,,865714.6000000238,,865563.021,5,600,,
break_continue,html.Screen,10_32_2,2023-11-20T16:47:44.762Z,,,,,,,,,,,NaN,,,,,,,,high,low,,,,,,,false,,,,,false,865715,865714.9000000954,,865714.8000000715,,865563.021,5,600,,
sequence,flow.Sequence,10_32,2023-11-20T16:47:44.762Z,,,,,,,,,,,3401.8640000954038,completion,,,,,,,high,low,,,,,,,false,,,,,false,865715,865714.9000000954,862296.408,862467.2000000477,862313.036,865563.021,5,600,,
trial,html.Screen,10_33_0,2023-11-20T16:47:51.433Z,,,,1,-0.0070725527271049,-0.0049995141077508,,0.05,true,lh,6823.279000071576,response,-0.7870237732709365,1.0570281894472333,-0.9631308150304152,0.9172955251119376,1.0399434911569136,-1.0614895614492004,low,high,,ISIC_6124481.JPG,9,ISIC_0057716.JPG,33,27,false,0.2500000000000001,lh,keypress(e),0,false,872386.5,872386.3000000715,865546.404,865715.1000000238,865563.021,872229.601,5,600,34,
break,html.Screen,10_33_1,2023-11-20T16:47:51.433Z,,,,,,,,,,,NaN,,,,,,,,low,high,,,,,,,false,,,,,false,872386.7000000477,872386.7000000477,,872386.6000000238,,872229.601,5,600,,
break_continue,html.Screen,10_33_2,2023-11-20T16:47:51.434Z,,,,,,,,,,,NaN,,,,,,,,low,high,,,,,,,false,,,,,false,872386.9000000954,872386.9000000954,,872386.8000000715,,872229.601,5,600,,
sequence,flow.Sequence,10_33,2023-11-20T16:47:51.434Z,,,,,,,,,,,6823.879000095418,completion,,,,,,,low,high,,,,,,,false,,,,,false,872386.9000000954,872386.9000000954,865546.404,865715,865563.021,872229.601,5,600,,
trial,html.Screen,10_34_0,2023-11-20T16:47:55.305Z,,,,1,0.0113873532168551,0.0054999201556291,,0.05,false,hl,4028.5990000476595,response,1.0656673213158945,1.0570281894472333,-0.9631308150304152,-0.8082541692781954,1.0399434911569136,-1.0614895614492004,high,low,,ISIC_8812621.JPG,9,ISIC_0033985.JPG,33,28,false,0.2600000000000001,hh,keypress(i),0,false,876258.3000000715,876258.2000000477,872212.912,872387,872229.601,876096.202,5,600,35,
break,html.Screen,10_34_1,2023-11-20T16:47:55.305Z,,,,,,,,,,,NaN,,,,,,,,high,low,,,,,,,false,,,,,false,876258.6000000238,876258.5,,876258.4000000954,,876096.202,5,600,,
break_continue,html.Screen,10_34_2,2023-11-20T16:47:55.306Z,,,,,,,,,,,NaN,,,,,,,,high,low,,,,,,,false,,,,,false,876258.8000000715,876258.7000000477,,876258.6000000238,,876096.202,5,600,,
sequence,flow.Sequence,10_34,2023-11-20T16:47:55.306Z,,,,,,,,,,,4029.0990000476595,completion,,,,,,,high,low,,,,,,,false,,,,,false,876258.9000000954,876258.7000000477,872212.912,872387,872229.601,876096.202,5,600,,
trial,html.Screen,10_35_0,2023-11-20T16:47:58.873Z,,,,1,-0.0070725527271049,-0.0049995141077508,,0.05,false,lh,3730.2979999999516,response,-0.8816288864119318,1.0570281894472333,-0.9631308150304152,0.801867301188093,1.0399434911569136,-1.0614895614492004,low,high,,ISIC_6124481.JPG,9,ISIC_9196783.JPG,33,27,false,0.2500000000000001,ll,keypress(f),0,false,879826.6000000238,879826.5,876079.586,876258.9000000954,876096.202,879680.105,5,600,36,
break,html.Screen,10_35_1,2023-11-20T16:47:58.874Z,,,,,,,,,,,NaN,,,,,,,,low,high,,,,,,,false,,,,,false,879826.9000000954,879826.9000000954,,879826.8000000715,,879680.105,5,600,,
break_continue,html.Screen,10_35_2,2023-11-20T16:47:58.874Z,,,,,,,,,,,NaN,,,,,,,,low,high,,,,,,,false,,,,,false,879827.1000000238,879827,,879827,,879680.105,5,600,,
sequence,flow.Sequence,10_35,2023-11-20T16:47:58.874Z,,,,,,,,,,,3730.7979999999516,completion,,,,,,,low,high,,,,,,,false,,,,,false,879827.2000000477,879827,876079.586,876258.9000000954,876096.202,879680.105,5,600,,
trial,html.Screen,10_36_0,2023-11-20T16:48:00.729Z,,,,1,0.0097091270150747,-0.0417921315885292,,0.05,false,hl,2002.295000095386,response,1.0143509683988825,1.0570281894472333,-0.9631308150304152,-1.3163955902021656,1.0399434911569136,-1.0614895614492004,high,low,,ISIC_3967213.JPG,9,ISIC_0062031.JPG,33,28,false,0.2600000000000001,ll,keypress(f),0,false,881682.5,881682.4000000954,879646.365,879827.2000000477,879680.105,881529.765,5,600,37,
break,html.Screen,10_36_1,2023-11-20T16:48:00.729Z,,,,,,,,,,,NaN,,,,,,,,high,low,,,,,,,false,,,,,false,881682.8000000715,881682.7000000477,,881682.5,,881529.765,5,600,,
break_continue,html.Screen,10_36_2,2023-11-20T16:48:00.730Z,,,,,,,,,,,NaN,,,,,,,,high,low,,,,,,,false,,,,,false,881682.9000000954,881682.8000000715,,881682.8000000715,,881529.765,5,600,,
sequence,flow.Sequence,10_36,2023-11-20T16:48:00.730Z,,,,,,,,,,,2002.6950000715442,completion,,,,,,,high,low,,,,,,,false,,,,,false,881683,881682.8000000715,879646.365,879827.2000000477,879680.105,881529.765,5,600,,
trial,html.Screen,10_37_0,2023-11-20T16:48:11.546Z,,,,1,0.0159061451859594,0.0296598845560212,,0.05,false,hl,10969.035000071512,response,0.879102500583965,1.0570281894472333,-0.9631308150304152,-1.0933081951979773,1.0399434911569136,-1.0614895614492004,high,low,,ISIC_0072564.JPG,9,ISIC_0046223.JPG,33,28,false,0.2600000000000001,ll,keypress(f),0,false,892498.9000000954,892498.8000000715,881512.991,881683.1000000238,881529.765,892346.388,5,600,38,
break,html.Screen,10_37_1,2023-11-20T16:48:11.546Z,,,,,,,,,,,NaN,,,,,,,,high,low,,,,,,,false,,,,,false,892499.2000000477,892499.2000000477,,892499,,892346.388,5,600,,
break_continue,html.Screen,10_37_2,2023-11-20T16:48:11.546Z,,,,,,,,,,,NaN,,,,,,,,high,low,,,,,,,false,,,,,false,892499.4000000954,892499.3000000715,,892499.2000000477,,892346.388,5,600,,
