sender,sender_type,sender_id,timestamp,meta,,age,blockNo,c1,c2,condition,control_tolerance,correct,correctResponse,duration,ended_on,f1,f1_high,f1_low,f2,f2_high,f2_low,feature_level1,feature_level2,gender,img_left,img_reveal,img_right,n_control_images,n_target_images,practice,range_tolerance,response,response_action,selection_duration,staircase,time_commit,time_end,time_render,time_run,time_show,time_switch,total_blocks,total_trials,trialNo,url
informed_consent,html.Screen,0,2023-11-20T17:38:19.467Z,"{""labjs_version"":""20.2.4"",""labjs_build"":{""flavor"":""development"",""commit"":""f5b4a49f956347addd546a832a3327688c2c0fef""},""location"":""https://labjs.felixhenninger.com/api/labjs_preview/index.html"",""userAgent"":""Mozilla/5.0 (Windows NT 10.0; Win64; x64) AppleWebKit/537.36 (KHTML, like Gecko) Chrome/119.0.0.0 Safari/537.36"",""platform"":""Win32"",""language"":""en-US"",""locale"":""en-US"",""timeZone"":""America/Chicago"",""timezoneOffset"":360,""screen_width"":1680,""screen_height"":1050,""scroll_width"":825,""scroll_height"":888,""window_innerWidth"":825,""window_innerHeight"":936,""devicePixelRatio"":1}",,,,,,,,,,37792.36999992847,response,,,,,,,,,,,,,,,,,consent,click button,,,38452.299999952316,38444.199999928474,634.98,631.2999999523163,651.83,38458.623,,,,{}
Demography form,html.Form,1,2023-11-20T17:38:26.245Z,,,18,,,,,,,,6770.676999952317,form submission,,,,,,,,,female,,,,,,,,,,,,45229.5,45229.299999952316,38442.065,38452.5,38458.623,45238.475,,,,
Welcome,html.Screen,2,2023-11-20T17:39:06.396Z,,,,,,,"[""asym"",""bor""]",,,,40141.724999928476,response,,,,,,,,,,,,,,,,,continue,click button,,,85380.79999995232,85380.19999992847,45221.732,45229.59999990463,45238.475,85383.152,,,,
demo_instructions,html.Screen,3,2023-11-20T17:39:28.613Z,,,,,,,,,,,22212.747999976156,response,,,,,,,,,,,,,,,,,continue,click button,,,107596.59999990463,107595.89999997616,85366.593,85380.89999997616,85383.152,107609.697,,,,
trial,html.Screen,4_0_0,2023-11-20T17:39:39.711Z,,,,0,-1.242586748440878,-1.1207933200172129,,,true,hh,11085.202999976158,response,1.0959058628476686,1.2,-1.2,1.1684835186766898,1.2,-1.2,high,high,,ISIC_0013073.JPG,,ISIC_5920470.JPG,,26,true,0.15000000000000002,hh,keypress(i),100,false,118695.19999992847,118694.89999997616,107593.071,107596.69999992847,107609.697,118714.647,1,16,1,
sequence,flow.Sequence,4_0,2023-11-20T17:39:39.712Z,,,,,,,,,,,11085.202999976158,completion,,,,,,,high,high,,,,,,,true,,,,,false,118695.59999990463,118694.89999997616,107593.071,107596.69999992847,107609.697,118714.647,1,16,,
trial,html.Screen,4_1_0,2023-11-20T17:39:50.700Z,,,,0,-1.1033977063872138,-1.2513071571733083,,,true,hh,10968.853000000003,response,1.086647361897092,1.2,-1.2,1.1528935990320313,1.2,-1.2,high,high,,ISIC_0025472.JPG,,ISIC_3505339.JPG,,26,true,0.15000000000000002,hh,keypress(i),100,false,129683.79999995232,129683.5,118697.962,118695.79999995232,118714.647,129702.823,1,16,2,
sequence,flow.Sequence,4_1,2023-11-20T17:39:50.700Z,,,,,,,,,,,10968.853000000003,completion,,,,,,,high,high,,,,,,,true,,,,,false,129684,129683.5,118697.962,118695.69999992847,118714.647,129702.823,1,16,,
trial,html.Screen,4_2_0,2023-11-20T17:39:55.686Z,,,,0,-1.2249552940807693,-1.1723015116910682,,,true,hh,4967.176999999996,response,1.2724584600905462,1.2,-1.2,1.1411016103695344,1.2,-1.2,high,high,,ISIC_0055251.JPG,,ISIC_0059625.JPG,,26,true,0.15000000000000002,hh,keypress(i),100,false,134670.19999992847,134670,129685.989,129684.19999992847,129702.823,134695.694,1,16,3,
sequence,flow.Sequence,4_2,2023-11-20T17:39:55.686Z,,,,,,,,,,,4967.176999999996,completion,,,,,,,high,high,,,,,,,true,,,,,false,134670.39999997616,134670,129685.989,129684.09999990463,129702.823,134695.694,1,16,,
trial,html.Screen,4_3_0,2023-11-20T17:40:01.214Z,,,,0,-1.1346217981791904,-1.1555132168806113,,,true,hh,5501.905999904644,response,1.1137763092539212,1.2,-1.2,1.1599906701455132,1.2,-1.2,high,high,,ISIC_0032771.JPG,,ISIC_5413788.JPG,,26,true,0.15000000000000002,hh,keypress(i),100,false,140197.69999992847,140197.59999990463,134679.066,134670.39999997616,134695.694,140223.165,1,16,4,
sequence,flow.Sequence,4_3,2023-11-20T17:40:01.214Z,,,,,,,,,,,5501.905999904644,completion,,,,,,,high,high,,,,,,,true,,,,,false,140197.89999997616,140197.59999990463,134679.066,134670.39999997616,134695.694,140223.165,1,16,,
trial,html.Screen,4_4_0,2023-11-20T17:40:09.060Z,,,,0,1.2711018615747949,1.1042234044781618,,,true,ll,7820.434999904624,response,-1.2071341803968807,1.2,-1.2,-1.235960269089932,1.2,-1.2,low,low,,ISIC_8603734.JPG,,ISIC_0058174.JPG,,30,true,0.1,ll,keypress(f),100,false,148043.79999995232,148043.59999990463,140206.606,140198,140223.165,148071.742,1,16,5,
sequence,flow.Sequence,4_4,2023-11-20T17:40:09.060Z,,,,,,,,,,,7820.434999904624,completion,,,,,,,low,low,,,,,,,true,,,,,false,148044,148043.59999990463,140206.606,140198,140223.165,148071.742,1,16,,
trial,html.Screen,4_5_0,2023-11-20T17:40:13.211Z,,,,0,1.3411179702686655,1.255103311449152,,,true,ll,4123.357999904634,response,-1.0698162624196283,1.2,-1.2,-1.219634566983089,1.2,-1.2,low,low,,ISIC_5611010.JPG,,ISIC_0030552.JPG,,53,true,0.15000000000000002,ll,keypress(f),100,false,152195.19999992847,152195.09999990463,148055.02,148044,148071.742,152213.13,1,16,6,
sequence,flow.Sequence,4_5,2023-11-20T17:40:13.211Z,,,,,,,,,,,4123.357999904634,completion,,,,,,,low,low,,,,,,,true,,,,,false,152195.39999997616,152195.09999990463,148055.02,148044,148071.742,152213.13,1,16,,
trial,html.Screen,4_6_0,2023-11-20T17:40:16.803Z,,,,0,1.0870240111136478,1.332340670965917,,,true,ll,3573.8699999999953,response,-1.2181031651370575,1.2,-1.2,-1.2158573487067317,1.2,-1.2,low,low,,ISIC_0000660.JPG,,ISIC_7242312.JPG,,53,true,0.15000000000000002,ll,keypress(f),100,false,155787.19999992847,155787,152196.417,152195.5,152213.13,155803.675,1,16,7,
sequence,flow.Sequence,4_6,2023-11-20T17:40:16.804Z,,,,,,,,,,,3573.8699999999953,completion,,,,,,,low,low,,,,,,,true,,,,,false,155787.59999990463,155787,152196.417,152195.5,152213.13,155803.675,1,16,,
trial,html.Screen,4_7_0,2023-11-20T17:40:19.148Z,,,,0,1.1388430156686884,1.2700552354887775,,,true,ll,2328.424999904644,response,-1.2169050727663315,1.2,-1.2,-1.1067845563421794,1.2,-1.2,low,low,,ISIC_9939653.JPG,,ISIC_7016261.JPG,,53,true,0.15000000000000002,ll,keypress(f),100,false,158132.29999995232,158132.09999990463,155786.816,155787.69999992847,155803.675,158158.029,1,16,8,
sequence,flow.Sequence,4_7,2023-11-20T17:40:19.149Z,,,,,,,,,,,2328.424999904644,completion,,,,,,,low,low,,,,,,,true,,,,,false,158132.5,158132.09999990463,155786.816,155787.69999992847,155803.675,158158.029,1,16,,
trial,html.Screen,4_8_0,2023-11-20T17:40:24.176Z,,,,0,0.8487429103619056,-0.9778257804233036,,,true,lh,5001.97099999999,response,-1.0164576835546473,1.2,-1.2,0.8120626538423016,1.2,-1.2,low,high,,ISIC_4554863.JPG,,ISIC_6002694.JPG,,27,true,0.42000000000000026,lh,keypress(e),100,false,163160.19999992847,163160,158141.378,158132.69999992847,158158.029,163184.522,1,16,9,
sequence,flow.Sequence,4_8,2023-11-20T17:40:24.176Z,,,,,,,,,,,5001.97099999999,completion,,,,,,,low,high,,,,,,,true,,,,,false,163160.39999997616,163160,158141.378,158132.59999990463,158158.029,163184.522,1,16,,
trial,html.Screen,4_9_0,2023-11-20T17:40:28.022Z,,,,0,0.879102500583965,-1.0933081951979773,,,true,lh,3821.377999976161,response,-1.0164576835546473,1.2,-1.2,0.8120626538423016,1.2,-1.2,low,high,,ISIC_0046223.JPG,,ISIC_6002694.JPG,,27,true,0.42000000000000026,lh,keypress(e),100,false,167006.19999992847,167005.89999997616,163167.77,163160.5,163184.522,167025.258,1,16,10,
sequence,flow.Sequence,4_9,2023-11-20T17:40:28.023Z,,,,,,,,,,,3821.377999976161,completion,,,,,,,low,high,,,,,,,true,,,,,false,167006.59999990463,167005.89999997616,163167.77,163160.5,163184.522,167025.258,1,16,,
trial,html.Screen,4_10_0,2023-11-20T17:40:33.059Z,,,,0,0.879102500583965,-1.0933081951979773,,,true,lh,5016.841999904631,response,-0.8655167308525522,1.2,-1.2,0.9298580423306444,1.2,-1.2,low,high,,ISIC_0046223.JPG,,ISIC_4603706.JPG,,27,true,0.42000000000000026,lh,keypress(e),100,false,172042.19999992847,172042.09999990463,167008.59,167006.69999992847,167025.258,172068.429,1,16,11,
sequence,flow.Sequence,4_10,2023-11-20T17:40:33.059Z,,,,,,,,,,,5016.841999904631,completion,,,,,,,low,high,,,,,,,true,,,,,false,172042.5,172042.09999990463,167008.59,167006.69999992847,167025.258,172068.429,1,16,,
trial,html.Screen,4_11_0,2023-11-20T17:40:37.639Z,,,,0,0.8487429103619056,-0.9778257804233036,,,true,lh,4553.770999928471,response,-0.8623414234919863,1.2,-1.2,0.782830143980698,1.2,-1.2,low,high,,ISIC_4554863.JPG,,ISIC_2727016.JPG,,27,true,0.42000000000000026,lh,keypress(e),100,false,176622.29999995232,176622.19999992847,172051.738,172042.59999990463,172068.429,176643.953,1,16,12,
sequence,flow.Sequence,4_11,2023-11-20T17:40:37.639Z,,,,,,,,,,,4553.770999928471,completion,,,,,,,low,high,,,,,,,true,,,,,false,176622.5,176622.19999992847,172051.738,172042.59999990463,172068.429,176643.953,1,16,,
trial,html.Screen,4_12_0,2023-11-20T17:40:48.135Z,,,,0,-0.8655167308525522,0.9298580423306444,,,true,hl,10474.346999952308,response,1.0143509683988825,1.2,-1.2,-1.3163955902021656,1.2,-1.2,high,low,,ISIC_4603706.JPG,,ISIC_0062031.JPG,,26,true,0.3600000000000002,hl,keypress(j),100,false,187118.5,187118.29999995232,176627.297,176622.59999990463,176643.953,187147.738,1,16,13,
sequence,flow.Sequence,4_12,2023-11-20T17:40:48.135Z,,,,,,,,,,,10474.346999952308,completion,,,,,,,high,low,,,,,,,true,,,,,false,187118.79999995232,187118.29999995232,176627.297,176622.59999990463,176643.953,187147.738,1,16,,
trial,html.Screen,4_13_0,2023-11-20T17:40:54.409Z,,,,0,-0.8655167308525522,0.9298580423306444,,,true,hl,6245.061999952304,response,1.2331439637486756,1.2,-1.2,-0.9691143900156988,1.2,-1.2,high,low,,ISIC_4603706.JPG,,ISIC_7877488.JPG,,33,true,0.42000000000000026,hl,keypress(j),100,false,193393,193392.79999995232,187131.067,187118.89999997616,187147.738,193426.612,1,16,14,
sequence,flow.Sequence,4_13,2023-11-20T17:40:54.410Z,,,,,,,,,,,6245.061999952304,completion,,,,,,,high,low,,,,,,,true,,,,,false,193393.39999997616,193392.79999995232,187131.067,187118.89999997616,187147.738,193426.612,1,16,,
trial,html.Screen,4_14_0,2023-11-20T17:40:58.430Z,,,,0,-1.4092385398614515,1.3046237992197836,,,true,hl,3986.7879999761644,response,1.2075172235545184,1.2,-1.2,-0.9116724966267612,1.2,-1.2,high,low,,ISIC_7254359.JPG,,ISIC_0024235.JPG,,33,true,0.42000000000000026,hl,keypress(j),100,false,197413.5,197413.39999997616,193393.28,193393.59999990463,193426.612,197434.425,1,16,15,
sequence,flow.Sequence,4_14,2023-11-20T17:40:58.430Z,,,,,,,,,,,3986.7879999761644,completion,,,,,,,high,low,,,,,,,true,,,,,false,197413.89999997616,197413.39999997616,193393.28,193393.59999990463,193426.612,197434.425,1,16,,
trial,html.Screen,4_15_0,2023-11-20T17:41:11.979Z,,,,0,-0.8200962008791046,0.7936051642828523,,,true,hl,13527.674999904644,response,0.9454713230140772,1.2,-1.2,-0.9245167441969216,1.2,-1.2,high,low,,ISIC_0027031.JPG,,ISIC_9101055.JPG,,33,true,0.42000000000000026,hl,keypress(j),100,false,210962.29999995232,210962.09999990463,197417.755,197414,197434.425,210994.199,1,16,16,
sequence,flow.Sequence,4_15,2023-11-20T17:41:11.979Z,,,,,,,,,,,13527.674999904644,completion,,,,,,,high,low,,,,,,,true,,,,,false,210962.59999990463,210962.09999990463,197417.755,197414,197434.425,210994.199,1,16,,
demonstration_loop,flow.Loop,4,2023-11-20T17:41:11.979Z,,,,,,,,,,,103352.40299990463,completion,,,,,,,,,,,,,,,true,,,,,false,210962.79999995232,210962.09999990463,107593.071,107596.69999992847,107609.697,210994.199,1,16,,
practice_instructions,html.Screen,5,2023-11-20T17:41:22.901Z,,,,,,,,,,,10881.90099990464,response,,,,,,,,,,,,,,,,,continue,click button,,,221885,221876.09999990463,210977.423,210962.79999995232,210994.199,221898.788,,,,
trial,html.Screen,6_0_0,2023-11-20T17:41:30.711Z,,,,1,1.241406480986552,1.081912821786771,,,true,ll,7794.2119999999995,response,-1.2282561398079586,1.2,-1.2,-1.210457198775374,1.2,-1.2,low,low,,ISIC_4223155.JPG,,ISIC_9141817.JPG,,30,true,0.1,ll,keypress(f),0,false,229693.29999995232,229693,221881.985,221885.09999990463,221898.788,229713.845,1,40,1,
sequence,flow.Sequence,6_0,2023-11-20T17:41:30.711Z,,,,,,,,,,,7794.2119999999995,completion,,,,,,,low,low,,,,,,,true,,,,,false,229693.39999997616,229693,221881.985,221885.09999990463,221898.788,229713.845,1,40,,
trial,html.Screen,6_1_0,2023-11-20T17:41:39.015Z,,,,1,-1.276222161935671,0.9657780821973284,,,true,hl,8283.554999976157,response,0.9696118525781644,1.2,-1.2,-0.9244148283103414,1.2,-1.2,high,low,,ISIC_6710411.JPG,,ISIC_7927525.JPG,,26,true,0.3600000000000002,hl,keypress(j),0,false,237997.59999990463,237997.39999997616,229697.161,229693.5,229713.845,238013.396,1,40,2,
sequence,flow.Sequence,6_1,2023-11-20T17:41:39.015Z,,,,,,,,,,,8283.554999976157,completion,,,,,,,high,low,,,,,,,true,,,,,false,237998,237997.39999997616,229697.161,229693.39999997616,229713.845,238013.396,1,40,,
trial,html.Screen,6_2_0,2023-11-20T17:41:49.798Z,,,,1,1.2318069697449794,1.1703576816778267,,,true,ll,10766.903999952308,response,-0.8665886246441876,1.2,-1.2,-0.8507210279123499,1.2,-1.2,low,low,,ISIC_2732573.JPG,,ISIC_1071355.JPG,,339,true,0.42000000000000026,ll,keypress(f),0,false,248780.39999997616,248780.29999995232,237996.601,237998.09999990463,238013.396,248800.965,1,40,3,
sequence,flow.Sequence,6_2,2023-11-20T17:41:49.798Z,,,,,,,,,,,10766.903999952308,completion,,,,,,,low,low,,,,,,,true,,,,,false,248780.5,248780.29999995232,237996.601,237998.09999990463,238013.396,248800.965,1,40,,
trial,html.Screen,6_3_0,2023-11-20T17:42:00.247Z,,,,1,0.869932994914832,-0.8880533324432531,,,true,lh,10428.234999928478,response,-0.9388660854518424,1.2,-1.2,0.79533948698576,1.2,-1.2,low,high,,ISIC_8617084.JPG,,ISIC_9291926.JPG,,27,true,0.42000000000000026,lh,keypress(e),0,false,259229.39999997616,259229.19999992847,248767.559,248780.59999990463,248800.965,259237.983,1,40,4,
sequence,flow.Sequence,6_3,2023-11-20T17:42:00.247Z,,,,,,,,,,,10428.234999928478,completion,,,,,,,low,high,,,,,,,true,,,,,false,259229.69999992847,259229.19999992847,248767.559,248780.59999990463,248800.965,259237.983,1,40,,
trial,html.Screen,6_4_0,2023-11-20T17:42:09.838Z,,,,1,-1.1383813631375823,-1.1319312220332556,,,true,hh,9583.016999999993,response,1.008381128411934,1.2,-1.2,1.0088020117106191,1.2,-1.2,high,high,,ISIC_6227397.JPG,,ISIC_6546903.JPG,,179,true,0.3600000000000002,hh,keypress(i),0,false,268821.09999990463,268821,259221.406,259229.79999995232,259237.983,268823.269,1,40,5,
sequence,flow.Sequence,6_4,2023-11-20T17:42:09.839Z,,,,,,,,,,,9583.016999999993,completion,,,,,,,high,high,,,,,,,true,,,,,false,268821.39999997616,268821,259221.406,259229.69999992847,259237.983,268823.269,1,40,,
trial,html.Screen,6_5_0,2023-11-20T17:42:14.150Z,,,,1,-1.1253220985777015,-1.108725659461368,,,true,hh,4309.630999976187,response,1.0717785279820962,1.2,-1.2,1.1267239445830604,1.2,-1.2,high,high,,ISIC_0054954.JPG,,ISIC_9948815.JPG,,26,true,0.15000000000000002,hh,keypress(i),0,false,273133.09999990463,273132.89999997616,268806.563,268821.5,268823.269,273148.399,1,40,6,
sequence,flow.Sequence,6_5,2023-11-20T17:42:14.151Z,,,,,,,,,,,4309.630999976187,completion,,,,,,,high,high,,,,,,,true,,,,,false,273133.39999997616,273132.89999997616,268806.563,268821.5,268823.269,273148.399,1,40,,
trial,html.Screen,6_6_0,2023-11-20T17:42:18.942Z,,,,1,1.1642596483638106,1.109799097093339,,,true,ll,4776.101000000024,response,-1.2322060291690602,1.2,-1.2,-1.2686491386389651,1.2,-1.2,low,low,,ISIC_0765584.JPG,,ISIC_0011697.JPG,,30,true,0.1,ll,keypress(f),0,false,277924.6999999285,277924.5,273131.734,273133.5,273148.399,277941.237,1,40,7,
sequence,flow.Sequence,6_6,2023-11-20T17:42:18.942Z,,,,,,,,,,,4776.101000000024,completion,,,,,,,low,low,,,,,,,true,,,,,false,277924.7999999523,277924.5,273131.734,273133.39999997616,273148.399,277941.237,1,40,,
trial,html.Screen,6_7_0,2023-11-20T17:42:27.334Z,,,,1,-1.101214461533281,-1.1849883512428183,,,true,hh,8375.36299990461,response,1.2724584600905462,1.2,-1.2,1.1411016103695344,1.2,-1.2,high,high,,ISIC_0064943.JPG,,ISIC_0059625.JPG,,26,true,0.15000000000000002,hh,keypress(i),0,false,286316.6999999285,286316.59999990463,277924.48,277924.89999997616,277941.237,286340.651,1,40,8,
sequence,flow.Sequence,6_7,2023-11-20T17:42:27.334Z,,,,,,,,,,,8375.36299990461,completion,,,,,,,high,high,,,,,,,true,,,,,false,286316.7999999523,286316.59999990463,277924.48,277924.7999999523,277941.237,286340.651,1,40,,
trial,html.Screen,6_8_0,2023-11-20T17:42:38.774Z,,,,1,0.9454713230140772,-0.9245167441969216,,,false,lh,11415.748999976146,response,-0.9235571765207048,1.2,-1.2,1.0008081653938232,1.2,-1.2,low,high,,ISIC_9101055.JPG,,ISIC_8796632.JPG,,27,true,0.42000000000000026,ll,keypress(f),0,false,297756.5,297756.39999997616,286307.35,286316.89999997616,286340.651,297762.853,1,40,9,
sequence,flow.Sequence,6_8,2023-11-20T17:42:38.775Z,,,,,,,,,,,11415.748999976146,completion,,,,,,,low,high,,,,,,,true,,,,,false,297756.6999999285,297756.39999997616,286307.35,286316.89999997616,286340.651,297762.853,1,40,,
trial,html.Screen,6_9_0,2023-11-20T17:42:44.951Z,,,,1,-0.8655167308525522,0.9298580423306444,,,true,hl,6170.24699990463,response,1.2695509547992938,1.2,-1.2,-0.9641099676945492,1.2,-1.2,high,low,,ISIC_4603706.JPG,,ISIC_0025841.JPG,,26,true,0.3600000000000002,hl,keypress(j),0,false,303933.2999999523,303933.09999990463,297746.077,297756.89999997616,297762.853,303941.55,1,40,10,
sequence,flow.Sequence,6_9,2023-11-20T17:42:44.951Z,,,,,,,,,,,6170.24699990463,completion,,,,,,,high,low,,,,,,,true,,,,,false,303933.6999999285,303933.09999990463,297746.077,297756.7999999523,297762.853,303941.55,1,40,,
trial,html.Screen,6_10_0,2023-11-20T17:42:48.526Z,,,,1,0.858338058340649,-0.9540612223480284,,,false,lh,3566.9500000000116,response,-0.7809949855371787,1.2,-1.2,0.8493861117004308,1.2,-1.2,low,high,,ISIC_8922893.JPG,,ISIC_7450481.JPG,,27,true,0.42000000000000026,ll,keypress(f),0,false,307508.59999990463,307508.5,303924.938,303933.7999999523,303941.55,307515.153,1,40,11,
sequence,flow.Sequence,6_10,2023-11-20T17:42:48.527Z,,,,,,,,,,,3566.9500000000116,completion,,,,,,,low,high,,,,,,,true,,,,,false,307508.7999999523,307508.5,303924.938,303933.7999999523,303941.55,307515.153,1,40,,
trial,html.Screen,6_11_0,2023-11-20T17:43:04.503Z,,,,1,-1.0115965332688306,0.8282633603842442,,,true,hl,15969.546999928483,response,1.331700944308701,1.2,-1.2,-0.9395196143259436,1.2,-1.2,high,low,,ISIC_1069587.JPG,,ISIC_1668831.JPG,,26,true,0.3600000000000002,hl,keypress(j),0,false,323484.7999999523,323484.6999999285,307498.674,307508.89999997616,307515.153,323513.09,1,40,12,
sequence,flow.Sequence,6_11,2023-11-20T17:43:04.503Z,,,,,,,,,,,15969.546999928483,completion,,,,,,,high,low,,,,,,,true,,,,,false,323485.09999990463,323484.6999999285,307498.674,307508.89999997616,307515.153,323513.09,1,40,,
trial,html.Screen,6_12_0,2023-11-20T17:43:20.513Z,,,,1,0.8579451262594331,-0.9633172970727744,,,,,16014.505999999994,timeout,-0.8816288864119318,1.2,-1.2,0.801867301188093,1.2,-1.2,low,high,,ISIC_0067172.JPG,,ISIC_9196783.JPG,,27,true,0.42000000000000026,,,0,false,339495,339494.6999999285,323496.266,323485.1999999285,323513.09,339527.596,1,40,13,
sequence,flow.Sequence,6_12,2023-11-20T17:43:20.513Z,,,,,,,,,,,15981.609999928449,completion,,,,,,,low,high,,,,,,,true,,,,,false,339495.39999997616,339494.6999999285,323496.266,323485.1999999285,323513.09,339527.596,1,40,,
trial,html.Screen,6_13_0,2023-11-20T17:43:24.871Z,,,,1,1.3189473926989124,1.0770264364718942,,,true,ll,4325.503999904613,response,-1.2750452296609045,1.2,-1.2,-1.1682369131232675,1.2,-1.2,low,low,,ISIC_6093728.JPG,,ISIC_0066399.JPG,,245,true,0.3600000000000002,ll,keypress(f),0,false,343853.39999997616,343853.09999990463,339510.903,339495.39999997616,339527.596,343869.412,1,40,14,
sequence,flow.Sequence,6_13,2023-11-20T17:43:24.872Z,,,,,,,,,,,4325.503999904613,completion,,,,,,,low,low,,,,,,,true,,,,,false,343853.6999999285,343853.09999990463,339510.903,339495.39999997616,339527.596,343869.412,1,40,,
trial,html.Screen,6_14_0,2023-11-20T17:43:28.911Z,,,,1,1.09666761087476,1.1072126870290426,,,true,ll,4022.987999976147,response,-1.2181031651370575,1.2,-1.2,-1.2158573487067317,1.2,-1.2,low,low,,ISIC_0071754.JPG,,ISIC_7242312.JPG,,53,true,0.15000000000000002,ll,keypress(f),0,false,347892.59999990463,347892.39999997616,343852.673,343853.7999999523,343869.412,347911.455,1,40,15,
sequence,flow.Sequence,6_14,2023-11-20T17:43:28.911Z,,,,,,,,,,,4022.987999976147,completion,,,,,,,low,low,,,,,,,true,,,,,false,347892.6999999285,347892.39999997616,343852.673,343853.7999999523,343869.412,347911.455,1,40,,
trial,html.Screen,6_15_0,2023-11-20T17:43:33.095Z,,,,1,-1.1474466950560966,-1.268445326285509,,,true,hh,4165.044999999984,response,1.0870240111136478,1.2,-1.2,1.332340670965917,1.2,-1.2,high,high,,ISIC_5216586.JPG,,ISIC_0000660.JPG,,26,true,0.15000000000000002,hh,keypress(i),0,false,352076.6999999285,352076.5,347877.202,347892.7999999523,347911.455,352101.877,1,40,16,
sequence,flow.Sequence,6_15,2023-11-20T17:43:33.095Z,,,,,,,,,,,4165.044999999984,completion,,,,,,,high,high,,,,,,,true,,,,,false,352076.89999997616,352076.5,347877.202,347892.7999999523,347911.455,352101.877,1,40,,
trial,html.Screen,6_16_0,2023-11-20T17:43:39.679Z,,,,1,1.2075172235545184,-0.9116724966267612,,,true,lh,6558.52299997618,response,-0.7871162143493278,1.2,-1.2,0.8429329800778957,1.2,-1.2,low,high,,ISIC_0024235.JPG,,ISIC_3439215.JPG,,27,true,0.42000000000000026,lh,keypress(e),0,false,358660.39999997616,358660.39999997616,352068.588,352076.89999997616,352101.877,358664.626,1,40,17,
sequence,flow.Sequence,6_16,2023-11-20T17:43:39.679Z,,,,,,,,,,,6558.52299997618,completion,,,,,,,low,high,,,,,,,true,,,,,false,358660.5,358660.39999997616,352068.588,352076.89999997616,352101.877,358664.626,1,40,,
trial,html.Screen,6_17_0,2023-11-20T17:43:43.783Z,,,,1,1.1598623261077452,1.203269031614007,,,true,ll,4099.573999928485,response,-1.3150500754357115,1.2,-1.2,-1.2575260551085132,1.2,-1.2,low,low,,ISIC_0002639.JPG,,ISIC_0029591.JPG,,245,true,0.3600000000000002,ll,keypress(f),0,false,362764.2999999523,362764.1999999285,358647.899,358660.5,358664.626,362772.726,1,40,18,
sequence,flow.Sequence,6_17,2023-11-20T17:43:43.783Z,,,,,,,,,,,4099.573999928485,completion,,,,,,,low,low,,,,,,,true,,,,,false,362764.39999997616,362764.1999999285,358647.899,358660.5,358664.626,362772.726,1,40,,
trial,html.Screen,6_18_0,2023-11-20T17:43:47.759Z,,,,1,-1.272699544571422,-1.12917997553565,,,true,hh,3967.8739999046084,response,1.2706447584800626,1.2,-1.2,1.0903308007916603,1.2,-1.2,high,high,,ISIC_0012057.JPG,,ISIC_9425937.JPG,,26,true,0.15000000000000002,hh,keypress(i),0,false,366740.6999999285,366740.59999990463,362755.957,362764.5,362772.726,366763.692,1,40,19,
sequence,flow.Sequence,6_18,2023-11-20T17:43:47.759Z,,,,,,,,,,,3967.8739999046084,completion,,,,,,,high,high,,,,,,,true,,,,,false,366740.89999997616,366740.59999990463,362755.957,362764.5,362772.726,366763.692,1,40,,
trial,html.Screen,6_19_0,2023-11-20T17:43:50.359Z,,,,1,1.2331439637486756,-0.9691143900156988,,,false,lh,2576.808000000019,response,-0.9873794329144926,1.2,-1.2,0.7991077882008257,1.2,-1.2,low,high,,ISIC_7877488.JPG,,ISIC_0013498.JPG,,27,true,0.42000000000000026,hh,keypress(i),0,false,369340.6999999285,369340.5,366730.441,366741,366763.692,369352.057,1,40,20,
sequence,flow.Sequence,6_19,2023-11-20T17:43:50.359Z,,,,,,,,,,,2576.808000000019,completion,,,,,,,low,high,,,,,,,true,,,,,false,369340.7999999523,369340.5,366730.441,366741,366763.692,369352.057,1,40,,
trial,html.Screen,6_20_0,2023-11-20T17:43:58.031Z,,,,1,-1.0022829373011404,0.8311726972863814,,,true,hl,7660.342999976187,response,0.858338058340649,1.2,-1.2,-0.9540612223480284,1.2,-1.2,high,low,,ISIC_0033287.JPG,,ISIC_8922893.JPG,,26,true,0.3600000000000002,hl,keypress(j),0,false,377012.5,377012.39999997616,369335.412,369340.7999999523,369352.057,377016.999,1,40,21,
sequence,flow.Sequence,6_20,2023-11-20T17:43:58.031Z,,,,,,,,,,,7660.342999976187,completion,,,,,,,high,low,,,,,,,true,,,,,false,377012.59999990463,377012.39999997616,369335.412,369340.7999999523,369352.057,377016.999,1,40,,
trial,html.Screen,6_21_0,2023-11-20T17:44:00.928Z,,,,1,1.0789197754694622,1.1654690806750023,,,true,ll,2892.3009999523056,response,-0.859741542350906,1.2,-1.2,-1.1668613502915044,1.2,-1.2,low,low,,ISIC_1576437.JPG,,ISIC_0054459.JPG,,339,true,0.42000000000000026,ll,keypress(f),0,false,379909.5,379909.2999999523,377000.445,377012.6999999285,377016.999,379939.351,1,40,22,
sequence,flow.Sequence,6_21,2023-11-20T17:44:00.928Z,,,,,,,,,,,2892.3009999523056,completion,,,,,,,low,low,,,,,,,true,,,,,false,379909.7999999523,379909.2999999523,377000.445,377012.6999999285,377016.999,379939.351,1,40,,
trial,html.Screen,6_22_0,2023-11-20T17:44:11.127Z,,,,1,-0.7809949855371787,0.8493861117004308,,,false,hl,10169.048999976134,response,0.8534691366511764,1.2,-1.2,-1.03975580494588,1.2,-1.2,high,low,,ISIC_7450481.JPG,,ISIC_0056788.JPG,,26,true,0.3600000000000002,ll,keypress(f),0,false,390108.5,390108.39999997616,379905.953,379910,379939.351,390125.879,1,40,23,
sequence,flow.Sequence,6_22,2023-11-20T17:44:11.127Z,,,,,,,,,,,10169.048999976134,completion,,,,,,,high,low,,,,,,,true,,,,,false,390108.6999999285,390108.39999997616,379905.953,379910,379939.351,390125.879,1,40,,
trial,html.Screen,6_23_0,2023-11-20T17:44:13.608Z,,,,1,-1.1253220985777015,-1.108725659461368,,,true,hh,2463.1209999999846,response,1.101961018205887,1.2,-1.2,0.891963134716088,1.2,-1.2,high,high,,ISIC_0054954.JPG,,ISIC_5625747.JPG,,253,true,0.42000000000000026,hh,keypress(i),0,false,392589.1999999285,392589,390092.566,390108.6999999285,390125.879,392597.305,1,40,24,
sequence,flow.Sequence,6_23,2023-11-20T17:44:13.608Z,,,,,,,,,,,2463.1209999999846,completion,,,,,,,high,high,,,,,,,true,,,,,false,392589.59999990463,392589,390092.566,390108.6999999285,390125.879,392597.305,1,40,,
trial,html.Screen,6_24_0,2023-11-20T17:44:16.399Z,,,,1,1.0870240111136478,1.332340670965917,,,true,ll,2783.2949999046396,response,-1.1253220985777015,1.2,-1.2,-1.108725659461368,1.2,-1.2,low,low,,ISIC_0000660.JPG,,ISIC_0054954.JPG,,30,true,0.1,ll,keypress(f),0,false,395380.7999999523,395380.59999990463,392580.842,392589.7999999523,392597.305,395402.777,1,40,25,
sequence,flow.Sequence,6_24,2023-11-20T17:44:16.399Z,,,,,,,,,,,2783.2949999046396,completion,,,,,,,low,low,,,,,,,true,,,,,false,395381.09999990463,395380.59999990463,392580.842,392589.6999999285,392597.305,395402.777,1,40,,
trial,html.Screen,6_25_0,2023-11-20T17:44:27.320Z,,,,1,1.0143509683988825,-1.3163955902021656,,,true,lh,10898.422999928473,response,-0.991146183030456,1.2,-1.2,0.9949639823722534,1.2,-1.2,low,high,,ISIC_0062031.JPG,,ISIC_6342224.JPG,,27,true,0.42000000000000026,lh,keypress(e),0,false,406301.39999997616,406301.1999999285,395369.563,395381.1999999285,395402.777,406307.323,1,40,26,
sequence,flow.Sequence,6_25,2023-11-20T17:44:27.320Z,,,,,,,,,,,10898.422999928473,completion,,,,,,,low,high,,,,,,,true,,,,,false,406301.7999999523,406301.1999999285,395369.563,395381.1999999285,395402.777,406307.323,1,40,,
trial,html.Screen,6_26_0,2023-11-20T17:44:30.008Z,,,,1,-1.101346104814838,-1.1225813067473052,,,true,hh,2681.177000000025,response,1.2706447584800626,1.2,-1.2,1.0903308007916603,1.2,-1.2,high,high,,ISIC_8175453.JPG,,ISIC_9425937.JPG,,179,true,0.3600000000000002,hh,keypress(i),0,false,408988.6999999285,408988.5,406290.796,406301.89999997616,406307.323,408995.832,1,40,27,
sequence,flow.Sequence,6_26,2023-11-20T17:44:30.008Z,,,,,,,,,,,2681.177000000025,completion,,,,,,,high,high,,,,,,,true,,,,,false,408988.89999997616,408988.5,406290.796,406301.7999999523,406307.323,408995.832,1,40,,
trial,html.Screen,6_27_0,2023-11-20T17:44:33.759Z,,,,1,1.0717785279820962,1.1267239445830604,,,true,ll,3744.2679999046377,response,-1.1253220985777015,1.2,-1.2,-1.108725659461368,1.2,-1.2,low,low,,ISIC_9948815.JPG,,ISIC_0054954.JPG,,30,true,0.1,ll,keypress(f),0,false,412740.2999999523,412740.09999990463,408979.319,408989,408995.832,412753.165,1,40,28,
sequence,flow.Sequence,6_27,2023-11-20T17:44:33.759Z,,,,,,,,,,,3744.2679999046377,completion,,,,,,,low,low,,,,,,,true,,,,,false,412740.39999997616,412740.09999990463,408979.319,408989,408995.832,412753.165,1,40,,
trial,html.Screen,6_28_0,2023-11-20T17:44:37.352Z,,,,1,0.8487429103619056,-0.9778257804233036,,,false,lh,3580.0349999284954,response,-0.948927472020595,1.2,-1.2,1.0660437155921598,1.2,-1.2,low,high,,ISIC_4554863.JPG,,ISIC_5808758.JPG,,27,true,0.42000000000000026,hl,keypress(j),0,false,416333.39999997616,416333.1999999285,412736.45,412740.39999997616,412753.165,416343.482,1,40,29,
sequence,flow.Sequence,6_28,2023-11-20T17:44:37.353Z,,,,,,,,,,,3580.0349999284954,completion,,,,,,,low,high,,,,,,,true,,,,,false,416333.6999999285,416333.1999999285,412736.45,412740.39999997616,412753.165,416343.482,1,40,,
trial,html.Screen,6_29_0,2023-11-20T17:44:46.784Z,,,,1,-0.8035152873995188,0.82868450251632,,,true,hl,9421.41799997614,response,0.9433720631499012,1.2,-1.2,-1.0582071940347648,1.2,-1.2,high,low,,ISIC_0010671.JPG,,ISIC_4890201.JPG,,26,true,0.3600000000000002,hl,keypress(j),0,false,425765.1999999285,425764.89999997616,416326.807,416333.7999999523,416343.482,425778.494,1,40,30,
sequence,flow.Sequence,6_29,2023-11-20T17:44:46.784Z,,,,,,,,,,,9421.41799997614,completion,,,,,,,high,low,,,,,,,true,,,,,false,425765.59999990463,425764.89999997616,416326.807,416333.7999999523,416343.482,425778.494,1,40,,
trial,html.Screen,6_30_0,2023-11-20T17:44:49.840Z,,,,1,-1.2254187569955004,-1.174555235109734,,,true,hh,3042.3059999523102,response,0.7828164565982022,1.2,-1.2,1.1052448965242172,1.2,-1.2,high,high,,ISIC_0027187.JPG,,ISIC_0067840.JPG,,253,true,0.42000000000000026,hh,keypress(i),0,false,428821,428820.7999999523,425761.944,425765.7999999523,425778.494,428834.424,1,40,31,
sequence,flow.Sequence,6_30,2023-11-20T17:44:49.840Z,,,,,,,,,,,3042.3059999523102,completion,,,,,,,high,high,,,,,,,true,,,,,false,428821.1999999285,428820.7999999523,425761.944,425765.6999999285,425778.494,428834.424,1,40,,
trial,html.Screen,6_31_0,2023-11-20T17:44:56.016Z,,,,1,-0.809764442462202,1.005337148078696,,,true,hl,6162.275999928475,response,1.4747161152848791,1.2,-1.2,-0.847048591307387,1.2,-1.2,high,low,,ISIC_2379379.JPG,,ISIC_0016092.JPG,,26,true,0.3600000000000002,hl,keypress(j),0,false,434996.89999997616,434996.6999999285,428817.958,428821.2999999523,428834.424,435013.281,1,40,32,
sequence,flow.Sequence,6_31,2023-11-20T17:44:56.016Z,,,,,,,,,,,6162.275999928475,completion,,,,,,,high,low,,,,,,,true,,,,,false,434997.09999990463,434996.6999999285,428817.958,428821.2999999523,428834.424,435013.281,1,40,,
trial,html.Screen,6_32_0,2023-11-20T17:44:58.168Z,,,,1,-1.152619213055059,-1.1117876838408909,,,true,hh,2135.2189999999828,response,1.0878102877901663,1.2,-1.2,0.9483364581769096,1.2,-1.2,high,high,,ISIC_0061915.JPG,,ISIC_1413242.JPG,,253,true,0.42000000000000026,hh,keypress(i),0,false,437148.6999999285,437148.5,434996.565,434997.2999999523,435013.281,437184.001,1,40,33,
sequence,flow.Sequence,6_32,2023-11-20T17:44:58.168Z,,,,,,,,,,,2135.2189999999828,completion,,,,,,,high,high,,,,,,,true,,,,,false,437148.7999999523,437148.5,434996.565,434997.1999999285,435013.281,437184.001,1,40,,
trial,html.Screen,6_33_0,2023-11-20T17:45:07.479Z,,,,1,-0.7809949855371787,0.8493861117004308,,,true,hl,9276.298999952327,response,0.8979276789594874,1.2,-1.2,-0.925374811016654,1.2,-1.2,high,low,,ISIC_7450481.JPG,,ISIC_4208361.JPG,,26,true,0.3600000000000002,hl,keypress(j),0,false,446460.39999997616,446460.2999999523,437134.111,437148.89999997616,437184.001,446468.712,1,40,34,
sequence,flow.Sequence,6_33,2023-11-20T17:45:07.479Z,,,,,,,,,,,9276.298999952327,completion,,,,,,,high,low,,,,,,,true,,,,,false,446460.5,446460.2999999523,437134.111,437148.89999997616,437184.001,446468.712,1,40,,
trial,html.Screen,6_34_0,2023-11-20T17:45:10.039Z,,,,1,1.2503149164557643,1.0796591227570405,,,true,ll,2551.1879999761586,response,-0.8760226494531969,1.2,-1.2,-1.1346099537107004,1.2,-1.2,low,low,,ISIC_2466892.JPG,,ISIC_0053742.JPG,,339,true,0.42000000000000026,ll,keypress(f),0,false,449020,449019.89999997616,446452.185,446460.59999990463,446468.712,449040.389,1,40,35,
sequence,flow.Sequence,6_34,2023-11-20T17:45:10.039Z,,,,,,,,,,,2551.1879999761586,completion,,,,,,,low,low,,,,,,,true,,,,,false,449020.09999990463,449019.89999997616,446452.185,446460.59999990463,446468.712,449040.389,1,40,,
trial,html.Screen,6_35_0,2023-11-20T17:45:22.903Z,,,,1,0.9696118525781644,-0.9244148283103414,,,true,lh,12843.610999999975,response,-0.9235571765207048,1.2,-1.2,1.0008081653938232,1.2,-1.2,low,high,,ISIC_7927525.JPG,,ISIC_8796632.JPG,,27,true,0.42000000000000026,lh,keypress(e),0,false,461884.1999999285,461884,449007.035,449020.1999999285,449040.389,461898.724,1,40,36,
sequence,flow.Sequence,6_35,2023-11-20T17:45:22.903Z,,,,,,,,,,,12843.610999999975,completion,,,,,,,low,high,,,,,,,true,,,,,false,461884.1999999285,461884,449007.035,449020.1999999285,449040.389,461898.724,1,40,,
trial,html.Screen,6_36_0,2023-11-20T17:45:25.800Z,,,,1,-1.29026082950341,-1.144672688339213,,,true,hh,2882.075999952329,response,1.451286336515085,1.2,-1.2,1.1603052285758575,1.2,-1.2,high,high,,ISIC_0054317.JPG,,ISIC_0884550.JPG,,179,true,0.3600000000000002,hh,keypress(i),0,false,464781,464780.7999999523,461881.95,461884.39999997616,461898.724,464804.386,1,40,37,
sequence,flow.Sequence,6_36,2023-11-20T17:45:25.800Z,,,,,,,,,,,2882.075999952329,completion,,,,,,,high,high,,,,,,,true,,,,,false,464781.2999999523,464780.7999999523,461881.95,461884.2999999523,461898.724,464804.386,1,40,,
trial,html.Screen,6_37_0,2023-11-20T17:45:32.001Z,,,,1,-1.4092385398614515,1.3046237992197836,,,true,hl,6176.713999904634,response,1.2364994561934892,1.2,-1.2,-0.9174173651516624,1.2,-1.2,high,low,,ISIC_7254359.JPG,,ISIC_3481133.JPG,,26,true,0.3600000000000002,hl,keypress(j),0,false,470981.39999997616,470981.09999990463,464771.206,464781.5,464804.386,471000.52,1,40,38,
sequence,flow.Sequence,6_37,2023-11-20T17:45:32.001Z,,,,,,,,,,,6176.713999904634,completion,,,,,,,high,low,,,,,,,true,,,,,false,470981.89999997616,470981.09999990463,464771.206,464781.39999997616,464804.386,471000.52,1,40,,
trial,html.Screen,6_38_0,2023-11-20T17:45:36.864Z,,,,1,1.0865333402803938,-1.0542635307358266,,,false,lh,4843.579999904614,response,-0.8655167308525522,1.2,-1.2,0.9298580423306444,1.2,-1.2,low,high,,ISIC_0034006.JPG,,ISIC_4603706.JPG,,27,true,0.42000000000000026,hl,keypress(j),0,false,475844.1999999285,475844.09999990463,470966.486,470982.1999999285,471000.52,475859.19,1,40,39,
sequence,flow.Sequence,6_38,2023-11-20T17:45:36.864Z,,,,,,,,,,,4843.579999904614,completion,,,,,,,low,high,,,,,,,true,,,,,false,475844.2999999523,475844.09999990463,470966.486,470982.09999990463,471000.52,475859.19,1,40,,
trial,html.Screen,6_39_0,2023-11-20T17:45:52.640Z,,,,1,-0.8092423703106274,1.1870093485714288,,,false,hl,15761.609999952314,response,0.8579451262594331,1.2,-1.2,-0.9633172970727744,1.2,-1.2,high,low,,ISIC_8592235.JPG,,ISIC_0067172.JPG,,26,true,0.3600000000000002,hh,keypress(i),0,false,491620.89999997616,491620.7999999523,475842.615,475844.39999997616,475859.19,491623.243,1,40,40,
sequence,flow.Sequence,6_39,2023-11-20T17:45:52.641Z,,,,,,,,,,,15761.609999952314,completion,,,,,,,high,low,,,,,,,true,,,,,false,491621.1999999285,491620.7999999523,475842.615,475844.2999999523,475859.19,491623.243,1,40,,
practice_loop,flow.Loop,6,2023-11-20T17:45:52.641Z,,,,,,,,,,,269722.0119999523,completion,,,,,,,,,,,,,,,true,,,,,false,491621.2999999523,491620.7999999523,221881.985,221885.09999990463,221898.788,491623.243,1,40,,
stair_instructions,html.Screen,7,2023-11-20T17:46:01.520Z,,,,,,,,,,,8876.5569999523,response,,,,,,,,,,,,,,,,,continue,click button,,,500500.1999999285,500499.7999999523,491606.658,491621.39999997616,491623.243,500507.181,,,,
trial,html.Screen,8_0_0,2023-11-20T17:46:17.508Z,,,,2,-0.0107854985447517,-0.0478010417136109,,0.05,,,16014.690000000002,timeout,0.7951166058716005,1.2,-1.2,-1.477327500998078,1.2,-1.2,high,low,,ISIC_0010500.JPG,,ISIC_0033925.JPG,33,33,false,0.42000000000000026,,,0,true,516489,516488.89999997616,500490.506,500500.2999999523,500507.181,516521.871,1,40,1,
sequence,flow.Sequence,8_0,2023-11-20T17:46:17.509Z,,,,,,,,,,,15981.718999976176,completion,,,,,,,high,low,,,,,,,false,,,,,true,516489.09999990463,516488.89999997616,500490.506,500500.2999999523,500507.181,516521.871,1,40,,
trial,html.Screen,8_1_0,2023-11-20T17:46:20.282Z,,,,2,-0.0057914759495055,-0.0074667911845194,,0.05,true,ll,2740.728999904648,response,-1.1474466950560966,1.2,-1.2,-1.268445326285509,1.2,-1.2,low,low,,ISIC_0058723.JPG,,ISIC_5216586.JPG,33,30,false,0.1,ll,keypress(f),0,true,519262.7999999523,519262.59999990463,516505.069,516489.2999999523,516521.871,519293.962,1,40,2,
sequence,flow.Sequence,8_1,2023-11-20T17:46:20.283Z,,,,,,,,,,,2740.728999904648,completion,,,,,,,low,low,,,,,,,false,,,,,true,519263.2999999523,519262.59999990463,516505.069,516489.1999999285,516521.871,519293.962,1,40,,
trial,html.Screen,8_2_0,2023-11-20T17:46:25.248Z,,,,2,-0.0363437082783146,-0.0333332186217051,,0.05,false,lh,4934.237999928475,response,-0.8623414234919863,1.15,-1.15,0.782830143980698,1.15,-1.15,low,high,,ISIC_3314555.JPG,,ISIC_2727016.JPG,33,27,false,0.3700000000000002,ll,keypress(f),0,true,524228.2999999523,524228.1999999285,519277.008,519263.5,519293.962,524236.624,1,40,3,
sequence,flow.Sequence,8_2,2023-11-20T17:46:25.248Z,,,,,,,,,,,4934.237999928475,completion,,,,,,,low,high,,,,,,,false,,,,,true,524228.5,524228.1999999285,519277.008,519263.5,519293.962,524236.624,1,40,,
trial,html.Screen,8_3_0,2023-11-20T17:46:31.289Z,,,,2,-0.0050679133050021,0.0009714874637896,,0.05,false,lh,6032.075999928464,response,-0.7723849213858904,1.15,-1.0153933748887476,0.888372424147899,1.15,-1.15,low,high,,ISIC_9848743.JPG,,ISIC_3884221.JPG,33,25,false,0.3300000000000002,ll,keypress(f),0,true,530268.7999999523,530268.6999999285,524220.15,524228.59999990463,524236.624,530281.756,1,40,4,
sequence,flow.Sequence,8_3,2023-11-20T17:46:31.289Z,,,,,,,,,,,6032.075999928464,completion,,,,,,,low,high,,,,,,,false,,,,,true,530269.0999999046,530268.6999999285,524220.15,524228.59999990463,524236.624,530281.756,1,40,,
trial,html.Screen,8_4_0,2023-11-20T17:46:35.913Z,,,,2,-0.0085520978188085,0.0464691161264081,,0.05,false,hl,4610.743999999948,response,1.331700944308701,1.15,-1.0153933748887476,-0.9395196143259436,1.15,-1.15,high,low,,ISIC_0758797.JPG,,ISIC_1668831.JPG,33,25,false,0.31000000000000016,hh,keypress(i),0,true,534892.6999999285,534892.5,530265.248,530269.2999999523,530281.756,534907.401,1,40,5,
sequence,flow.Sequence,8_4,2023-11-20T17:46:35.913Z,,,,,,,,,,,4610.743999999948,completion,,,,,,,high,low,,,,,,,false,,,,,true,534893,534892.5,530265.248,530269.1999999285,530281.756,534907.401,1,40,,
trial,html.Screen,8_5_0,2023-11-20T17:46:39.984Z,,,,2,0.0102460616775615,-0.0309670599545429,,0.05,true,ll,4056.79899992852,response,-1.042261683252976,1.15,-1.0153933748887476,-1.2304407834713986,1.15,-1.15,low,low,,ISIC_0072041.JPG,,ISIC_0011870.JPG,33,26,false,0.1,ll,keypress(f),0,true,538964.3999999762,538964.1999999285,534890.78,534893.0999999046,534907.401,538983.42,1,40,6,
sequence,flow.Sequence,8_5,2023-11-20T17:46:39.984Z,,,,,,,,,,,4056.79899992852,completion,,,,,,,low,low,,,,,,,false,,,,,true,538964.5,538964.1999999285,534890.78,534893.0999999046,534907.401,538983.42,1,40,,
trial,html.Screen,8_6_0,2023-11-20T17:46:47.265Z,,,,2,0.000047919190197942736,0.0462652940855003,,0.05,false,lh,7261.479999976116,response,-0.796241477082623,1.15,-1.0863512333621872,0.9017449335975743,1.15,-1.15,low,high,,ISIC_0011507.JPG,,ISIC_8588033.JPG,33,28,false,0.3600000000000002,hl,keypress(j),0,true,546245.0999999046,546244.8999999762,538948.755,538964.5999999046,538983.42,546262.957,1,40,7,
sequence,flow.Sequence,8_6,2023-11-20T17:46:47.265Z,,,,,,,,,,,7261.479999976116,completion,,,,,,,low,high,,,,,,,false,,,,,true,546245.3999999762,546244.8999999762,538948.755,538964.5,538983.42,546262.957,1,40,,
trial,html.Screen,8_7_0,2023-11-20T17:46:51.712Z,,,,2,0.0051189696037511,-0.0396625911332438,,0.05,true,hh,4429.442999976105,response,1.0406934755278734,1.15,-1.1363512333621872,1.2406966347110775,1.15,-1.15,high,high,,ISIC_9742891.JPG,,ISIC_2687641.JPG,33,30,false,0.13,hh,keypress(i),0,true,550692.3999999762,550692.3999999762,546229.545,546245.5,546262.957,550704.807,1,40,8,
sequence,flow.Sequence,8_7,2023-11-20T17:46:51.712Z,,,,,,,,,,,4429.442999976105,completion,,,,,,,high,high,,,,,,,false,,,,,true,550692.5999999046,550692.3999999762,546229.545,546245.5,546262.957,550704.807,1,40,,
trial,html.Screen,8_8_0,2023-11-20T17:46:56.792Z,,,,2,-0.0389988030702649,-0.0143212271490256,,0.05,true,ll,5067.292999904603,response,-1.042261683252976,1.0906950551194754,-1.1363512333621872,-1.2304407834713986,1.15,-1.15,low,low,,ISIC_0064669.JPG,,ISIC_0011870.JPG,33,27,false,0.1,ll,keypress(f),0,true,555772.2999999523,555772.0999999046,550688.167,550692.5999999046,550704.807,555781.328,1,40,9,
sequence,flow.Sequence,8_8,2023-11-20T17:46:56.792Z,,,,,,,,,,,5067.292999904603,completion,,,,,,,low,low,,,,,,,false,,,,,true,555772.3999999762,555772.0999999046,550688.167,550692.5999999046,550704.807,555781.328,1,40,,
trial,html.Screen,8_9_0,2023-11-20T17:47:04.745Z,,,,2,0.0112310719058792,-0.0469047359904117,,0.05,true,hl,7943.871999928495,response,0.9696118525781644,1.0906950551194754,-1.1363512333621872,-0.9244148283103414,1.15,-1.0863512333621872,high,low,,ISIC_0068184.JPG,,ISIC_7927525.JPG,33,25,false,0.2500000000000001,hl,keypress(j),0,true,563725.5,563725.1999999285,555764.687,555772.5,555781.328,563730.171,1,40,10,
sequence,flow.Sequence,8_9,2023-11-20T17:47:04.746Z,,,,,,,,,,,7943.871999928495,completion,,,,,,,high,low,,,,,,,false,,,,,true,563725.7999999523,563725.1999999285,555764.687,555772.5,555781.328,563730.171,1,40,,
trial,html.Screen,8_10_0,2023-11-20T17:47:06.984Z,,,,2,0.0051189696037511,-0.0396625911332438,,0.05,true,hh,2234.0289999285014,response,1.086647361897092,1.0906950551194754,-1.1363512333621872,1.1528935990320313,1.15,-1.0863512333621872,high,high,,ISIC_9742891.JPG,,ISIC_3505339.JPG,33,31,false,0.13,hh,keypress(i),0,true,565964.3999999762,565964.1999999285,563713.461,563726,563730.171,565967.774,1,40,11,
sequence,flow.Sequence,8_10,2023-11-20T17:47:06.984Z,,,,,,,,,,,2234.0289999285014,completion,,,,,,,high,high,,,,,,,false,,,,,true,565964.5,565964.1999999285,563713.461,563725.8999999762,563730.171,565967.774,1,40,,
trial,html.Screen,8_11_0,2023-11-20T17:47:14.225Z,,,,2,-0.0069555338059566,0.0310100918136373,,0.05,false,hh,7237.226000000024,response,1.0769490291795207,1.0406950551194754,-1.1363512333621872,1.0174515954885954,1.0999999999999999,-1.0863512333621872,high,high,,ISIC_0011177.JPG,,ISIC_0028135.JPG,33,30,false,0.1,lh,keypress(e),0,true,573205.2999999523,573205,565951.086,565964.5999999046,565967.774,573215.291,1,40,12,
sequence,flow.Sequence,8_11,2023-11-20T17:47:14.226Z,,,,,,,,,,,7237.226000000024,completion,,,,,,,high,high,,,,,,,false,,,,,true,573205.6999999285,573205,565951.086,565964.5999999046,565967.774,573215.291,1,40,,
trial,html.Screen,8_12_0,2023-11-20T17:47:16.176Z,,,,2,0.0348234368746005,-0.0236866303880924,,0.05,true,ll,1941.1089999761898,response,-1.0651492409820618,1.0906950551194754,-1.1363512333621872,-1.1862499256725747,1.0999999999999999,-1.0863512333621872,low,low,,ISIC_0011099.JPG,,ISIC_0065421.JPG,33,32,false,0.1,ll,keypress(f),0,true,575156.5999999046,575156.3999999762,573198.718,573205.8999999762,573215.291,575169.03,1,40,13,
sequence,flow.Sequence,8_12,2023-11-20T17:47:16.177Z,,,,,,,,,,,1941.1089999761898,completion,,,,,,,low,low,,,,,,,false,,,,,true,575156.6999999285,575156.3999999762,573198.718,573205.7999999523,573215.291,575169.03,1,40,,
trial,html.Screen,8_13_0,2023-11-20T17:47:20.952Z,,,,2,0.0188047466661863,-0.0288346930436979,,0.05,false,hl,4763.36999997613,response,1.2075172235545184,1.0906950551194754,-1.0863512333621872,-0.9116724966267612,1.0999999999999999,-1.0363512333621872,high,low,,ISIC_0014157.JPG,,ISIC_0024235.JPG,33,25,false,0.2400000000000001,hh,keypress(i),0,true,579932.5999999046,579932.3999999762,575152.5,575156.7999999523,575169.03,579944.971,1,40,14,
sequence,flow.Sequence,8_13,2023-11-20T17:47:20.953Z,,,,,,,,,,,4763.36999997613,completion,,,,,,,high,low,,,,,,,false,,,,,true,579932.7999999523,579932.3999999762,575152.5,575156.7999999523,575169.03,579944.971,1,40,,
trial,html.Screen,8_14_0,2023-11-20T17:47:28.521Z,,,,2,-0.0329095507339554,0.0382899749693245,,0.05,false,hh,7555.228999928455,response,1.09666761087476,1.0906950551194754,-1.0863512333621872,1.1072126870290426,1.0999999999999999,-1.0863512333621872,high,high,,ISIC_8812781.JPG,,ISIC_0071754.JPG,33,30,false,0.11,lh,keypress(e),0,true,587500.3999999762,587500.1999999285,579928.371,579932.7999999523,579944.971,587509.771,1,40,15,
sequence,flow.Sequence,8_14,2023-11-20T17:47:28.521Z,,,,,,,,,,,7555.228999928455,completion,,,,,,,high,high,,,,,,,false,,,,,true,587500.5,587500.1999999285,579928.371,579932.7999999523,579944.971,587509.771,1,40,,
trial,html.Screen,8_15_0,2023-11-20T17:47:32.897Z,,,,2,0.0112310719058792,-0.0469047359904117,,0.05,false,hh,4366.428999928525,response,1.0565911491759823,1.1406950551194754,-1.0863512333621872,1.0221582682700174,1.1073649552917806,-1.0863512333621872,high,high,,ISIC_0068184.JPG,,ISIC_6604862.JPG,33,30,false,0.11,ll,keypress(f),0,true,591876.1999999285,591876.1999999285,587493.044,587500.5,587509.771,591884.85,1,40,16,
sequence,flow.Sequence,8_15,2023-11-20T17:47:32.897Z,,,,,,,,,,,4366.428999928525,completion,,,,,,,high,high,,,,,,,false,,,,,true,591876.3999999762,591876.1999999285,587493.044,587500.5,587509.771,591884.85,1,40,,
trial,html.Screen,8_16_0,2023-11-20T17:47:38.801Z,,,,2,-0.0057914759495055,-0.0074667911845194,,0.05,false,lh,5895.849999928498,response,-0.991146183030456,1.1906950551194755,-1.0863512333621872,0.9949639823722534,1.1573649552917806,-1.0863512333621872,low,high,,ISIC_0058723.JPG,,ISIC_6342224.JPG,33,26,false,0.3600000000000002,ll,keypress(f),0,true,597780.7999999523,597780.6999999285,591868.289,591876.5,591884.85,597796.405,1,40,17,
sequence,flow.Sequence,8_16,2023-11-20T17:47:38.801Z,,,,,,,,,,,5895.849999928498,completion,,,,,,,low,high,,,,,,,false,,,,,true,597781,597780.6999999285,591868.289,591876.5,591884.85,597796.405,1,40,,
trial,html.Screen,8_17_0,2023-11-20T17:47:49.770Z,,,,2,0.0188047466661863,-0.0288346930436979,,0.05,true,lh,10952.694999904605,response,-0.7911024675435955,1.1906950551194755,-1.0863512333621872,0.7975977016137676,1.1573649552917806,-1.0863512333621872,low,high,,ISIC_0014157.JPG,,ISIC_5813642.JPG,33,26,false,0.3600000000000002,lh,keypress(e),0,true,608749.3999999762,608749.0999999046,597779.729,597781.0999999046,597796.405,608768.285,1,40,18,
sequence,flow.Sequence,8_17,2023-11-20T17:47:49.770Z,,,,,,,,,,,10952.694999904605,completion,,,,,,,low,high,,,,,,,false,,,,,true,608749.6999999285,608749.0999999046,597779.729,597781.0999999046,597796.405,608768.285,1,40,,
trial,html.Screen,8_18_0,2023-11-20T17:47:57.665Z,,,,2,-0.0057914759495055,-0.0074667911845194,,0.05,false,hh,7876.3149999046,response,1.1598623261077452,1.1906950551194755,-1.0363512333621872,1.203269031614007,1.1573649552917806,-1.0863512333621872,high,high,,ISIC_0058723.JPG,,ISIC_0002639.JPG,33,29,false,0.14,hl,keypress(j),0,true,616644.6999999285,616644.5999999046,608734.282,608749.8999999762,608768.285,616649.739,1,40,19,
sequence,flow.Sequence,8_18,2023-11-20T17:47:57.665Z,,,,,,,,,,,7876.3149999046,completion,,,,,,,high,high,,,,,,,false,,,,,true,616645,616644.5999999046,608734.282,608749.7999999523,608768.285,616649.739,1,40,,
trial,html.Screen,8_19_0,2023-11-20T17:48:00.249Z,,,,2,0.0112310719058792,-0.0469047359904117,,0.05,true,hh,2579.060999952373,response,1.0789197754694622,1.1906950551194755,-1.0363512333621872,1.1654690806750023,1.1573649552917806,-1.0863512333621872,high,high,,ISIC_0068184.JPG,,ISIC_1576437.JPG,33,29,false,0.14,hh,keypress(i),0,true,619229,619228.7999999523,616633.046,616645.0999999046,616649.739,619238.081,1,40,20,
sequence,flow.Sequence,8_19,2023-11-20T17:48:00.250Z,,,,,,,,,,,2579.060999952373,completion,,,,,,,high,high,,,,,,,false,,,,,true,619229.3999999762,619228.7999999523,616633.046,616645.0999999046,616649.739,619238.081,1,40,,
trial,html.Screen,8_20_0,2023-11-20T17:48:07.105Z,,,,2,0.0159061451859594,0.0296598845560212,,0.05,false,hl,6846.318999976153,response,0.8534691366511764,1.0721944280722322,-1.0363512333621872,-1.03975580494588,1.1573649552917806,-1.0863512333621872,high,low,,ISIC_0072564.JPG,,ISIC_0056788.JPG,33,26,false,0.2600000000000001,ll,keypress(f),0,true,626084.5999999046,626084.3999999762,619221.562,619229.5999999046,619238.081,626101.408,1,40,21,
sequence,flow.Sequence,8_20,2023-11-20T17:48:07.105Z,,,,,,,,,,,6846.318999976153,completion,,,,,,,high,low,,,,,,,false,,,,,true,626084.7999999523,626084.3999999762,619221.562,619229.5,619238.081,626101.408,1,40,,
trial,html.Screen,8_21_0,2023-11-20T17:48:19.778Z,,,,2,0.0409338693593207,-0.0072462710499874,,0.05,false,hl,12655.591999999946,response,1.0865333402803938,1.1221944280722322,-1.0363512333621872,-1.0542635307358266,1.1573649552917806,-1.0863512333621872,high,low,,ISIC_3608788.JPG,,ISIC_0034006.JPG,33,28,false,0.28000000000000014,ll,keypress(f),0,true,638757.2999999523,638757,626084.921,626084.7999999523,626101.408,638776.104,1,40,22,
sequence,flow.Sequence,8_21,2023-11-20T17:48:19.778Z,,,,,,,,,,,12655.591999999946,completion,,,,,,,high,low,,,,,,,false,,,,,true,638757.5999999046,638757,626084.921,626084.7999999523,626101.408,638776.104,1,40,,
trial,html.Screen,8_22_0,2023-11-20T17:48:32.978Z,,,,2,0.0277178575053843,-0.0395587463147856,,0.05,false,lh,13180.39599999995,response,-0.705042352333099,1.1721944280722323,-1.0363512333621872,0.9127244278050396,1.1573649552917806,-0.9970096678408533,low,high,,ISIC_0010807.JPG,,ISIC_0787229.JPG,33,28,false,0.3500000000000002,hl,keypress(j),0,true,651956.6999999285,651956.5,638742.588,638757.6999999285,638776.104,651968.403,1,40,23,
sequence,flow.Sequence,8_22,2023-11-20T17:48:32.978Z,,,,,,,,,,,13180.39599999995,completion,,,,,,,low,high,,,,,,,false,,,,,true,651956.7999999523,651956.5,638742.588,638757.6999999285,638776.104,651968.403,1,40,,
trial,html.Screen,8_23_0,2023-11-20T17:48:38.625Z,,,,2,-0.0363437082783146,-0.0333332186217051,,0.05,true,ll,5635.696999904583,response,-1.135372722680314,1.1721944280722323,-1.0863512333621872,-1.0926414044454305,1.1573649552917806,-0.9970096678408533,low,low,,ISIC_3314555.JPG,,ISIC_2355513.JPG,33,28,false,0.1,ll,keypress(f),0,true,657604.0999999046,657604.0999999046,651951.753,651957,651968.403,657612.704,1,40,24,
sequence,flow.Sequence,8_23,2023-11-20T17:48:38.625Z,,,,,,,,,,,5635.696999904583,completion,,,,,,,low,low,,,,,,,false,,,,,true,657604.2999999523,657604.0999999046,651951.753,651957,651968.403,657612.704,1,40,,
trial,html.Screen,8_24_0,2023-11-20T17:48:46.202Z,,,,2,0.0362376068089956,0.047825070846155,,0.05,false,hl,7567.895999904606,response,0.9433720631499012,1.1721944280722323,-1.0863512333621872,-1.0582071940347648,1.1573649552917806,-0.9970096678408533,high,low,,ISIC_6985114.JPG,,ISIC_4890201.JPG,33,25,false,0.29000000000000015,lh,keypress(e),0,true,665180.6999999285,665180.5999999046,657596.107,657604.3999999762,657612.704,665194.124,1,40,25,
sequence,flow.Sequence,8_24,2023-11-20T17:48:46.202Z,,,,,,,,,,,7567.895999904606,completion,,,,,,,high,low,,,,,,,false,,,,,true,665180.8999999762,665180.5999999046,657596.107,657604.3999999762,657612.704,665194.124,1,40,,
trial,html.Screen,8_25_0,2023-11-20T17:48:53.586Z,,,,2,0,0.0264544974620926,,0.05,true,ll,7370.47599990468,response,-1.0130095662293503,1.1721944280722323,-1.0863512333621872,-1.098939882801048,1.1573649552917806,-1.0470096678408534,low,low,,ISIC_0056991.JPG,,ISIC_0059897.JPG,33,29,false,0.1,ll,keypress(f),0,true,672564.8999999762,672564.5999999046,665177.414,665181,665194.124,672575.149,1,40,26,
sequence,flow.Sequence,8_25,2023-11-20T17:48:53.586Z,,,,,,,,,,,7370.47599990468,completion,,,,,,,low,low,,,,,,,false,,,,,true,672565.1999999285,672564.5999999046,665177.414,665181,665194.124,672575.149,1,40,,
trial,html.Screen,8_26_0,2023-11-20T17:49:01.465Z,,,,2,0.0409338693593207,-0.0072462710499874,,0.05,false,hl,7868.950999904657,response,0.991282840649944,1.1721944280722323,-1.005974724515199,-0.9397921099839784,1.1573649552917806,-1.0470096678408534,high,low,,ISIC_3608788.JPG,,ISIC_0000463.JPG,33,28,false,0.31000000000000016,hh,keypress(i),0,true,680444.1999999285,680444.0999999046,672558.429,672565.3999999762,672575.149,680457.335,1,40,27,
sequence,flow.Sequence,8_26,2023-11-20T17:49:01.465Z,,,,,,,,,,,7868.950999904657,completion,,,,,,,high,low,,,,,,,false,,,,,true,680444.3999999762,680444.0999999046,672558.429,672565.3999999762,672575.149,680457.335,1,40,,
trial,html.Screen,8_27_0,2023-11-20T17:49:13.514Z,,,,2,0.0362376068089956,0.047825070846155,,0.05,false,ll,12035.76499990467,response,-0.9303292478996148,1.1721944280722323,-1.005974724515199,-1.0396291493634244,1.1573649552917806,-1.0970096678408534,low,low,,ISIC_6985114.JPG,,ISIC_0068580.JPG,33,35,false,0.1,lh,keypress(e),0,true,692493.2999999523,692493.0999999046,680440.559,680444.5,680457.335,692497.258,1,40,28,
sequence,flow.Sequence,8_27,2023-11-20T17:49:13.515Z,,,,,,,,,,,12035.76499990467,completion,,,,,,,low,low,,,,,,,false,,,,,true,692493.7999999523,692493.0999999046,680440.559,680444.3999999762,680457.335,692497.258,1,40,,
trial,html.Screen,8_28_0,2023-11-20T17:49:21.513Z,,,,2,0.0102460616775615,-0.0309670599545429,,0.05,false,lh,7994.641999976127,response,-0.8092423703106274,1.1721944280722323,-1.005974724515199,1.1870093485714288,1.1573649552917806,-1.1470096678408535,low,high,,ISIC_0072041.JPG,,ISIC_8592235.JPG,33,25,false,0.3300000000000002,hh,keypress(i),0,true,700492,700491.8999999762,692480.601,692493.8999999762,692497.258,700496.067,1,40,29,
sequence,flow.Sequence,8_28,2023-11-20T17:49:21.513Z,,,,,,,,,,,7994.641999976127,completion,,,,,,,low,high,,,,,,,false,,,,,true,700492.0999999046,700491.8999999762,692480.601,692493.8999999762,692497.258,700496.067,1,40,,
trial,html.Screen,8_29_0,2023-11-20T17:49:26.026Z,,,,2,-0.0027483411352856,-0.0100996915276271,,0.05,false,hl,4508.332999976119,response,1.2331439637486756,1.1721944280722323,-1.0559747245151991,-0.9691143900156988,1.1573649552917806,-1.1470096678408535,high,low,,ISIC_7364041.JPG,,ISIC_7877488.JPG,33,25,false,0.3200000000000002,lh,keypress(e),0,true,705004.5999999046,705004.3999999762,700479.625,700492.0999999046,700496.067,705021.577,1,40,30,
sequence,flow.Sequence,8_29,2023-11-20T17:49:26.026Z,,,,,,,,,,,4508.332999976119,completion,,,,,,,high,low,,,,,,,false,,,,,true,705004.7999999523,705004.3999999762,700479.625,700492.0999999046,700496.067,705021.577,1,40,,
trial,html.Screen,8_30_0,2023-11-20T17:49:33.978Z,,,,2,0.0362376068089956,0.047825070846155,,0.05,false,lh,7934.422999999952,response,-0.796241477082623,1.1721944280722323,-1.0559747245151991,0.9017449335975743,1.1573649552917806,-1.1970096678408535,low,high,,ISIC_6985114.JPG,,ISIC_8588033.JPG,33,31,false,0.3600000000000002,ll,keypress(f),0,true,712956.0999999046,712956,705005.077,705004.8999999762,705021.577,712970.382,1,40,31,
sequence,flow.Sequence,8_30,2023-11-20T17:49:33.978Z,,,,,,,,,,,7934.422999999952,completion,,,,,,,low,high,,,,,,,false,,,,,true,712956.2999999523,712956,705005.077,705004.7999999523,705021.577,712970.382,1,40,,
trial,html.Screen,8_31_0,2023-11-20T17:49:38.354Z,,,,2,0.0159061451859594,0.0296598845560212,,0.05,false,hh,4361.917999952333,response,1.09666761087476,1.1721944280722323,-1.0559747245151991,1.1072126870290426,1.1573649552917806,-1.1970096678408535,high,high,,ISIC_0072564.JPG,,ISIC_0071754.JPG,33,30,false,0.14,lh,keypress(e),0,true,717332.3999999762,717332.2999999523,712953.762,712956.3999999762,712970.382,717345.714,1,40,32,
sequence,flow.Sequence,8_31,2023-11-20T17:49:38.354Z,,,,,,,,,,,4361.917999952333,completion,,,,,,,high,high,,,,,,,false,,,,,true,717332.5,717332.2999999523,712953.762,712956.3999999762,712970.382,717345.714,1,40,,
trial,html.Screen,8_32_0,2023-11-20T17:49:51.267Z,,,,2,0.0112310719058792,-0.0469047359904117,,0.05,false,hh,12899.385999904596,response,1.1598623261077452,1.1721944280722323,-1.0559747245151991,1.203269031614007,1.1573649552917806,-1.1970096678408535,high,high,,ISIC_0068184.JPG,,ISIC_0002639.JPG,33,30,false,0.14,ll,keypress(f),0,true,730245.3999999762,730245.0999999046,717328.987,717332.5999999046,717345.714,730254.023,1,40,33,
sequence,flow.Sequence,8_32,2023-11-20T17:49:51.267Z,,,,,,,,,,,12899.385999904596,completion,,,,,,,high,high,,,,,,,false,,,,,true,730245.6999999285,730245.0999999046,717328.987,717332.5999999046,717345.714,730254.023,1,40,,
trial,html.Screen,8_33_0,2023-11-20T17:50:02.891Z,,,,2,-0.007397293189458,-0.0174716772037504,,0.05,true,ll,11615.376999976113,response,-0.9588812385345452,1.1721944280722323,-1.0559747245151991,-1.21949255303104,1.1573649552917806,-1.1970096678408535,low,low,,ISIC_0056226.JPG,,ISIC_0069986.JPG,33,29,false,0.1,ll,keypress(f),0,true,741869.7999999523,741869.3999999762,730237.18,730245.7999999523,730254.023,741893.295,1,40,34,
sequence,flow.Sequence,8_33,2023-11-20T17:50:02.892Z,,,,,,,,,,,11615.376999976113,completion,,,,,,,low,low,,,,,,,false,,,,,true,741870.1999999285,741869.3999999762,730237.18,730245.7999999523,730254.023,741893.295,1,40,,
trial,html.Screen,8_34_0,2023-11-20T17:50:13.194Z,,,,2,-0.0450282431170921,0,,0.05,false,lh,10278.704999999958,response,-1.0213365328004047,1.1721944280722323,-1.0391868957827926,1.088524359911891,1.1573649552917806,-1.1970096678408535,low,high,,ISIC_1805163.JPG,,ISIC_5434229.JPG,33,27,false,0.3500000000000002,ll,keypress(f),0,true,752172,752172,741859.959,741870.5,741893.295,752179.969,1,40,35,
sequence,flow.Sequence,8_34,2023-11-20T17:50:13.194Z,,,,,,,,,,,10278.704999999958,completion,,,,,,,low,high,,,,,,,false,,,,,true,752172.1999999285,752172,741859.959,741870.5,741893.295,752179.969,1,40,,
trial,html.Screen,8_35_0,2023-11-20T17:50:18.089Z,,,,2,0.0277178575053843,-0.0395587463147856,,0.05,false,ll,4887.830999952275,response,-1.0525532302758762,1.1721944280722323,-1.0391868957827926,-1.1628982512509805,1.1573649552917806,-1.1970096678408535,low,low,,ISIC_0010807.JPG,,ISIC_0033428.JPG,33,29,false,0.1,lh,keypress(e),0,true,757067.7999999523,757067.7999999523,752163.288,752172.1999999285,752179.969,757072.811,1,40,36,
sequence,flow.Sequence,8_35,2023-11-20T17:50:18.089Z,,,,,,,,,,,4887.830999952275,completion,,,,,,,low,low,,,,,,,false,,,,,true,757068,757067.7999999523,752163.288,752172.1999999285,752179.969,757072.811,1,40,,
trial,html.Screen,8_36_0,2023-11-20T17:50:22.546Z,,,,2,0.0159061451859594,0.0296598845560212,,0.05,false,hh,4451.288999904646,response,1.0858641668099058,1.1721944280722323,-0.9869448815381403,1.1638942560200525,1.1573649552917806,-1.1970096678408535,high,high,,ISIC_0072564.JPG,,ISIC_5439597.JPG,33,30,false,0.14,hl,keypress(j),0,true,761524.0999999046,761524.0999999046,757056.164,757068,757072.811,761531.483,1,40,37,
sequence,flow.Sequence,8_36,2023-11-20T17:50:22.546Z,,,,,,,,,,,4451.288999904646,completion,,,,,,,high,high,,,,,,,false,,,,,true,761524.1999999285,761524.0999999046,757056.164,757068,757072.811,761531.483,1,40,,
trial,html.Screen,8_37_0,2023-11-20T17:50:38.443Z,,,,2,0.013431314305098,-0.0140597582944232,,0.05,false,lh,15888.91699997615,response,-1.0115965332688306,1.1721944280722323,-0.9869448815381403,0.8282633603842442,1.1573649552917806,-1.1970096678408535,low,high,,ISIC_0069617.JPG,,ISIC_1069587.JPG,33,29,false,0.3300000000000002,ll,keypress(f),0,true,777420.5,777420.3999999762,761514.746,761524.2999999523,761531.483,777445.772,1,40,38,
sequence,flow.Sequence,8_37,2023-11-20T17:50:38.443Z,,,,,,,,,,,15888.91699997615,completion,,,,,,,low,high,,,,,,,false,,,,,true,777420.6999999285,777420.3999999762,761514.746,761524.2999999523,761531.483,777445.772,1,40,,
trial,html.Screen,8_38_0,2023-11-20T17:50:45.138Z,,,,2,-0.0363437082783146,-0.0333332186217051,,0.05,false,ll,6670.127999976161,response,-1.0525532302758762,1.1721944280722323,-0.9869448815381403,-1.1628982512509805,1.1573649552917806,-1.1970096678408535,low,low,,ISIC_3314555.JPG,,ISIC_0033428.JPG,33,27,false,0.1,lh,keypress(e),0,true,784116,784115.8999999762,777429.067,777420.7999999523,777445.772,784125.42,1,40,39,
sequence,flow.Sequence,8_38,2023-11-20T17:50:45.138Z,,,,,,,,,,,6670.127999976161,completion,,,,,,,low,low,,,,,,,false,,,,,true,784116.0999999046,784115.8999999762,777429.067,777420.7999999523,777445.772,784125.42,1,40,,
trial,html.Screen,8_39_0,2023-11-20T17:50:55.484Z,,,,2,-0.0363437082783146,-0.0333332186217051,,0.05,false,hl,10335.979999976116,response,0.879102500583965,1.1721944280722323,-0.9820748817723535,-1.0933081951979773,1.1573649552917806,-1.1970096678408535,high,low,,ISIC_3314555.JPG,,ISIC_0046223.JPG,33,26,false,0.3500000000000002,hh,keypress(i),0,true,794461.5999999046,794461.3999999762,784108.748,784116.1999999285,784125.42,794478.907,1,40,40,
sequence,flow.Sequence,8_39,2023-11-20T17:50:55.484Z,,,,,,,,,,,10335.979999976116,completion,,,,,,,high,low,,,,,,,false,,,,,true,794462,794461.3999999762,784108.748,784116.1999999285,784125.42,794478.907,1,40,,
stair_loop,flow.Loop,8,2023-11-20T17:50:55.484Z,,,,,,,,,,,293954.2189999762,completion,,,,,,,,,,,,,,,false,,,,,true,794462.2999999523,794461.3999999762,500490.506,500500.2999999523,500507.181,794478.907,1,40,,
exp_instructions,html.Screen,9,2023-11-20T17:51:14.818Z,,,,,,,,,,,19316.792999928468,response,,,,,,,,,,,,,,,,,continue,keypress(Space),,,813796,813795.6999999285,794462.106,794462.5,794478.907,813799.805,,,,
trial,html.Screen,10_0_0,2023-11-20T17:51:24.155Z,,,,1,0.0188047466661863,-0.0288346930436979,,0.05,false,hl,9332.794999904581,response,1.0865333402803938,1.1646944280722322,-1.0343594257123534,-1.0542635307358266,1.1573649552917804,-1.1309438243929866,high,low,,ISIC_0014157.JPG,10,ISIC_0034006.JPG,33,26,false,0.3200000000000002,lh,keypress(e),0,false,823132.7999999523,823132.5999999046,813783.151,813796.0999999046,813799.805,823152.57,5,600,1,
break,html.Screen,10_0_1,2023-11-20T17:51:24.156Z,,,,,,,,,,,NaN,,,,,,,,high,low,,,,,,,false,,,,,false,823133.8999999762,823133.5,,823133.0999999046,,823152.57,5,600,,
break_continue,html.Screen,10_0_2,2023-11-20T17:51:24.156Z,,,,,,,,,,,NaN,,,,,,,,high,low,,,,,,,false,,,,,false,823134.5,823134.2999999523,,823134.0999999046,,823152.57,5,600,,
sequence,flow.Sequence,10_0,2023-11-20T17:51:24.157Z,,,,,,,,,,,9334.494999952265,completion,,,,,,,high,low,,,,,,,false,,,,,false,823134.6999999285,823134.2999999523,813783.151,813796.0999999046,813799.805,823152.57,5,600,,
trial,html.Screen,10_1_0,2023-11-20T17:51:27.979Z,,,,1,0.0102460616775615,-0.0309670599545429,,0.05,true,hh,3803.7299999523675,response,1.2024083555600384,1.1646944280722322,-1.0343594257123534,1.149077673153018,1.1573649552917804,-1.1309438243929866,high,high,,ISIC_0072041.JPG,8,ISIC_3566243.JPG,33,25,false,0.13,hh,keypress(i),0,false,826956.3999999762,826956.2999999523,823118.079,823134.8999999762,823152.57,826958.754,5,600,2,
break,html.Screen,10_1_1,2023-11-20T17:51:27.980Z,,,,,,,,,,,NaN,,,,,,,,high,high,,,,,,,false,,,,,false,826957,826956.8999999762,,826956.6999999285,,826958.754,5,600,,
break_continue,html.Screen,10_1_2,2023-11-20T17:51:27.980Z,,,,,,,,,,,NaN,,,,,,,,high,high,,,,,,,false,,,,,false,826957.5,826957.2999999523,,826957.1999999285,,826958.754,5,600,,
sequence,flow.Sequence,10_1,2023-11-20T17:51:27.980Z,,,,,,,,,,,3804.7299999523675,completion,,,,,,,high,high,,,,,,,false,,,,,false,826957.5999999046,826957.2999999523,823118.079,823134.8999999762,823152.57,826958.754,5,600,,
trial,html.Screen,10_2_0,2023-11-20T17:51:34.866Z,,,,1,0.0362376068089956,0.047825070846155,,0.05,false,ll,6884.845999904675,response,-1.0698162624196283,1.1646944280722322,-1.0343594257123534,-1.219634566983089,1.1573649552917804,-1.1309438243929866,low,low,,ISIC_6985114.JPG,9,ISIC_0030552.JPG,33,28,false,0.1,lh,keypress(e),0,false,833843.6999999285,833843.5999999046,826942.151,826957.7999999523,826958.754,833855.483,5,600,3,
break,html.Screen,10_2_1,2023-11-20T17:51:34.867Z,,,,,,,,,,,NaN,,,,,,,,low,low,,,,,,,false,,,,,false,833844.0999999046,833844,,833843.7999999523,,833855.483,5,600,,
break_continue,html.Screen,10_2_2,2023-11-20T17:51:34.867Z,,,,,,,,,,,NaN,,,,,,,,low,low,,,,,,,false,,,,,false,833844.1999999285,833844.1999999285,,833844.0999999046,,833855.483,5,600,,
sequence,flow.Sequence,10_2,2023-11-20T17:51:34.867Z,,,,,,,,,,,6885.445999928517,completion,,,,,,,low,low,,,,,,,false,,,,,false,833844.2999999523,833844.1999999285,826942.151,826957.7999999523,826958.754,833855.483,5,600,,
trial,html.Screen,10_3_0,2023-11-20T17:51:48.786Z,,,,1,0.0188047466661863,-0.0288346930436979,,0.05,false,ll,13908.216999928467,response,-0.9612373733144064,1.1646944280722322,-1.0343594257123534,-1.2155105349277993,1.1573649552917804,-1.1309438243929866,low,low,,ISIC_0014157.JPG,9,ISIC_0014883.JPG,33,28,false,0.1,hh,keypress(i),0,false,847763.7999999523,847763.6999999285,833838.881,833844.2999999523,833855.483,847765.834,5,600,4,
break,html.Screen,10_3_1,2023-11-20T17:51:48.787Z,,,,,,,,,,,NaN,,,,,,,,low,low,,,,,,,false,,,,,false,847764.0999999046,847764,,847763.8999999762,,847765.834,5,600,,
break_continue,html.Screen,10_3_2,2023-11-20T17:51:48.787Z,,,,,,,,,,,NaN,,,,,,,,low,low,,,,,,,false,,,,,false,847764.2999999523,847764.2999999523,,847764.1999999285,,847765.834,5,600,,
sequence,flow.Sequence,10_3,2023-11-20T17:51:48.787Z,,,,,,,,,,,13908.816999952309,completion,,,,,,,low,low,,,,,,,false,,,,,false,847764.3999999762,847764.2999999523,833838.881,833844.2999999523,833855.483,847765.834,5,600,,
trial,html.Screen,10_4_0,2023-11-20T17:51:53.443Z,,,,1,-0.0116094682222121,0.0258434522530318,,0.05,true,hl,4654.165999999968,response,1.331700944308701,1.1646944280722322,-1.0343594257123534,-0.9395196143259436,1.1573649552917804,-1.1309438243929866,high,low,,ISIC_9239632.JPG,9,ISIC_1668831.JPG,33,26,false,0.3200000000000002,hl,keypress(j),0,false,852420.0999999046,852420,847749.142,847764.3999999762,847765.834,852424.932,5,600,5,
break,html.Screen,10_4_1,2023-11-20T17:51:53.443Z,,,,,,,,,,,NaN,,,,,,,,high,low,,,,,,,false,,,,,false,852420.5,852420.3999999762,,852420.1999999285,,852424.932,5,600,,
break_continue,html.Screen,10_4_2,2023-11-20T17:51:53.443Z,,,,,,,,,,,NaN,,,,,,,,high,low,,,,,,,false,,,,,false,852420.6999999285,852420.5999999046,,852420.5999999046,,852424.932,5,600,,
sequence,flow.Sequence,10_4,2023-11-20T17:51:53.443Z,,,,,,,,,,,4654.765999904601,completion,,,,,,,high,low,,,,,,,false,,,,,false,852420.7999999523,852420.5999999046,847749.142,847764.3999999762,847765.834,852424.932,5,600,,
trial,html.Screen,10_5_0,2023-11-20T17:52:04.771Z,,,,1,0.0362376068089956,0.047825070846155,,0.05,false,hl,11323.367999952286,response,0.8579451262594331,1.1646944280722322,-1.0343594257123534,-0.9633172970727744,1.1573649552917804,-1.1309438243929866,high,low,,ISIC_6985114.JPG,9,ISIC_0067172.JPG,33,26,false,0.3200000000000002,lh,keypress(e),0,false,863748.5,863748.2999999523,852408.322,852420.8999999762,852424.932,863763.608,5,600,6,
break,html.Screen,10_5_1,2023-11-20T17:52:04.772Z,,,,,,,,,,,NaN,,,,,,,,high,low,,,,,,,false,,,,,false,863749.0999999046,863749,,863748.7999999523,,863763.608,5,600,,
break_continue,html.Screen,10_5_2,2023-11-20T17:52:04.772Z,,,,,,,,,,,NaN,,,,,,,,high,low,,,,,,,false,,,,,false,863749.5999999046,863749.5,,863749.2999999523,,863763.608,5,600,,
sequence,flow.Sequence,10_5,2023-11-20T17:52:04.772Z,,,,,,,,,,,11324.56799999997,completion,,,,,,,high,low,,,,,,,false,,,,,false,863749.6999999285,863749.5,852408.322,852420.8999999762,852424.932,863763.608,5,600,,
trial,html.Screen,10_6_0,2023-11-20T17:52:11.548Z,,,,1,0.0134764727102299,0.0033499036460912,,0.05,false,hl,6761.491999904625,response,0.9433720631499012,1.1646944280722322,-1.0343594257123534,-1.0582071940347648,1.1573649552917804,-1.1309438243929866,high,low,,ISIC_0009998.JPG,9,ISIC_4890201.JPG,33,26,false,0.3200000000000002,hh,keypress(i),0,false,870525.3999999762,870525.0999999046,863747.169,863749.7999999523,863763.608,870544.941,5,600,7,
break,html.Screen,10_6_1,2023-11-20T17:52:11.549Z,,,,,,,,,,,NaN,,,,,,,,high,low,,,,,,,false,,,,,false,870526.1999999285,870526.0999999046,,870525.7999999523,,870544.941,5,600,,
break_continue,html.Screen,10_6_2,2023-11-20T17:52:11.549Z,,,,,,,,,,,NaN,,,,,,,,high,low,,,,,,,false,,,,,false,870526.6999999285,870526.5,,870526.3999999762,,870544.941,5,600,,
sequence,flow.Sequence,10_6,2023-11-20T17:52:11.549Z,,,,,,,,,,,6762.891999999993,completion,,,,,,,high,low,,,,,,,false,,,,,false,870526.7999999523,870526.5,863747.169,863749.7999999523,863763.608,870544.941,5,600,,
trial,html.Screen,10_7_0,2023-11-20T17:52:18.396Z,,,,1,0.0051189696037511,-0.0396625911332438,,0.05,false,hh,6828.059000000008,response,1.09666761087476,1.1646944280722322,-1.0343594257123534,1.1072126870290426,1.1573649552917804,-1.1309438243929866,high,high,,ISIC_9742891.JPG,9,ISIC_0071754.JPG,33,25,false,0.13,lh,keypress(e),0,false,877373.2999999523,877373,870510.055,870526.7999999523,870544.941,877390.142,5,600,8,
break,html.Screen,10_7_1,2023-11-20T17:52:18.397Z,,,,,,,,,,,NaN,,,,,,,,high,high,,,,,,,false,,,,,false,877374.3999999762,877374.0999999046,,877373.5999999046,,877390.142,5,600,,
break_continue,html.Screen,10_7_2,2023-11-20T17:52:18.398Z,,,,,,,,,,,NaN,,,,,,,,high,high,,,,,,,false,,,,,false,877375.0999999046,877374.7999999523,,877374.6999999285,,877390.142,5,600,,
sequence,flow.Sequence,10_7,2023-11-20T17:52:18.398Z,,,,,,,,,,,6829.858999952325,completion,,,,,,,high,high,,,,,,,false,,,,,false,877375.1999999285,877374.7999999523,870510.055,870526.7999999523,870544.941,877390.142,5,600,,
trial,html.Screen,10_8_0,2023-11-20T17:52:33.243Z,,,,1,-0.0389988030702649,-0.0143212271490256,,0.05,true,lh,14829.95799990464,response,-0.7833710010171356,1.1646944280722322,-1.0343594257123534,0.9315588090336896,1.1573649552917804,-1.1309438243929866,low,high,,ISIC_0064669.JPG,9,ISIC_3826102.JPG,33,28,false,0.3500000000000002,lh,keypress(e),0,false,892220.1999999285,892220.0999999046,877373.592,877375.3999999762,877390.142,892235.825,5,600,9,
break,html.Screen,10_8_1,2023-11-20T17:52:33.244Z,,,,,,,,,,,NaN,,,,,,,,low,high,,,,,,,false,,,,,false,892220.5,892220.5,,892220.3999999762,,892235.825,5,600,,
break_continue,html.Screen,10_8_2,2023-11-20T17:52:33.244Z,,,,,,,,,,,NaN,,,,,,,,low,high,,,,,,,false,,,,,false,892220.8999999762,892220.6999999285,,892220.5999999046,,892235.825,5,600,,
sequence,flow.Sequence,10_8,2023-11-20T17:52:33.244Z,,,,,,,,,,,14830.557999928482,completion,,,,,,,low,high,,,,,,,false,,,,,false,892220.8999999762,892220.6999999285,877373.592,877375.3999999762,877390.142,892235.825,5,600,,
trial,html.Screen,10_9_0,2023-11-20T17:52:44.627Z,,,,1,-0.0329095507339554,0.0382899749693245,,0.05,false,ll,11368.074999976205,response,-1.0910404089869363,1.1646944280722322,-1.0343594257123534,-1.119702461098404,1.1573649552917804,-1.1309438243929866,low,low,,ISIC_8812781.JPG,9,ISIC_0067097.JPG,33,28,false,0.1,lh,keypress(e),0,false,903604.0999999046,903603.8999999762,892218.926,892221,892235.825,903607.775,5,600,10,
break,html.Screen,10_9_1,2023-11-20T17:52:44.627Z,,,,,,,,,,,NaN,,,,,,,,low,low,,,,,,,false,,,,,false,903604.3999999762,903604.3999999762,,903604.1999999285,,903607.775,5,600,,
break_continue,html.Screen,10_9_2,2023-11-20T17:52:44.628Z,,,,,,,,,,,NaN,,,,,,,,low,low,,,,,,,false,,,,,false,903604.5,903604.5,,903604.5,,903607.775,5,600,,
sequence,flow.Sequence,10_9,2023-11-20T17:52:44.628Z,,,,,,,,,,,11368.675000000047,completion,,,,,,,low,low,,,,,,,false,,,,,false,903604.5999999046,903604.5,892218.926,892221,892235.825,903607.775,5,600,,
trial,html.Screen,10_10_0,2023-11-20T17:52:52.819Z,,,,1,-0.0324770283903853,-0.0249968632204382,,0.05,false,hl,8188.324999904609,response,1.0751036484083878,1.1646944280722322,-1.0343594257123534,-1.143906455483852,1.1573649552917804,-1.1309438243929866,high,low,,ISIC_7266462.JPG,9,ISIC_0064406.JPG,33,26,false,0.3200000000000002,ll,keypress(f),0,false,911796.2999999523,911796.0999999046,903591.251,903604.6999999285,903607.775,911807.141,5,600,11,
break,html.Screen,10_10_1,2023-11-20T17:52:52.820Z,,,,,,,,,,,NaN,,,,,,,,high,low,,,,,,,false,,,,,false,911796.8999999762,911796.6999999285,,911796.5,,911807.141,5,600,,
break_continue,html.Screen,10_10_2,2023-11-20T17:52:52.820Z,,,,,,,,,,,NaN,,,,,,,,high,low,,,,,,,false,,,,,false,911797.2999999523,911797.1999999285,,911797.0999999046,,911807.141,5,600,,
sequence,flow.Sequence,10_10,2023-11-20T17:52:52.820Z,,,,,,,,,,,8189.424999928451,completion,,,,,,,high,low,,,,,,,false,,,,,false,911797.2999999523,911797.1999999285,903591.251,903604.6999999285,903607.775,911807.141,5,600,,
trial,html.Screen,10_11_0,2023-11-20T17:52:55.331Z,,,,1,0.0102460616775615,-0.0309670599545429,,0.05,true,ll,2500.859000000055,response,-1.1253220985777015,1.1646944280722322,-1.0343594257123534,-1.108725659461368,1.1573649552917804,-1.1309438243929866,low,low,,ISIC_0072041.JPG,9,ISIC_0054954.JPG,33,28,false,0.1,ll,keypress(f),0,false,914308.0999999046,914308,911790.42,911797.3999999762,911807.141,914311.946,5,600,12,
break,html.Screen,10_11_1,2023-11-20T17:52:55.331Z,,,,,,,,,,,NaN,,,,,,,,low,low,,,,,,,false,,,,,false,914308.5,914308.3999999762,,914308.1999999285,,914311.946,5,600,,
break_continue,html.Screen,10_11_2,2023-11-20T17:52:55.332Z,,,,,,,,,,,NaN,,,,,,,,low,low,,,,,,,false,,,,,false,914308.5999999046,914308.5999999046,,914308.5,,914311.946,5,600,,
sequence,flow.Sequence,10_11,2023-11-20T17:52:55.332Z,,,,,,,,,,,2501.4589999046875,completion,,,,,,,low,low,,,,,,,false,,,,,false,914308.6999999285,914308.5999999046,911790.42,911797.2999999523,911807.141,914311.946,5,600,,
trial,html.Screen,10_12_0,2023-11-20T17:52:58.212Z,,,,1,-0.0050679133050021,0.0009714874637896,,0.05,true,hh,2876.5540000000037,response,1.201100953917304,1.1646944280722322,-1.0343594257123534,1.1751492358160105,1.1573649552917804,-1.1309438243929866,high,high,,ISIC_9848743.JPG,10,ISIC_0647224.JPG,33,25,false,0.13,hh,keypress(i),0,false,917188.8999999762,917188.5,914295.416,914308.7999999523,914311.946,917201.064,5,600,13,
break,html.Screen,10_12_1,2023-11-20T17:52:58.213Z,,,,,,,,,,,NaN,,,,,,,,high,high,,,,,,,false,,,,,false,917189.6999999285,917189.3999999762,,917189.0999999046,,917201.064,5,600,,
break_continue,html.Screen,10_12_2,2023-11-20T17:52:58.213Z,,,,,,,,,,,NaN,,,,,,,,high,high,,,,,,,false,,,,,false,917189.7999999523,917189.7999999523,,917189.6999999285,,917201.064,5,600,,
sequence,flow.Sequence,10_12,2023-11-20T17:52:58.213Z,,,,,,,,,,,2877.85399995232,completion,,,,,,,high,high,,,,,,,false,,,,,false,917189.8999999762,917189.7999999523,914295.416,914308.7999999523,914311.946,917201.064,5,600,,
trial,html.Screen,10_13_0,2023-11-20T17:53:12.539Z,,,,1,-0.039728379742806,0.0228701131373768,,0.05,false,ll,14315.135999928461,response,-1.0525532302758762,1.1646944280722322,-1.0343594257123534,-1.1628982512509805,1.1573649552917804,-1.1309438243929866,low,low,,ISIC_0054073.JPG,10,ISIC_0033428.JPG,33,28,false,0.1,lh,keypress(e),0,false,931516.2999999523,931516.1999999285,917184.189,917190,917201.064,931528.765,5,600,14,
break,html.Screen,10_13_1,2023-11-20T17:53:12.540Z,,,,,,,,,,,NaN,,,,,,,,low,low,,,,,,,false,,,,,false,931516.8999999762,931516.7999999523,,931516.5999999046,,931528.765,5,600,,
break_continue,html.Screen,10_13_2,2023-11-20T17:53:12.540Z,,,,,,,,,,,NaN,,,,,,,,low,low,,,,,,,false,,,,,false,931517.1999999285,931517.0999999046,,931517,,931528.765,5,600,,
sequence,flow.Sequence,10_13,2023-11-20T17:53:12.540Z,,,,,,,,,,,14316.03599990462,completion,,,,,,,low,low,,,,,,,false,,,,,false,931517.2999999523,931517.0999999046,917184.189,917190,917201.064,931528.765,5,600,,
trial,html.Screen,10_14_0,2023-11-20T17:53:28.534Z,,,,1,0.0051189696037511,-0.0396625911332438,,0.05,,,16014.457999999984,timeout,-1.0022829373011404,1.1646944280722322,-1.0343594257123534,0.8311726972863814,1.1573649552917804,-1.1309438243929866,low,high,,ISIC_9742891.JPG,9,ISIC_0033287.JPG,33,28,false,0.3500000000000002,,,0,false,947510.5,947510.2999999523,931512.269,931517.5,931528.765,947543.223,5,600,15,
break,html.Screen,10_14_1,2023-11-20T17:53:28.534Z,,,,,,,,,,,NaN,,,,,,,,low,high,,,,,,,false,,,,,false,947511,947510.7999999523,,947510.5999999046,,947543.223,5,600,,
break_continue,html.Screen,10_14_2,2023-11-20T17:53:28.535Z,,,,,,,,,,,NaN,,,,,,,,low,high,,,,,,,false,,,,,false,947511.1999999285,947511.0999999046,,947511,,947543.223,5,600,,
sequence,flow.Sequence,10_14,2023-11-20T17:53:28.535Z,,,,,,,,,,,15982.334999904619,completion,,,,,,,low,high,,,,,,,false,,,,,false,947511.2999999523,947511.0999999046,931512.269,931517.3999999762,931528.765,947543.223,5,600,,
trial,html.Screen,10_15_0,2023-11-20T17:53:31.429Z,,,,1,-0.0116094682222121,0.0258434522530318,,0.05,true,ll,2861.8769999046344,response,-0.9545500235555924,1.1646944280722322,-1.0343594257123534,-1.2140255839622307,1.1573649552917804,-1.1309438243929866,low,low,,ISIC_9239632.JPG,9,ISIC_8704257.JPG,33,28,false,0.1,ll,keypress(f),0,false,950405.2999999523,950405.0999999046,947526.75,947511.2999999523,947543.223,950432.202,5,600,16,
break,html.Screen,10_15_1,2023-11-20T17:53:31.430Z,,,,,,,,,,,NaN,,,,,,,,low,low,,,,,,,false,,,,,false,950406.1999999285,950406,,950405.5999999046,,950432.202,5,600,,
break_continue,html.Screen,10_15_2,2023-11-20T17:53:31.430Z,,,,,,,,,,,NaN,,,,,,,,low,low,,,,,,,false,,,,,false,950406.7999999523,950406.5,,950406.3999999762,,950432.202,5,600,,
sequence,flow.Sequence,10_15,2023-11-20T17:53:31.430Z,,,,,,,,,,,2863.277000000002,completion,,,,,,,low,low,,,,,,,false,,,,,false,950406.8999999762,950406.5,947526.75,947511.2999999523,947543.223,950432.202,5,600,,
trial,html.Screen,10_16_0,2023-11-20T17:53:36.156Z,,,,1,-0.0450282431170921,0,,0.05,false,lh,4699.997999928426,response,-0.7197989269080959,1.1646944280722322,-1.0343594257123534,0.9410141415297968,1.1573649552917804,-1.1309438243929866,low,high,,ISIC_1805163.JPG,8,ISIC_2635051.JPG,33,28,false,0.3500000000000002,ll,keypress(f),0,false,955132.3999999762,955132.1999999285,950398.782,950407.0999999046,950432.202,955141.358,5,600,17,
break,html.Screen,10_16_1,2023-11-20T17:53:36.157Z,,,,,,,,,,,NaN,,,,,,,,low,high,,,,,,,false,,,,,false,955133.2999999523,955133,,955132.7999999523,,955141.358,5,600,,
break_continue,html.Screen,10_16_2,2023-11-20T17:53:36.157Z,,,,,,,,,,,NaN,,,,,,,,low,high,,,,,,,false,,,,,false,955133.6999999285,955133.5999999046,,955133.3999999762,,955141.358,5,600,,
sequence,flow.Sequence,10_16,2023-11-20T17:53:36.157Z,,,,,,,,,,,4701.397999904584,completion,,,,,,,low,high,,,,,,,false,,,,,false,955133.8999999762,955133.5999999046,950398.782,950407.0999999046,950432.202,955141.358,5,600,,
trial,html.Screen,10_17_0,2023-11-20T17:53:41.836Z,,,,1,-0.0116094682222121,0.0258434522530318,,0.05,false,lh,5670.941999952309,response,-0.6864497754928831,1.1646944280722322,-1.0343594257123534,1.0456580051873738,1.1573649552917804,-1.1309438243929866,low,high,,ISIC_9239632.JPG,10,ISIC_0055388.JPG,33,28,false,0.3500000000000002,hh,keypress(i),0,false,960812.5,960812.2999999523,955124.779,955134,955141.358,960835.77,5,600,18,
break,html.Screen,10_17_1,2023-11-20T17:53:41.836Z,,,,,,,,,,,NaN,,,,,,,,low,high,,,,,,,false,,,,,false,960813,960812.8999999762,,960812.5999999046,,960835.77,5,600,,
break_continue,html.Screen,10_17_2,2023-11-20T17:53:41.837Z,,,,,,,,,,,NaN,,,,,,,,low,high,,,,,,,false,,,,,false,960813.3999999762,960813.2999999523,,960813.1999999285,,960835.77,5,600,,
sequence,flow.Sequence,10_17,2023-11-20T17:53:41.837Z,,,,,,,,,,,5671.941999952309,completion,,,,,,,low,high,,,,,,,false,,,,,false,960813.5,960813.2999999523,955124.779,955134,955141.358,960835.77,5,600,,
trial,html.Screen,10_18_0,2023-11-20T17:53:48.947Z,,,,1,0.0409338693593207,-0.0072462710499874,,0.05,true,lh,7087.929999928456,response,-0.7118141631588264,1.1646944280722322,-1.0343594257123534,1.0369885917487718,1.1573649552917804,-1.1309438243929866,low,high,,ISIC_3608788.JPG,10,ISIC_6917681.JPG,33,28,false,0.3500000000000002,lh,keypress(e),0,false,967923.6999999285,967923.6999999285,960802.581,960813.5999999046,960835.77,967932.906,5,600,19,
break,html.Screen,10_18_1,2023-11-20T17:53:48.947Z,,,,,,,,,,,NaN,,,,,,,,low,high,,,,,,,false,,,,,false,967924,967923.8999999762,,967923.7999999523,,967932.906,5,600,,
break_continue,html.Screen,10_18_2,2023-11-20T17:53:48.948Z,,,,,,,,,,,NaN,,,,,,,,low,high,,,,,,,false,,,,,false,967924.1999999285,967924.0999999046,,967924,,967932.906,5,600,,
sequence,flow.Sequence,10_18,2023-11-20T17:53:48.948Z,,,,,,,,,,,7088.329999904614,completion,,,,,,,low,high,,,,,,,false,,,,,false,967924.1999999285,967924.0999999046,960802.581,960813.5999999046,960835.77,967932.906,5,600,,
trial,html.Screen,10_19_0,2023-11-20T17:53:59.020Z,,,,1,0.013431314305098,-0.0140597582944232,,0.05,false,hh,10063.193999904674,response,1.2012395086389958,1.1646944280722322,-1.0343594257123534,1.0618985767073823,1.1573649552917804,-1.1309438243929866,high,high,,ISIC_0069617.JPG,9,ISIC_9876004.JPG,33,25,false,0.13,lh,keypress(e),0,false,977996.2999999523,977996.0999999046,967916.364,967924.2999999523,967932.906,978019.156,5,600,20,
break,html.Screen,10_19_1,2023-11-20T17:53:59.020Z,,,,,,,,,,,NaN,,,,,,,,high,high,,,,,,,false,,,,,false,977996.6999999285,977996.5999999046,,977996.3999999762,,978019.156,5,600,,
break_continue,html.Screen,10_19_2,2023-11-20T17:53:59.020Z,,,,,,,,,,,NaN,,,,,,,,high,high,,,,,,,false,,,,,false,977996.8999999762,977996.7999999523,,977996.7999999523,,978019.156,5,600,,
sequence,flow.Sequence,10_19,2023-11-20T17:53:59.021Z,,,,,,,,,,,10063.893999952357,completion,,,,,,,high,high,,,,,,,false,,,,,false,977997,977996.7999999523,967916.364,967924.2999999523,967932.906,978019.156,5,600,,
trial,html.Screen,10_20_0,2023-11-20T17:54:12.076Z,,,,1,0.0362376068089956,0.047825070846155,,0.05,false,lh,13032.943999904674,response,-0.7118141631588264,1.1646944280722322,-1.0343594257123534,1.0369885917487718,1.1573649552917804,-1.1309438243929866,low,high,,ISIC_6985114.JPG,9,ISIC_6917681.JPG,33,28,false,0.3500000000000002,ll,keypress(f),0,false,991052.1999999285,991052.0999999046,977985.796,977997.0999999046,978019.156,991061.228,5,600,21,
break,html.Screen,10_20_1,2023-11-20T17:54:12.076Z,,,,,,,,,,,NaN,,,,,,,,low,high,,,,,,,false,,,,,false,991052.5999999046,991052.5999999046,,991052.2999999523,,991061.228,5,600,,
break_continue,html.Screen,10_20_2,2023-11-20T17:54:12.076Z,,,,,,,,,,,NaN,,,,,,,,low,high,,,,,,,false,,,,,false,991052.8999999762,991052.7999999523,,991052.5999999046,,991061.228,5,600,,
sequence,flow.Sequence,10_20,2023-11-20T17:54:12.076Z,,,,,,,,,,,13033.643999952357,completion,,,,,,,low,high,,,,,,,false,,,,,false,991052.8999999762,991052.7999999523,977985.796,977997.0999999046,978019.156,991061.228,5,600,,
trial,html.Screen,10_21_0,2023-11-20T17:54:21.011Z,,,,1,-0.0085520978188085,0.0464691161264081,,0.05,false,lh,8926.571999952313,response,-0.991146183030456,1.1646944280722322,-1.0343594257123534,0.9949639823722534,1.1573649552917804,-1.1309438243929866,low,high,,ISIC_0758797.JPG,8,ISIC_6342224.JPG,33,28,false,0.3500000000000002,ll,keypress(f),0,false,999987.8999999762,999987.7999999523,991044.654,991053,991061.228,999995.26,5,600,22,
break,html.Screen,10_21_1,2023-11-20T17:54:21.012Z,,,,,,,,,,,NaN,,,,,,,,low,high,,,,,,,false,,,,,false,999988.2999999523,999988.1999999285,,999988,,999995.26,5,600,,
break_continue,html.Screen,10_21_2,2023-11-20T17:54:21.012Z,,,,,,,,,,,NaN,,,,,,,,low,high,,,,,,,false,,,,,false,999988.3999999762,999988.3999999762,,999988.2999999523,,999995.26,5,600,,
sequence,flow.Sequence,10_21,2023-11-20T17:54:21.012Z,,,,,,,,,,,8927.171999976155,completion,,,,,,,low,high,,,,,,,false,,,,,false,999988.5999999046,999988.3999999762,991044.654,991053,991061.228,999995.26,5,600,,
trial,html.Screen,10_22_0,2023-11-20T17:54:29.332Z,,,,1,0.0112310719058792,-0.0469047359904117,,0.05,true,hl,8312.439999928465,response,1.011737552725394,1.1646944280722322,-1.0343594257123534,-0.8500530224490773,1.1573649552917804,-1.1309438243929866,high,low,,ISIC_0068184.JPG,9,ISIC_2998367.JPG,33,26,false,0.3200000000000002,hl,keypress(j),0,false,1008307.8999999762,1008307.6999999285,999978.611,999988.5999999046,999995.26,1008311.397,5,600,23,
break,html.Screen,10_22_1,2023-11-20T17:54:29.332Z,,,,,,,,,,,NaN,,,,,,,,high,low,,,,,,,false,,,,,false,1008308.0999999046,1008308.0999999046,,1008308,,1008311.397,5,600,,
break_continue,html.Screen,10_22_2,2023-11-20T17:54:29.332Z,,,,,,,,,,,NaN,,,,,,,,high,low,,,,,,,false,,,,,false,1008308.3999999762,1008308.2999999523,,1008308.1999999285,,1008311.397,5,600,,
sequence,flow.Sequence,10_22,2023-11-20T17:54:29.332Z,,,,,,,,,,,8313.039999952307,completion,,,,,,,high,low,,,,,,,false,,,,,false,1008308.3999999762,1008308.2999999523,999978.611,999988.5999999046,999995.26,1008311.397,5,600,,
trial,html.Screen,10_23_0,2023-11-20T17:54:31.781Z,,,,1,-0.0069555338059566,0.0310100918136373,,0.05,true,hh,2445.302999928477,response,1.0717785279820962,1.1646944280722322,-1.0343594257123534,1.1267239445830604,1.1573649552917804,-1.1309438243929866,high,high,,ISIC_0011177.JPG,8,ISIC_9948815.JPG,33,25,false,0.13,hh,keypress(i),0,false,1010757,1010756.6999999285,1008294.663,1008308.3999999762,1008311.397,1010766.21,5,600,24,
break,html.Screen,10_23_1,2023-11-20T17:54:31.782Z,,,,,,,,,,,NaN,,,,,,,,high,high,,,,,,,false,,,,,false,1010758.0999999046,1010757.7999999523,,1010757.3999999762,,1010766.21,5,600,,
break_continue,html.Screen,10_23_2,2023-11-20T17:54:31.783Z,,,,,,,,,,,NaN,,,,,,,,high,high,,,,,,,false,,,,,false,1010758.8999999762,1010758.5999999046,,1010758.3999999762,,1010766.21,5,600,,
sequence,flow.Sequence,10_23,2023-11-20T17:54:31.783Z,,,,,,,,,,,2447.2029999046354,completion,,,,,,,high,high,,,,,,,false,,,,,false,1010759.0999999046,1010758.5999999046,1008294.663,1008308.3999999762,1008311.397,1010766.21,5,600,,
trial,html.Screen,10_24_0,2023-11-20T17:54:35.924Z,,,,1,-0.0217698886732706,0.0410870915161425,,0.05,false,hl,4133.5899999523535,response,0.9433720631499012,1.1646944280722322,-1.0343594257123534,-1.0582071940347648,1.1573649552917804,-1.1309438243929866,high,low,,ISIC_0072173.JPG,9,ISIC_4890201.JPG,33,26,false,0.3200000000000002,hh,keypress(i),0,false,1014899.8999999762,1014899.7999999523,1010749.741,1010759.2999999523,1010766.21,1014907.584,5,600,25,
break,html.Screen,10_24_1,2023-11-20T17:54:35.924Z,,,,,,,,,,,NaN,,,,,,,,high,low,,,,,,,false,,,,,false,1014900.2999999523,1014900.2999999523,,1014900,,1014907.584,5,600,,
break_continue,html.Screen,10_24_2,2023-11-20T17:54:35.925Z,,,,,,,,,,,NaN,,,,,,,,high,low,,,,,,,false,,,,,false,1014900.5,1014900.5,,1014900.2999999523,,1014907.584,5,600,,
sequence,flow.Sequence,10_24,2023-11-20T17:54:35.925Z,,,,,,,,,,,4134.290000000037,completion,,,,,,,high,low,,,,,,,false,,,,,false,1014900.5,1014900.5,1010749.741,1010759.2999999523,1010766.21,1014907.584,5,600,,
trial,html.Screen,10_25_0,2023-11-20T17:54:45.173Z,,,,1,-0.0450282431170921,0,,0.05,false,lh,9241.415999999968,response,-1.0213365328004047,1.1646944280722322,-1.0343594257123534,1.088524359911891,1.1573649552917804,-1.1309438243929866,low,high,,ISIC_1805163.JPG,9,ISIC_5434229.JPG,33,28,false,0.3500000000000002,ll,keypress(f),0,false,1024149.1999999285,1024149,1014890.975,1014900.6999999285,1014907.584,1024158.937,5,600,26,
break,html.Screen,10_25_1,2023-11-20T17:54:45.174Z,,,,,,,,,,,NaN,,,,,,,,low,high,,,,,,,false,,,,,false,1024150,1024149.8999999762,,1024149.5,,1024158.937,5,600,,
break_continue,html.Screen,10_25_2,2023-11-20T17:54:45.175Z,,,,,,,,,,,NaN,,,,,,,,low,high,,,,,,,false,,,,,false,1024150.5,1024150.3999999762,,1024150.1999999285,,1024158.937,5,600,,
sequence,flow.Sequence,10_25,2023-11-20T17:54:45.175Z,,,,,,,,,,,9242.815999976126,completion,,,,,,,low,high,,,,,,,false,,,,,false,1024150.7999999523,1024150.3999999762,1014890.975,1014900.5999999046,1014907.584,1024158.937,5,600,,
trial,html.Screen,10_26_0,2023-11-20T17:54:51.893Z,,,,1,-0.007397293189458,-0.0174716772037504,,0.05,false,hl,6710.162999904598,response,0.9454713230140772,1.1646944280722322,-1.0343594257123534,-0.9245167441969216,1.1573649552917804,-1.1309438243929866,high,low,,ISIC_0056226.JPG,9,ISIC_9101055.JPG,33,26,false,0.3200000000000002,ll,keypress(f),0,false,1030869.3999999762,1030869.0999999046,1024142.328,1024151,1024158.937,1030888.679,5,600,27,
break,html.Screen,10_26_1,2023-11-20T17:54:51.894Z,,,,,,,,,,,NaN,,,,,,,,high,low,,,,,,,false,,,,,false,1030870.0999999046,1030870,,1030869.6999999285,,1030888.679,5,600,,
break_continue,html.Screen,10_26_2,2023-11-20T17:54:51.895Z,,,,,,,,,,,NaN,,,,,,,,high,low,,,,,,,false,,,,,false,1030870.5999999046,1030870.5,,1030870.2999999523,,1030888.679,5,600,,
sequence,flow.Sequence,10_26,2023-11-20T17:54:51.895Z,,,,,,,,,,,6711.5629999999655,completion,,,,,,,high,low,,,,,,,false,,,,,false,1030870.6999999285,1030870.5,1024142.328,1024150.8999999762,1024158.937,1030888.679,5,600,,
trial,html.Screen,10_27_0,2023-11-20T17:55:07.895Z,,,,1,0.0112310719058792,-0.0469047359904117,,0.05,,,16014.488000000012,timeout,1.011737552725394,1.1646944280722322,-1.0343594257123534,-0.8500530224490773,1.1573649552917804,-1.1309438243929866,high,low,,ISIC_0068184.JPG,9,ISIC_2998367.JPG,33,26,false,0.3200000000000002,,,0,false,1046871.2999999523,1046871.0999999046,1030855.228,1030870.7999999523,1030888.679,1046903.167,5,600,28,
break,html.Screen,10_27_1,2023-11-20T17:55:07.896Z,,,,,,,,,,,NaN,,,,,,,,high,low,,,,,,,false,,,,,false,1046871.5999999046,1046871.5,,1046871.3999999762,,1046903.167,5,600,,
break_continue,html.Screen,10_27_2,2023-11-20T17:55:07.896Z,,,,,,,,,,,NaN,,,,,,,,high,low,,,,,,,false,,,,,false,1046871.7999999523,1046871.7999999523,,1046871.6999999285,,1046903.167,5,600,,
sequence,flow.Sequence,10_27,2023-11-20T17:55:07.896Z,,,,,,,,,,,15983.120999952313,completion,,,,,,,high,low,,,,,,,false,,,,,false,1046871.7999999523,1046871.7999999523,1030855.228,1030870.7999999523,1030888.679,1046903.167,5,600,,
trial,html.Screen,10_28_0,2023-11-20T17:55:12.749Z,,,,1,0.0102460616775615,-0.0309670599545429,,0.05,false,hl,4821.932999904617,response,1.1181734135756094,1.1646944280722322,-1.0343594257123534,-0.944560381774994,1.1573649552917804,-1.1309438243929866,high,low,,ISIC_0072041.JPG,8,ISIC_9688534.JPG,33,26,false,0.3200000000000002,hh,keypress(i),0,false,1051725.2999999523,1051725.0999999046,1046886.431,1046871.8999999762,1046903.167,1051729.268,5,600,29,
break,html.Screen,10_28_1,2023-11-20T17:55:12.750Z,,,,,,,,,,,NaN,,,,,,,,high,low,,,,,,,false,,,,,false,1051726.1999999285,1051726,,1051725.5999999046,,1051729.268,5,600,,
break_continue,html.Screen,10_28_2,2023-11-20T17:55:12.751Z,,,,,,,,,,,NaN,,,,,,,,high,low,,,,,,,false,,,,,false,1051726.7999999523,1051726.5999999046,,1051726.2999999523,,1051729.268,5,600,,
sequence,flow.Sequence,10_28,2023-11-20T17:55:12.751Z,,,,,,,,,,,4823.432999904617,completion,,,,,,,high,low,,,,,,,false,,,,,false,1051727,1051726.5999999046,1046886.431,1046871.8999999762,1046903.167,1051729.268,5,600,,
trial,html.Screen,10_29_0,2023-11-20T17:55:17.396Z,,,,1,0.0097091270150747,-0.0417921315885292,,0.05,true,hh,4642.732000000076,response,1.2706447584800626,1.1646944280722322,-1.0343594257123534,1.0903308007916603,1.1573649552917804,-1.1309438243929866,high,high,,ISIC_3967213.JPG,8,ISIC_9425937.JPG,33,25,false,0.13,hh,keypress(i),0,false,1056372.1999999285,1056372,1051712.717,1051727.0999999046,1051729.268,1056388.324,5,600,30,
break,html.Screen,10_29_1,2023-11-20T17:55:17.397Z,,,,,,,,,,,NaN,,,,,,,,high,high,,,,,,,false,,,,,false,1056372.6999999285,1056372.5999999046,,1056372.2999999523,,1056388.324,5,600,,
break_continue,html.Screen,10_29_2,2023-11-20T17:55:17.397Z,,,,,,,,,,,NaN,,,,,,,,high,high,,,,,,,false,,,,,false,1056372.8999999762,1056372.7999999523,,1056372.6999999285,,1056388.324,5,600,,
sequence,flow.Sequence,10_29,2023-11-20T17:55:17.397Z,,,,,,,,,,,4643.531999952393,completion,,,,,,,high,high,,,,,,,false,,,,,false,1056373.0999999046,1056372.7999999523,1051712.717,1051727.0999999046,1051729.268,1056388.324,5,600,,
trial,html.Screen,10_30_0,2023-11-20T17:55:22.956Z,,,,1,0.000047919190197942736,0.0462652940855003,,0.05,false,hh,5543.375999928452,response,1.2706447584800626,1.1646944280722322,-1.0343594257123534,1.0903308007916603,1.1573649552917804,-1.1309438243929866,high,high,,ISIC_0011507.JPG,9,ISIC_9425937.JPG,33,25,false,0.13,lh,keypress(e),0,false,1061931.7999999523,1061931.6999999285,1056371.53,1056373.0999999046,1056388.324,1061950.095,5,600,31,
break,html.Screen,10_30_1,2023-11-20T17:55:22.956Z,,,,,,,,,,,NaN,,,,,,,,high,high,,,,,,,false,,,,,false,1061932.0999999046,1061932,,1061931.8999999762,,1061950.095,5,600,,
break_continue,html.Screen,10_30_2,2023-11-20T17:55:22.956Z,,,,,,,,,,,NaN,,,,,,,,high,high,,,,,,,false,,,,,false,1061932.2999999523,1061932.1999999285,,1061932.1999999285,,1061950.095,5,600,,
sequence,flow.Sequence,10_30,2023-11-20T17:55:22.956Z,,,,,,,,,,,5543.875999928452,completion,,,,,,,high,high,,,,,,,false,,,,,false,1061932.5,1061932.1999999285,1056371.53,1056373.0999999046,1056388.324,1061950.095,5,600,,
trial,html.Screen,10_31_0,2023-11-20T17:55:26.581Z,,,,1,-0.0050679133050021,0.0009714874637896,,0.05,true,ll,3606.5049999046605,response,-1.0377676235641546,1.1646944280722322,-1.0343594257123534,-1.0836906473836847,1.1573649552917804,-1.1309438243929866,low,low,,ISIC_9848743.JPG,10,ISIC_0010540.JPG,33,28,false,0.1,ll,keypress(f),0,false,1065556.8999999762,1065556.5999999046,1061915.672,1061932.5,1061950.095,1065572.789,5,600,32,
break,html.Screen,10_31_1,2023-11-20T17:55:26.582Z,,,,,,,,,,,NaN,,,,,,,,low,low,,,,,,,false,,,,,false,1065557.7999999523,1065557.5999999046,,1065557.1999999285,,1065572.789,5,600,,
break_continue,html.Screen,10_31_2,2023-11-20T17:55:26.582Z,,,,,,,,,,,NaN,,,,,,,,low,low,,,,,,,false,,,,,false,1065558.2999999523,1065558.0999999046,,1065557.8999999762,,1065572.789,5,600,,
sequence,flow.Sequence,10_31,2023-11-20T17:55:26.583Z,,,,,,,,,,,3608.0049999046605,completion,,,,,,,low,low,,,,,,,false,,,,,false,1065558.5,1065558.0999999046,1061915.672,1061932.5,1061950.095,1065572.789,5,600,,
trial,html.Screen,10_32_0,2023-11-20T17:55:28.910Z,,,,1,0.0362376068089956,0.047825070846155,,0.05,true,ll,2312.210999999894,response,-0.9562051868665176,1.1646944280722322,-1.0343594257123534,-1.110797661774712,1.1573649552917804,-1.1309438243929866,low,low,,ISIC_6985114.JPG,10,ISIC_0061199.JPG,33,28,false,0.1,ll,keypress(f),0,false,1067885.1999999285,1067885,1065556.085,1065558.6999999285,1065572.789,1067893.984,5,600,33,
break,html.Screen,10_32_1,2023-11-20T17:55:28.911Z,,,,,,,,,,,NaN,,,,,,,,low,low,,,,,,,false,,,,,false,1067886.3999999762,1067886.0999999046,,1067885.5999999046,,1067893.984,5,600,,
break_continue,html.Screen,10_32_2,2023-11-20T17:55:28.911Z,,,,,,,,,,,NaN,,,,,,,,low,low,,,,,,,false,,,,,false,1067887,1067886.6999999285,,1067886.5,,1067893.984,5,600,,
sequence,flow.Sequence,10_32,2023-11-20T17:55:28.912Z,,,,,,,,,,,2313.9109999283683,completion,,,,,,,low,low,,,,,,,false,,,,,false,1067887.2999999523,1067886.6999999285,1065556.085,1065558.5999999046,1065572.789,1067893.984,5,600,,
trial,html.Screen,10_33_0,2023-11-20T17:55:31.381Z,,,,1,0.0113873532168551,0.0054999201556291,,0.05,true,ll,2462.215999928536,response,-0.9789697360622612,1.1646944280722322,-1.0343594257123534,-1.0321843200509992,1.1573649552917804,-1.1309438243929866,low,low,,ISIC_8812621.JPG,9,ISIC_0056406.JPG,33,28,false,0.1,ll,keypress(f),0,false,1070356.3999999762,1070356.1999999285,1067877.502,1067887.3999999762,1067893.984,1070365.445,5,600,34,
break,html.Screen,10_33_1,2023-11-20T17:55:31.382Z,,,,,,,,,,,NaN,,,,,,,,low,low,,,,,,,false,,,,,false,1070357,1070357,,1070356.5999999046,,1070365.445,5,600,,
break_continue,html.Screen,10_33_2,2023-11-20T17:55:31.382Z,,,,,,,,,,,NaN,,,,,,,,low,low,,,,,,,false,,,,,false,1070357.5,1070357.3999999762,,1070357.1999999285,,1070365.445,5,600,,
sequence,flow.Sequence,10_33,2023-11-20T17:55:31.382Z,,,,,,,,,,,2463.4159999762196,completion,,,,,,,low,low,,,,,,,false,,,,,false,1070357.6999999285,1070357.3999999762,1067877.502,1067887.2999999523,1067893.984,1070365.445,5,600,,
trial,html.Screen,10_34_0,2023-11-20T17:55:36.749Z,,,,1,0.013431314305098,-0.0140597582944232,,0.05,false,ll,5359.054999999935,response,-1.101346104814838,1.1646944280722322,-1.0343594257123534,-1.1225813067473052,1.1573649552917804,-1.1309438243929866,low,low,,ISIC_0069617.JPG,10,ISIC_8175453.JPG,33,28,false,0.1,lh,keypress(e),0,false,1075724.6999999285,1075724.5,1070348.689,1070357.7999999523,1070365.445,1075744.119,5,600,35,
break,html.Screen,10_34_1,2023-11-20T17:55:36.750Z,,,,,,,,,,,NaN,,,,,,,,low,low,,,,,,,false,,,,,false,1075725.2999999523,1075725.1999999285,,1075724.8999999762,,1075744.119,5,600,,
break_continue,html.Screen,10_34_2,2023-11-20T17:55:36.750Z,,,,,,,,,,,NaN,,,,,,,,low,low,,,,,,,false,,,,,false,1075725.6999999285,1075725.5999999046,,1075725.3999999762,,1075744.119,5,600,,
sequence,flow.Sequence,10_34,2023-11-20T17:55:36.750Z,,,,,,,,,,,5360.154999904567,completion,,,,,,,low,low,,,,,,,false,,,,,false,1075725.8999999762,1075725.5999999046,1070348.689,1070357.7999999523,1070365.445,1075744.119,5,600,,
trial,html.Screen,10_35_0,2023-11-20T17:55:47.884Z,,,,1,0.000047919190197942736,0.0462652940855003,,0.05,true,hl,11115.580999928527,response,0.9454713230140772,1.1646944280722322,-1.0343594257123534,-0.9245167441969216,1.1573649552917804,-1.1309438243929866,high,low,,ISIC_0011507.JPG,8,ISIC_9101055.JPG,33,26,false,0.3200000000000002,hl,keypress(j),0,false,1086859.7999999523,1086859.6999999285,1075709.255,1075726,1075744.119,1086864.198,5,600,36,
break,html.Screen,10_35_1,2023-11-20T17:55:47.885Z,,,,,,,,,,,NaN,,,,,,,,high,low,,,,,,,false,,,,,false,1086860.1999999285,1086860.0999999046,,1086860,,1086864.198,5,600,,
break_continue,html.Screen,10_35_2,2023-11-20T17:55:47.885Z,,,,,,,,,,,NaN,,,,,,,,high,low,,,,,,,false,,,,,false,1086860.2999999523,1086860.2999999523,,1086860.2999999523,,1086864.198,5,600,,
sequence,flow.Sequence,10_35,2023-11-20T17:55:47.885Z,,,,,,,,,,,11116.180999952368,completion,,,,,,,high,low,,,,,,,false,,,,,false,1086860.3999999762,1086860.2999999523,1075709.255,1075726,1075744.119,1086864.198,5,600,,
trial,html.Screen,10_36_0,2023-11-20T17:55:51.965Z,,,,1,0.0277178575053843,-0.0395587463147856,,0.05,false,hl,4075.8019999999087,response,0.8579451262594331,1.1646944280722322,-1.0343594257123534,-0.9633172970727744,1.1573649552917804,-1.1309438243929866,high,low,,ISIC_0010807.JPG,10,ISIC_0067172.JPG,33,26,false,0.3200000000000002,hh,keypress(i),0,false,1090940,1090940,1086847.75,1086860.5,1086864.198,1090955.502,5,600,37,
break,html.Screen,10_36_1,2023-11-20T17:55:51.965Z,,,,,,,,,,,NaN,,,,,,,,high,low,,,,,,,false,,,,,false,1090940.5,1090940.2999999523,,1090940.1999999285,,1090955.502,5,600,,
break_continue,html.Screen,10_36_2,2023-11-20T17:55:51.965Z,,,,,,,,,,,NaN,,,,,,,,high,low,,,,,,,false,,,,,false,1090940.6999999285,1090940.5999999046,,1090940.5,,1090955.502,5,600,,
sequence,flow.Sequence,10_36,2023-11-20T17:55:51.965Z,,,,,,,,,,,4076.4019999045413,completion,,,,,,,high,low,,,,,,,false,,,,,false,1090940.7999999523,1090940.5999999046,1086847.75,1086860.3999999762,1086864.198,1090955.502,5,600,,
trial,html.Screen,10_37_0,2023-11-20T17:55:56.541Z,,,,1,-0.0116094682222121,0.0258434522530318,,0.05,false,lh,4560.497999999905,response,-0.796241477082623,1.1646944280722322,-1.0343594257123534,0.9017449335975743,1.1573649552917804,-1.1309438243929866,low,high,,ISIC_9239632.JPG,9,ISIC_8588033.JPG,33,28,false,0.3500000000000002,ll,keypress(f),0,false,1095516.0999999046,1095516,1090939.005,1090940.7999999523,1090955.502,1095531.114,5,600,38,
break,html.Screen,10_37_1,2023-11-20T17:55:56.541Z,,,,,,,,,,,NaN,,,,,,,,low,high,,,,,,,false,,,,,false,1095516.5,1095516.2999999523,,1095516.1999999285,,1095531.114,5,600,,
