sender,sender_type,sender_id,timestamp,meta,,age,blockNo,c1,c2,condition,control_tolerance,correct,correctResponse,duration,ended_on,f1,f1_high,f1_low,f2,f2_high,f2_low,feature_level1,feature_level2,gender,img_left,img_reveal,img_right,n_control_images,n_target_images,practice,range_tolerance,response,response_action,selection_duration,staircase,time_commit,time_end,time_render,time_run,time_show,time_switch,total_blocks,total_trials,trialNo,url
informed_consent,html.Screen,0,2023-11-29T15:33:30.923Z,"{""labjs_version"":""20.2.4"",""labjs_build"":{""flavor"":""development"",""commit"":""f5b4a49f956347addd546a832a3327688c2c0fef""},""location"":""https://labjs.felixhenninger.com/api/labjs_preview/index.html"",""userAgent"":""Mozilla/5.0 (Windows NT 10.0; Win64; x64) AppleWebKit/537.36 (KHTML, like Gecko) Chrome/119.0.0.0 Safari/537.36"",""platform"":""Win32"",""language"":""en-US"",""locale"":""en-US"",""timeZone"":""America/Chicago"",""timezoneOffset"":360,""screen_width"":1680,""screen_height"":1050,""scroll_width"":825,""scroll_height"":888,""window_innerWidth"":825,""window_innerHeight"":936,""devicePixelRatio"":1}",,,,,,,,,,35511.393,response,,,,,,,,,,,,,,,,,consent,click button,,,36373.5,36364.5,836.329,1065.4000000953674,853.107,36138.398,,,,{}
Demography form,html.Form,1,2023-11-29T15:33:35.946Z,,,18,,,,,,,,5258.302000047683,form submission,,,,,,,,,female,,,,,,,,,,,,41396.90000009537,41396.700000047684,36121.895,36373.90000009537,36138.398,41181.748,,,,
Welcome,html.Screen,2,2023-11-29T15:34:33.283Z,,,,,,,"[""bor"",""col""]",,,,57550.752,response,,,,,,,,,,,,,,,,,continue,click button,,,98733.10000014305,98732.5,41164.879,41397,41181.748,98509.799,,,,
demo_instructions,html.Screen,3,2023-11-29T15:35:15.867Z,,,,,,,,,,,42806.701,response,,,,,,,,,,,,,,,,,continue,click button,,,141317,141316.5,98493.195,98733.30000019073,98509.799,141092.687,,,,
trial,html.Screen,4_0_0,2023-11-29T15:35:23.602Z,,,,0,-1.268445326285509,-1.173734476257662,,,true,hh,7959.312999999995,response,1.160746324899676,1.2,-1.2,1.1927876559115576,1.2,-1.2,high,high,,ISIC_5216586.JPG,,ISIC_8651053.JPG,,25,true,0.14,hh,keypress(i),100,false,149052.10000014305,149052,141076.104,141317.20000004768,141092.687,148841.313,1,16,1,
sequence,flow.Sequence,4_0,2023-11-29T15:35:23.609Z,,,,,,,,,,,7959.312999999995,completion,,,,,,,high,high,,,,,,,true,,,,,false,149059,149052,141076.104,141317.10000014305,141092.687,148841.313,1,16,,
trial,html.Screen,4_1_0,2023-11-29T15:35:34.642Z,,,,0,-1.1243896694621007,-1.1772340944704969,,,true,hh,11249.887000047689,response,1.109799097093339,1.2,-1.2,1.091507924157762,1.2,-1.2,high,high,,ISIC_0062765.JPG,,ISIC_0765584.JPG,,25,true,0.14,hh,keypress(i),100,false,160091.80000019073,160091.20000004768,148824.434,149059.10000014305,148841.313,159879.3,1,16,2,
sequence,flow.Sequence,4_1,2023-11-29T15:35:34.643Z,,,,,,,,,,,11249.887000047689,completion,,,,,,,high,high,,,,,,,true,,,,,false,160092.5,160091.20000004768,148824.434,149059,148841.313,159879.3,1,16,,
trial,html.Screen,4_2_0,2023-11-29T15:35:39.849Z,,,,0,-1.186629690487006,-1.3269945600040771,,,true,hh,5418.900000047695,response,1.252716660627398,1.2,-1.2,1.183977080937476,1.2,-1.2,high,high,,ISIC_0015390.JPG,,ISIC_0034194.JPG,,25,true,0.14,hh,keypress(i),100,false,165298.80000019073,165298.20000004768,159862.66,160092.90000009537,159879.3,165089.446,1,16,3,
sequence,flow.Sequence,4_2,2023-11-29T15:35:39.850Z,,,,,,,,,,,5418.900000047695,completion,,,,,,,high,high,,,,,,,true,,,,,false,165299.60000014305,165298.20000004768,159862.66,160092.80000019073,159879.3,165089.446,1,16,,
trial,html.Screen,4_3_0,2023-11-29T15:35:44.353Z,,,,0,-1.0769708994456726,-1.2196503533725178,,,true,hh,4712.754000047687,response,1.2946277435220357,1.2,-1.2,1.255157480204324,1.2,-1.2,high,high,,ISIC_0063824.JPG,,ISIC_1870309.JPG,,25,true,0.14,hh,keypress(i),100,false,169802.80000019073,169802.20000004768,165072.759,165300,165089.446,169598.421,1,16,4,
sequence,flow.Sequence,4_3,2023-11-29T15:35:44.354Z,,,,,,,,,,,4712.754000047687,completion,,,,,,,high,high,,,,,,,true,,,,,false,169803.5,169802.20000004768,165072.759,165299.90000009537,165089.446,169598.421,1,16,,
trial,html.Screen,4_4_0,2023-11-29T15:35:56.823Z,,,,0,1.2100527057059796,1.2159112471537263,,,true,ll,12674.379000190733,response,-1.082709423673037,1.2,-1.2,-1.1184338818466155,1.2,-1.2,low,low,,ISIC_0008055.JPG,,ISIC_0058666.JPG,,30,true,0.13,ll,keypress(f),100,false,182273.30000019073,182272.80000019073,169581.54,169803.80000019073,169598.421,182055.768,1,16,5,
sequence,flow.Sequence,4_4,2023-11-29T15:35:56.824Z,,,,,,,,,,,12674.379000190733,completion,,,,,,,low,low,,,,,,,true,,,,,false,182274.20000004768,182272.80000019073,169581.54,169803.70000004768,169598.421,182055.768,1,16,,
trial,html.Screen,4_5_0,2023-11-29T15:36:04.290Z,,,,0,1.1870093485714288,1.3339880978442629,,,true,ll,7682.6320000953565,response,-1.0773466327271526,1.2,-1.2,-1.1601445610079184,1.2,-1.2,low,low,,ISIC_8592235.JPG,,ISIC_0055169.JPG,,40,true,0.14,ll,keypress(f),100,false,189739,189738.40000009537,182039.124,182274.5,182055.768,189520.344,1,16,6,
sequence,flow.Sequence,4_5,2023-11-29T15:36:04.291Z,,,,,,,,,,,7682.6320000953565,completion,,,,,,,low,low,,,,,,,true,,,,,false,189739.60000014305,189738.40000009537,182039.124,182274.40000009537,182055.768,189520.344,1,16,,
trial,html.Screen,4_6_0,2023-11-29T15:36:07.991Z,,,,0,1.274752206258116,1.2988509166163749,,,true,ll,3919.2560001430393,response,-1.0653732408486678,1.2,-1.2,-1.089675540151582,1.2,-1.2,low,low,,ISIC_6704623.JPG,,ISIC_0058315.JPG,,40,true,0.14,ll,keypress(f),100,false,193440,193439.60000014305,189503.702,189739.90000009537,189520.344,193227.532,1,16,7,
sequence,flow.Sequence,4_6,2023-11-29T15:36:07.992Z,,,,,,,,,,,3919.2560001430393,completion,,,,,,,low,low,,,,,,,true,,,,,false,193440.70000004768,193439.60000014305,189503.702,189739.80000019073,189520.344,193227.532,1,16,,
trial,html.Screen,4_7_0,2023-11-29T15:36:11.437Z,,,,0,1.1843968275545205,1.2828739728067764,,,true,ll,3657.4679999999935,response,-1.2749714218614645,1.2,-1.2,-1.1578619398362149,1.2,-1.2,low,low,,ISIC_0002901.JPG,,ISIC_0024999.JPG,,40,true,0.14,ll,keypress(f),100,false,196885.40000009537,196885,193210.879,193441,193227.532,196717.625,1,16,8,
sequence,flow.Sequence,4_7,2023-11-29T15:36:11.437Z,,,,,,,,,,,3657.4679999999935,completion,,,,,,,low,low,,,,,,,true,,,,,false,196886.10000014305,196885,193210.879,193440.90000009537,193227.532,196717.625,1,16,,
trial,html.Screen,4_8_0,2023-11-29T15:36:34.548Z,,,,0,1.058275612142778,-0.7824898568540655,,,true,lh,23278.675000190735,response,-0.8443403196524287,1.2,-1.2,0.8858525429102605,1.2,-1.2,low,high,,ISIC_4906385.JPG,,ISIC_8777813.JPG,,27,true,0.40000000000000024,lh,keypress(e),100,false,219996.90000009537,219996.30000019073,196650.9,196886.30000019073,196717.625,219795.879,1,16,9,
sequence,flow.Sequence,4_8,2023-11-29T15:36:34.549Z,,,,,,,,,,,23278.675000190735,completion,,,,,,,low,high,,,,,,,true,,,,,false,219997.60000014305,219996.30000019073,196650.9,196886.30000019073,196717.625,219795.879,1,16,,
trial,html.Screen,4_9_0,2023-11-29T15:36:39.230Z,,,,0,1.0887164761389951,-1.5357518752548716,,,true,lh,4882.521000095381,response,-1.0685314915436992,1.2,-1.2,0.8203833713472237,1.2,-1.2,low,high,,ISIC_0028127.JPG,,ISIC_0029374.JPG,,40,true,0.4500000000000003,lh,keypress(e),100,false,224678.90000009537,224678.40000009537,219762.604,219998,219795.879,224488.341,1,16,10,
sequence,flow.Sequence,4_9,2023-11-29T15:36:39.231Z,,,,,,,,,,,4882.521000095381,completion,,,,,,,low,high,,,,,,,true,,,,,false,224679.5,224678.40000009537,219762.604,219997.80000019073,219795.879,224488.341,1,16,,
trial,html.Screen,4_10_0,2023-11-29T15:36:44.174Z,,,,0,0.8513427412482127,-0.9295303568095064,,,true,lh,5134.159000000014,response,-0.9089402323867112,1.2,-1.2,0.8034544077281132,1.2,-1.2,low,high,,ISIC_0034164.JPG,,ISIC_3585381.JPG,,40,true,0.4500000000000003,lh,keypress(e),100,false,229622.90000009537,229622.5,224455.037,224679.70000004768,224488.341,229431.315,1,16,11,
sequence,flow.Sequence,4_10,2023-11-29T15:36:44.175Z,,,,,,,,,,,5134.159000000014,completion,,,,,,,low,high,,,,,,,true,,,,,false,229623.5,229622.5,224455.037,224679.70000004768,224488.341,229431.315,1,16,,
trial,html.Screen,4_11_0,2023-11-29T15:36:48.092Z,,,,0,0.9754077946987664,-1.1821868813141057,,,true,lh,4108.9850001907325,response,-0.90812608370647,1.2,-1.2,1.2720026872926935,1.2,-1.2,low,high,,ISIC_0024317.JPG,,ISIC_0450295.JPG,,40,true,0.4500000000000003,lh,keypress(e),100,false,233540.70000004768,233540.30000019073,229397.993,229623.70000004768,229431.315,233355.604,1,16,12,
sequence,flow.Sequence,4_11,2023-11-29T15:36:48.093Z,,,,,,,,,,,4108.9850001907325,completion,,,,,,,low,high,,,,,,,true,,,,,false,233541.40000009537,233540.30000019073,229397.993,229623.70000004768,229431.315,233355.604,1,16,,
trial,html.Screen,4_12_0,2023-11-29T15:37:09.743Z,,,,0,-0.8867328775712738,1.0063426986460375,,,true,hl,21835.396000000008,response,0.8110121381849364,1.2,-1.2,-0.7563142141851558,1.2,-1.2,high,low,,ISIC_0055759.JPG,,ISIC_0033605.JPG,,26,true,0.4500000000000003,hl,keypress(j),100,false,255191.40000009537,255191,233305.631,233541.70000004768,233355.604,254997.725,1,16,13,
sequence,flow.Sequence,4_12,2023-11-29T15:37:09.743Z,,,,,,,,,,,21835.396000000008,completion,,,,,,,high,low,,,,,,,true,,,,,false,255192.10000014305,255191,233305.631,233541.5,233355.604,254997.725,1,16,,
trial,html.Screen,4_13_0,2023-11-29T15:37:25.716Z,,,,0,-0.8307508446051526,1.1707575338936729,,,true,hl,16166.075000190729,response,0.9754077946987664,1.2,-1.2,-1.1821868813141057,1.2,-1.2,high,low,,ISIC_0028606.JPG,,ISIC_0024317.JPG,,26,true,0.4500000000000003,hl,keypress(j),100,false,271164.2000000477,271163.80000019073,254964.403,255192.40000009537,254997.725,270978.834,1,16,14,
sequence,flow.Sequence,4_13,2023-11-29T15:37:25.716Z,,,,,,,,,,,16166.075000190729,completion,,,,,,,high,low,,,,,,,true,,,,,false,271164.80000019073,271163.80000019073,254964.403,255192.30000019073,254997.725,270978.834,1,16,,
trial,html.Screen,4_14_0,2023-11-29T15:37:38.941Z,,,,0,-0.8867328775712738,1.0063426986460375,,,true,hl,13410.36600004771,response,1.0453124399868816,1.2,-1.2,-0.8986747280184286,1.2,-1.2,high,low,,ISIC_0055759.JPG,,ISIC_0013967.JPG,,26,true,0.4500000000000003,hl,keypress(j),100,false,284389.7000000477,284389.2000000477,270928.983,271165.10000014305,270978.834,284204.577,1,16,15,
sequence,flow.Sequence,4_14,2023-11-29T15:37:38.942Z,,,,,,,,,,,13410.36600004771,completion,,,,,,,high,low,,,,,,,true,,,,,false,284390.30000019073,284389.2000000477,270928.983,271165,270978.834,284204.577,1,16,,
trial,html.Screen,4_15_0,2023-11-29T15:37:44.135Z,,,,0,-0.9633172970727744,0.8472659344792351,,,true,hl,5378.92300000001,response,1.0453124399868816,1.2,-1.2,-0.8986747280184286,1.2,-1.2,high,low,,ISIC_0067172.JPG,,ISIC_0013967.JPG,,26,true,0.4500000000000003,hl,keypress(j),100,false,289583.7000000477,289583.5,284154.56,284390.60000014305,284204.577,289381.34,1,16,16,
sequence,flow.Sequence,4_15,2023-11-29T15:37:44.135Z,,,,,,,,,,,5378.92300000001,completion,,,,,,,high,low,,,,,,,true,,,,,false,289583.80000019073,289583.5,284154.56,284390.60000014305,284204.577,289381.34,1,16,,
demonstration_loop,flow.Loop,4,2023-11-29T15:37:44.135Z,,,,,,,,,,,148490.813,completion,,,,,,,,,,,,,,,true,,,,,false,289584,289583.5,141076.104,141317.10000014305,141092.687,289381.34,1,16,,
practice_instructions,html.Screen,5,2023-11-29T15:38:02.669Z,,,,,,,,,,,18727.360000047658,response,,,,,,,,,,,,,,,,,continue,click button,,,308117,308108.7000000477,289364.652,289584,289381.34,307884.028,,,,
trial,html.Screen,6_0_0,2023-11-29T15:38:10.731Z,,,,1,-1.0773466327271526,-1.1601445610079184,,,true,hh,8278.172000047693,response,1.2541318165695772,1.2,-1.2,1.085289936617366,1.2,-1.2,high,high,,ISIC_0055169.JPG,,ISIC_4277207.JPG,,25,true,0.14,hh,keypress(i),0,false,316179.10000014305,316162.2000000477,307867.408,308117.2000000477,307884.028,315999.774,1,40,1,
sequence,flow.Sequence,6_0,2023-11-29T15:38:10.731Z,,,,,,,,,,,8278.172000047693,completion,,,,,,,high,high,,,,,,,true,,,,,false,316179.30000019073,316162.2000000477,307867.408,308117.2000000477,307884.028,315999.774,1,40,,
trial,html.Screen,6_1_0,2023-11-29T15:38:21.573Z,,,,1,-1.0116417541846066,1.033442916947398,,,true,hl,11021.126000095392,response,1.2054195059663604,1.2,-1.2,-0.7760611240296147,1.2,-1.2,high,low,,ISIC_0031389.JPG,,ISIC_8712559.JPG,,26,true,0.4500000000000003,hl,keypress(j),0,false,327021,327020.90000009537,315933.647,316179.5,315999.774,326804.963,1,40,2,
sequence,flow.Sequence,6_1,2023-11-29T15:38:21.573Z,,,,,,,,,,,11021.126000095392,completion,,,,,,,high,low,,,,,,,true,,,,,false,327021.2000000477,327020.90000009537,315933.647,316179.5,315999.774,326804.963,1,40,,
trial,html.Screen,6_2_0,2023-11-29T15:38:33.239Z,,,,1,-1.1936751736668425,-1.2584308630745344,,,true,hh,11881.537000000011,response,0.904926943774141,1.2,-1.2,0.8630923941752319,1.2,-1.2,high,high,,ISIC_0061265.JPG,,ISIC_4573624.JPG,,203,true,0.40000000000000024,hh,keypress(i),0,false,338686.80000019073,338686.5,326770.883,327021.2000000477,326804.963,338493.563,1,40,3,
sequence,flow.Sequence,6_2,2023-11-29T15:38:33.239Z,,,,,,,,,,,11881.537000000011,completion,,,,,,,high,high,,,,,,,true,,,,,false,338687.40000009537,338686.5,326770.883,327021.2000000477,326804.963,338493.563,1,40,,
trial,html.Screen,6_3_0,2023-11-29T15:38:45.967Z,,,,1,-0.8867328775712738,1.0063426986460375,,,true,hl,12921.037000143027,response,0.8828738626295417,1.2,-1.2,-0.8288177599439582,1.2,-1.2,high,low,,ISIC_0055759.JPG,,ISIC_0056041.JPG,,26,true,0.4500000000000003,hl,keypress(j),0,false,351414.90000009537,351414.60000014305,338443.547,338687.7000000477,338493.563,351201.666,1,40,4,
sequence,flow.Sequence,6_3,2023-11-29T15:38:45.968Z,,,,,,,,,,,12921.037000143027,completion,,,,,,,high,low,,,,,,,true,,,,,false,351415.60000014305,351414.60000014305,338443.547,338687.60000014305,338493.563,351201.666,1,40,,
trial,html.Screen,6_4_0,2023-11-29T15:39:00.471Z,,,,1,-1.168911077628813,1.2181838235193114,,,true,hl,14716.73400009534,response,0.8034318937720549,1.2,-1.2,-1.0024917298189338,1.2,-1.2,high,low,,ISIC_7358691.JPG,,ISIC_0032766.JPG,,26,true,0.4500000000000003,hl,keypress(j),0,false,365918.7000000477,365918.40000009537,351168.267,351415.80000019073,351201.666,365713.235,1,40,5,
sequence,flow.Sequence,6_4,2023-11-29T15:39:00.471Z,,,,,,,,,,,14716.73400009534,completion,,,,,,,high,low,,,,,,,true,,,,,false,365919.2000000477,365918.40000009537,351168.267,351415.7000000477,351201.666,365713.235,1,40,,
trial,html.Screen,6_5_0,2023-11-29T15:39:16.282Z,,,,1,1.2578167348825195,-0.8371819698254004,,,,,15797.571999999986,timeout,-0.9633172970727744,1.2,-1.2,0.8472659344792351,1.2,-1.2,low,high,,ISIC_9613570.JPG,,ISIC_0067172.JPG,,27,true,0.40000000000000024,,,0,false,381729.10000014305,381728.7000000477,365679.945,365919.5,365713.235,381510.807,1,40,6,
sequence,flow.Sequence,6_5,2023-11-29T15:39:16.282Z,,,,,,,,,,,16015.465000047698,completion,,,,,,,low,high,,,,,,,true,,,,,false,381729.60000014305,381728.7000000477,365679.945,365919.30000019073,365713.235,381510.807,1,40,,
trial,html.Screen,6_6_0,2023-11-29T15:39:24.559Z,,,,1,1.3379750533585932,1.1671342614509763,,,true,ll,8495.393000047712,response,-0.955888202457274,1.2,-1.2,-1.1636701289603852,1.2,-1.2,low,low,,ISIC_0063556.JPG,,ISIC_0058098.JPG,,359,true,0.4500000000000003,ll,keypress(f),0,false,390006.60000014305,390006.2000000477,381494.21,381729.80000019073,381510.807,389810.14,1,40,7,
sequence,flow.Sequence,6_6,2023-11-29T15:39:24.560Z,,,,,,,,,,,8495.393000047712,completion,,,,,,,low,low,,,,,,,true,,,,,false,390007.10000014305,390006.2000000477,381494.21,381729.80000019073,381510.807,389810.14,1,40,,
trial,html.Screen,6_7_0,2023-11-29T15:39:32.816Z,,,,1,1.075512775389519,-1.0454702683049502,,,true,lh,8452.56000004767,response,-0.8443403196524287,1.2,-1.2,0.8858525429102605,1.2,-1.2,low,high,,ISIC_0033603.JPG,,ISIC_8777813.JPG,,27,true,0.40000000000000024,lh,keypress(e),0,false,398263.10000014305,398262.7000000477,389759.992,390007.5,389810.14,398042.902,1,40,8,
sequence,flow.Sequence,6_7,2023-11-29T15:39:32.816Z,,,,,,,,,,,8452.56000004767,completion,,,,,,,low,high,,,,,,,true,,,,,false,398263.5,398262.7000000477,389759.992,390007.40000009537,389810.14,398042.902,1,40,,
trial,html.Screen,6_8_0,2023-11-29T15:39:37.647Z,,,,1,1.274752206258116,1.2988509166163749,,,true,ll,5051.597999999998,response,-1.1117876838408909,1.2,-1.2,-1.2957497771092716,1.2,-1.2,low,low,,ISIC_6704623.JPG,,ISIC_0061915.JPG,,359,true,0.4500000000000003,ll,keypress(f),0,false,403094.80000019073,403094.5,398026.294,398263.80000019073,398042.902,402935.675,1,40,9,
sequence,flow.Sequence,6_8,2023-11-29T15:39:37.648Z,,,,,,,,,,,5051.597999999998,completion,,,,,,,low,low,,,,,,,true,,,,,false,403095.40000009537,403094.5,398026.294,398263.7000000477,398042.902,402935.675,1,40,,
trial,html.Screen,6_9_0,2023-11-29T15:39:44.271Z,,,,1,1.0453124399868816,-0.8986747280184286,,,false,lh,6782.825000000012,response,-0.9138670886161264,1.2,-1.2,0.8414121478342018,1.2,-1.2,low,high,,ISIC_0013967.JPG,,ISIC_6709052.JPG,,27,true,0.40000000000000024,ll,keypress(f),0,false,409718.80000019073,409718.5,402852.327,403095.7000000477,402935.675,409515.187,1,40,10,
sequence,flow.Sequence,6_9,2023-11-29T15:39:44.272Z,,,,,,,,,,,6782.825000000012,completion,,,,,,,low,high,,,,,,,true,,,,,false,409719.40000009537,409718.5,402852.327,403095.60000014305,402935.675,409515.187,1,40,,
trial,html.Screen,6_10_0,2023-11-29T15:39:54.528Z,,,,1,1.199471562817528,-0.8631260534979347,,,true,lh,10459.613000190759,response,-0.9198276163642348,1.2,-1.2,0.7754915110667046,1.2,-1.2,low,high,,ISIC_0030754.JPG,,ISIC_7840728.JPG,,40,true,0.4500000000000003,lh,keypress(e),0,false,419975.2000000477,419974.80000019073,409481.887,409719.60000014305,409515.187,419751.747,1,40,11,
sequence,flow.Sequence,6_10,2023-11-29T15:39:54.528Z,,,,,,,,,,,10459.613000190759,completion,,,,,,,low,high,,,,,,,true,,,,,false,419975.7000000477,419974.80000019073,409481.887,409719.60000014305,409515.187,419751.747,1,40,,
trial,html.Screen,6_11_0,2023-11-29T15:40:01.679Z,,,,1,-1.1936751736668425,-1.2584308630745344,,,true,hh,7374.553000190761,response,1.0355093302574103,1.2,-1.2,1.40734292812672,1.2,-1.2,high,high,,ISIC_0061265.JPG,,ISIC_0046729.JPG,,265,true,0.4500000000000003,hh,keypress(i),0,false,427126.80000019073,427126.30000019073,419734.959,419976,419751.747,426898.979,1,40,12,
sequence,flow.Sequence,6_11,2023-11-29T15:40:01.680Z,,,,,,,,,,,7374.553000190761,completion,,,,,,,high,high,,,,,,,true,,,,,false,427127.30000019073,427126.30000019073,419734.959,419975.90000009537,419751.747,426898.979,1,40,,
trial,html.Screen,6_12_0,2023-11-29T15:40:05.200Z,,,,1,-1.1117876838408909,-1.2957497771092716,,,true,hh,3747.321000190743,response,1.252716660627398,1.2,-1.2,1.183977080937476,1.2,-1.2,high,high,,ISIC_0061915.JPG,,ISIC_0034194.JPG,,25,true,0.14,hh,keypress(i),0,false,430646.7000000477,430646.30000019073,426882.331,427127.60000014305,426898.979,430422.537,1,40,13,
sequence,flow.Sequence,6_12,2023-11-29T15:40:05.200Z,,,,,,,,,,,3747.321000190743,completion,,,,,,,high,high,,,,,,,true,,,,,false,430647.2000000477,430646.30000019073,426882.331,427127.5,426898.979,430422.537,1,40,,
trial,html.Screen,6_13_0,2023-11-29T15:40:14.368Z,,,,1,-1.14454137020797,-1.1082302786512033,,,true,hh,9391.962999999989,response,1.077278111180185,1.2,-1.2,1.1530533996184025,1.2,-1.2,high,high,,ISIC_0065128.JPG,,ISIC_9525136.JPG,,25,true,0.14,hh,keypress(i),0,false,439814.80000019073,439814.5,430405.983,430647.40000009537,430422.537,439590.356,1,40,14,
sequence,flow.Sequence,6_13,2023-11-29T15:40:14.368Z,,,,,,,,,,,9391.962999999989,completion,,,,,,,high,high,,,,,,,true,,,,,false,439815.40000009537,439814.5,430405.983,430647.30000019073,430422.537,439590.356,1,40,,
trial,html.Screen,6_14_0,2023-11-29T15:40:17.198Z,,,,1,1.2600330864275875,1.0958628838888655,,,true,ll,3054.844000047655,response,-1.1302628852630028,1.2,-1.2,-1.288906469447243,1.2,-1.2,low,low,,ISIC_0026996.JPG,,ISIC_0071050.JPG,,30,true,0.13,ll,keypress(f),0,false,442645.40000009537,442645.2000000477,439573.813,439815.7000000477,439590.356,442462.588,1,40,15,
sequence,flow.Sequence,6_14,2023-11-29T15:40:17.198Z,,,,,,,,,,,3054.844000047655,completion,,,,,,,low,low,,,,,,,true,,,,,false,442645.60000014305,442645.2000000477,439573.813,439815.60000014305,439590.356,442462.588,1,40,,
trial,html.Screen,6_15_0,2023-11-29T15:40:24.646Z,,,,1,-0.8307508446051526,1.1707575338936729,,,true,hl,7630.612000047695,response,0.8926515927689261,1.2,-1.2,-0.7935960767768927,1.2,-1.2,high,low,,ISIC_0028606.JPG,,ISIC_8901371.JPG,,26,true,0.4500000000000003,hl,keypress(j),0,false,450093.40000009537,450093.2000000477,442395.932,442645.7000000477,442462.588,449893.727,1,40,16,
sequence,flow.Sequence,6_15,2023-11-29T15:40:24.646Z,,,,,,,,,,,7630.612000047695,completion,,,,,,,high,low,,,,,,,true,,,,,false,450093.60000014305,450093.2000000477,442395.932,442645.7000000477,442462.588,449893.727,1,40,,
trial,html.Screen,6_16_0,2023-11-29T15:40:29.536Z,,,,1,-0.9662688541319592,0.929746784178986,,,true,hl,5089.073000190721,response,0.7882758084023446,1.2,-1.2,-0.8296405881378283,1.2,-1.2,high,low,,ISIC_0011077.JPG,,ISIC_0065882.JPG,,26,true,0.4500000000000003,hl,keypress(j),0,false,454983.10000014305,454982.80000019073,449843.701,450093.7000000477,449893.727,454769.911,1,40,17,
sequence,flow.Sequence,6_16,2023-11-29T15:40:29.537Z,,,,,,,,,,,5089.073000190721,completion,,,,,,,high,low,,,,,,,true,,,,,false,454983.60000014305,454982.80000019073,449843.701,450093.7000000477,449893.727,454769.911,1,40,,
trial,html.Screen,6_17_0,2023-11-29T15:40:36.687Z,,,,1,1.0369885917487718,-0.8486937878412699,,,true,lh,7364.189000143029,response,-0.8500530224490773,1.2,-1.2,1.0893360711742854,1.2,-1.2,low,high,,ISIC_6917681.JPG,,ISIC_2998367.JPG,,27,true,0.40000000000000024,lh,keypress(e),0,false,462134.5,462134.10000014305,454736.729,454983.90000009537,454769.911,461917.349,1,40,18,
sequence,flow.Sequence,6_17,2023-11-29T15:40:36.688Z,,,,,,,,,,,7364.189000143029,completion,,,,,,,low,high,,,,,,,true,,,,,false,462134.90000009537,462134.10000014305,454736.729,454983.80000019073,454769.911,461917.349,1,40,,
trial,html.Screen,6_18_0,2023-11-29T15:40:39.336Z,,,,1,1.0659165756604234,1.0867497316848906,,,true,ll,2864.9510001907474,response,-1.1162514340389758,1.2,-1.2,-1.3592358328903371,1.2,-1.2,low,low,,ISIC_5807608.JPG,,ISIC_0057155.JPG,,359,true,0.4500000000000003,ll,keypress(f),0,false,464782.7000000477,464782.30000019073,461900.555,462135.2000000477,461917.349,464589.031,1,40,19,
sequence,flow.Sequence,6_18,2023-11-29T15:40:39.336Z,,,,,,,,,,,2864.9510001907474,completion,,,,,,,low,low,,,,,,,true,,,,,false,464783.30000019073,464782.30000019073,461900.555,462135.2000000477,461917.349,464589.031,1,40,,
trial,html.Screen,6_19_0,2023-11-29T15:40:47.134Z,,,,1,-1.168911077628813,1.2181838235193114,,,true,hl,7992.269000190718,response,0.9653573371180936,1.2,-1.2,-0.854766800381037,1.2,-1.2,high,low,,ISIC_7358691.JPG,,ISIC_9640145.JPG,,26,true,0.4500000000000003,hl,keypress(j),0,false,472581.40000009537,472581.30000019073,464539.155,464783.5,464589.031,472354.1,1,40,20,
sequence,flow.Sequence,6_19,2023-11-29T15:40:47.134Z,,,,,,,,,,,7992.269000190718,completion,,,,,,,high,low,,,,,,,true,,,,,false,472581.60000014305,472581.30000019073,464539.155,464783.5,464589.031,472354.1,1,40,,
trial,html.Screen,6_20_0,2023-11-29T15:40:49.846Z,,,,1,1.109799097093339,1.091507924157762,,,true,ll,2938.700000190758,response,-1.562359124020721,1.2,-1.2,-0.8244753336557197,1.2,-1.2,low,low,,ISIC_0765584.JPG,,ISIC_0056723.JPG,,288,true,0.40000000000000024,ll,keypress(f),0,false,475293,475292.80000019073,472337.458,472581.60000014305,472354.1,475109.48,1,40,21,
sequence,flow.Sequence,6_20,2023-11-29T15:40:49.846Z,,,,,,,,,,,2938.700000190758,completion,,,,,,,low,low,,,,,,,true,,,,,false,475293,475292.80000019073,472337.458,472581.60000014305,472354.1,475109.48,1,40,,
trial,html.Screen,6_21_0,2023-11-29T15:40:57.216Z,,,,1,0.8830264383952469,-0.8635562538060516,,,true,lh,7552.920000095386,response,-1.2020012168275056,1.2,-1.2,0.923753102263735,1.2,-1.2,low,high,,ISIC_0032258.JPG,,ISIC_0000022.JPG,,27,true,0.40000000000000024,lh,keypress(e),0,false,482662.7000000477,482662.40000009537,475042.964,475293.10000014305,475109.48,482440.458,1,40,22,
sequence,flow.Sequence,6_21,2023-11-29T15:40:57.216Z,,,,,,,,,,,7552.920000095386,completion,,,,,,,low,high,,,,,,,true,,,,,false,482663.2000000477,482662.40000009537,475042.964,475293.10000014305,475109.48,482440.458,1,40,,
trial,html.Screen,6_22_0,2023-11-29T15:41:01.448Z,,,,1,-1.0915173513546716,-1.266840220031473,,,true,hh,4454.042000000016,response,0.9003340164453637,1.2,-1.2,1.1325150153239834,1.2,-1.2,high,high,,ISIC_8241457.JPG,,ISIC_5287679.JPG,,265,true,0.4500000000000003,hh,keypress(i),0,false,486894.80000019073,486894.5,482423.879,482663.30000019073,482440.458,486665.34,1,40,23,
sequence,flow.Sequence,6_22,2023-11-29T15:41:01.448Z,,,,,,,,,,,4454.042000000016,completion,,,,,,,high,high,,,,,,,true,,,,,false,486895.5,486894.5,482423.879,482663.30000019073,482440.458,486665.34,1,40,,
trial,html.Screen,6_23_0,2023-11-29T15:41:04.520Z,,,,1,1.077278111180185,1.1530533996184025,,,true,ll,3299.560000095342,response,-1.266079261381142,1.2,-1.2,-1.312161506160336,1.2,-1.2,low,low,,ISIC_9525136.JPG,,ISIC_0065449.JPG,,30,true,0.13,ll,keypress(f),0,false,489964.90000009537,489964.90000009537,486648.886,486895.7000000477,486665.34,489737.975,1,40,24,
sequence,flow.Sequence,6_23,2023-11-29T15:41:04.520Z,,,,,,,,,,,3299.560000095342,completion,,,,,,,low,low,,,,,,,true,,,,,false,489965.2000000477,489964.90000009537,486648.886,486895.7000000477,486665.34,489737.975,1,40,,
trial,html.Screen,6_24_0,2023-11-29T15:41:09.928Z,,,,1,-1.1117876838408909,-1.2957497771092716,,,false,hh,5635.325000190758,response,1.2246024683501224,1.2,-1.2,1.2904526351590244,1.2,-1.2,high,high,,ISIC_0061915.JPG,,ISIC_4730066.JPG,,25,true,0.14,lh,keypress(e),0,false,495373.5,495373.30000019073,489721.54,489965.2000000477,489737.975,495181.874,1,40,25,
sequence,flow.Sequence,6_24,2023-11-29T15:41:09.928Z,,,,,,,,,,,5635.325000190758,completion,,,,,,,high,high,,,,,,,true,,,,,false,495373.5,495373.30000019073,489721.54,489965.2000000477,489737.975,495181.874,1,40,,
trial,html.Screen,6_25_0,2023-11-29T15:41:21.144Z,,,,1,1.2362557973341337,-1.2548266183352603,,,true,lh,11407.22600014304,response,-0.9089402323867112,1.2,-1.2,0.8034544077281132,1.2,-1.2,low,high,,ISIC_0033886.JPG,,ISIC_3585381.JPG,,27,true,0.40000000000000024,lh,keypress(e),0,false,506589.10000014305,506589.10000014305,495132.028,495373.7000000477,495181.874,506370.349,1,40,26,
sequence,flow.Sequence,6_25,2023-11-29T15:41:21.144Z,,,,,,,,,,,11407.22600014304,completion,,,,,,,low,high,,,,,,,true,,,,,false,506589.30000019073,506589.10000014305,495132.028,495373.60000014305,495181.874,506370.349,1,40,,
trial,html.Screen,6_26_0,2023-11-29T15:41:27.138Z,,,,1,-1.045301444872812,1.0872560254441277,,,true,hl,6212.151000000013,response,0.9653573371180936,1.2,-1.2,-0.854766800381037,1.2,-1.2,high,low,,ISIC_4507700.JPG,,ISIC_9640145.JPG,,26,true,0.4500000000000003,hl,keypress(j),0,false,512582.80000019073,512582.5,506353.788,506589.40000009537,506370.349,512382.057,1,40,27,
sequence,flow.Sequence,6_26,2023-11-29T15:41:27.138Z,,,,,,,,,,,6212.151000000013,completion,,,,,,,high,low,,,,,,,true,,,,,false,512583.30000019073,512582.5,506353.788,506589.30000019073,506370.349,512382.057,1,40,,
trial,html.Screen,6_27_0,2023-11-29T15:41:31.881Z,,,,1,-0.8443403196524287,0.8858525429102605,,,true,hl,4944.243000190763,response,0.8472024037189965,1.2,-1.2,-0.986370061404882,1.2,-1.2,high,low,,ISIC_8777813.JPG,,ISIC_0054355.JPG,,26,true,0.4500000000000003,hl,keypress(j),0,false,517326.60000014305,517326.30000019073,512348.768,512583.5,512382.057,517107.929,1,40,28,
sequence,flow.Sequence,6_27,2023-11-29T15:41:31.882Z,,,,,,,,,,,4944.243000190763,completion,,,,,,,high,low,,,,,,,true,,,,,false,517327,517326.30000019073,512348.768,512583.5,512382.057,517107.929,1,40,,
trial,html.Screen,6_28_0,2023-11-29T15:41:41.650Z,,,,1,0.989300717252516,-0.7908280206937478,,,true,lh,9986.671000143047,response,-1.0153439398566937,1.2,-1.2,0.93001438372942,1.2,-1.2,low,high,,ISIC_6416533.JPG,,ISIC_8211214.JPG,,27,true,0.40000000000000024,lh,keypress(e),0,false,527094.9000000954,527094.600000143,517091.414,517327.30000019073,517107.929,526876.948,1,40,29,
sequence,flow.Sequence,6_28,2023-11-29T15:41:41.650Z,,,,,,,,,,,9986.671000143047,completion,,,,,,,low,high,,,,,,,true,,,,,false,527095.5,527094.600000143,517091.414,517327.2000000477,517107.929,526876.948,1,40,,
trial,html.Screen,6_29_0,2023-11-29T15:41:47.818Z,,,,1,-0.9138670886161264,0.8414121478342018,,,true,hl,6385.652000143076,response,0.8034318937720549,1.2,-1.2,-1.0024917298189338,1.2,-1.2,high,low,,ISIC_6709052.JPG,,ISIC_0032766.JPG,,26,true,0.4500000000000003,hl,keypress(j),0,false,533262.9000000954,533262.600000143,526860.282,527095.7000000477,526876.948,533038.923,1,40,30,
sequence,flow.Sequence,6_29,2023-11-29T15:41:47.818Z,,,,,,,,,,,6385.652000143076,completion,,,,,,,high,low,,,,,,,true,,,,,false,533263.5,533262.600000143,526860.282,527095.600000143,526876.948,533038.923,1,40,,
trial,html.Screen,6_30_0,2023-11-29T15:41:52.641Z,,,,1,1.160746324899676,1.1927876559115576,,,true,ll,5047.377000190783,response,-1.2014901828022857,1.2,-1.2,-1.1484096197304636,1.2,-1.2,low,low,,ISIC_8651053.JPG,,ISIC_0067808.JPG,,288,true,0.40000000000000024,ll,keypress(f),0,false,538086.7000000477,538086.3000001907,533022.467,533263.7000000477,533038.923,537865.006,1,40,31,
sequence,flow.Sequence,6_30,2023-11-29T15:41:52.642Z,,,,,,,,,,,5047.377000190783,completion,,,,,,,low,low,,,,,,,true,,,,,false,538087.2000000477,538086.3000001907,533022.467,533263.600000143,533038.923,537865.006,1,40,,
trial,html.Screen,6_31_0,2023-11-29T15:41:55.281Z,,,,1,1.1989130276493527,1.2666195460149832,,,true,ll,2861.1940000476316,response,-1.1441767540243375,1.2,-1.2,-1.0949087392471728,1.2,-1.2,low,low,,ISIC_0031705.JPG,,ISIC_0054146.JPG,,40,true,0.14,ll,keypress(f),0,false,540726.5,540726.2000000477,537848.528,538087.5,537865.006,540503.544,1,40,32,
sequence,flow.Sequence,6_31,2023-11-29T15:41:55.282Z,,,,,,,,,,,2861.1940000476316,completion,,,,,,,low,low,,,,,,,true,,,,,false,540727,540726.2000000477,537848.528,538087.4000000954,537865.006,540503.544,1,40,,
trial,html.Screen,6_32_0,2023-11-29T15:41:59.178Z,,,,1,-1.186629690487006,-1.3269945600040771,,,true,hh,4119.25600019074,response,1.2246024683501224,1.2,-1.2,1.2904526351590244,1.2,-1.2,high,high,,ISIC_0015390.JPG,,ISIC_4730066.JPG,,25,true,0.14,hh,keypress(i),0,false,544623.2000000477,544622.8000001907,540486.845,540727.3000001907,540503.544,544394.357,1,40,33,
sequence,flow.Sequence,6_32,2023-11-29T15:41:59.178Z,,,,,,,,,,,4119.25600019074,completion,,,,,,,high,high,,,,,,,true,,,,,false,544623.8000001907,544622.8000001907,540486.845,540727.100000143,540503.544,544394.357,1,40,,
trial,html.Screen,6_33_0,2023-11-29T15:42:09.394Z,,,,1,1.077278111180185,1.1530533996184025,,,true,ll,10442.64300000004,response,-1.1243896694621007,1.2,-1.2,-1.1772340944704969,1.2,-1.2,low,low,,ISIC_9525136.JPG,,ISIC_0062765.JPG,,30,true,0.13,ll,keypress(f),0,false,554837.100000143,554837,544377.896,544624,544394.357,554647.651,1,40,34,
sequence,flow.Sequence,6_33,2023-11-29T15:42:09.394Z,,,,,,,,,,,10442.64300000004,completion,,,,,,,low,low,,,,,,,true,,,,,false,554837.3000001907,554837,544377.896,544624,544394.357,554647.651,1,40,,
trial,html.Screen,6_34_0,2023-11-29T15:42:19.283Z,,,,1,-0.90812608370647,1.2720026872926935,,,true,hl,10078.449000143097,response,1.2054195059663604,1.2,-1.2,-0.7760611240296147,1.2,-1.2,high,low,,ISIC_0450295.JPG,,ISIC_8712559.JPG,,26,true,0.4500000000000003,hl,keypress(j),0,false,564726.4000000954,564726.100000143,554597.7,554837.3000001907,554647.651,564516.848,1,40,35,
sequence,flow.Sequence,6_34,2023-11-29T15:42:19.284Z,,,,,,,,,,,10078.449000143097,completion,,,,,,,high,low,,,,,,,true,,,,,false,564727,564726.100000143,554597.7,554837.3000001907,554647.651,564516.848,1,40,,
trial,html.Screen,6_35_0,2023-11-29T15:42:28.530Z,,,,1,0.9754077946987664,-1.1821868813141057,,,true,lh,9456.352000047686,response,-0.8443403196524287,1.2,-1.2,0.8858525429102605,1.2,-1.2,low,high,,ISIC_0024317.JPG,,ISIC_8777813.JPG,,27,true,0.40000000000000024,lh,keypress(e),0,false,573973.2000000477,573973.2000000477,564483.589,564727.2000000477,564516.848,573768.216,1,40,36,
sequence,flow.Sequence,6_35,2023-11-29T15:42:28.530Z,,,,,,,,,,,9456.352000047686,completion,,,,,,,low,high,,,,,,,true,,,,,false,573973.4000000954,573973.2000000477,564483.589,564727.100000143,564516.848,573768.216,1,40,,
trial,html.Screen,6_36_0,2023-11-29T15:42:36.532Z,,,,1,1.0887164761389951,-1.5357518752548716,,,true,lh,8206.184000095353,response,-1.0153439398566937,1.2,-1.2,0.93001438372942,1.2,-1.2,low,high,,ISIC_0028127.JPG,,ISIC_8211214.JPG,,40,true,0.4500000000000003,lh,keypress(e),0,false,581974.8000001907,581974.4000000954,573734.996,573973.5,573768.216,581750.434,1,40,37,
sequence,flow.Sequence,6_36,2023-11-29T15:42:36.532Z,,,,,,,,,,,8206.184000095353,completion,,,,,,,low,high,,,,,,,true,,,,,false,581975.3000001907,581974.4000000954,573734.996,573973.5,573768.216,581750.434,1,40,,
trial,html.Screen,6_37_0,2023-11-29T15:42:38.836Z,,,,1,1.109799097093339,1.091507924157762,,,true,ll,2528.3660001907265,response,-1.1668613502915044,1.2,-1.2,-1.327068780840367,1.2,-1.2,low,low,,ISIC_0765584.JPG,,ISIC_0054459.JPG,,359,true,0.4500000000000003,ll,keypress(f),0,false,584279.100000143,584278.8000001907,581733.955,581975.5,581750.434,584054.889,1,40,38,
sequence,flow.Sequence,6_37,2023-11-29T15:42:38.836Z,,,,,,,,,,,2528.3660001907265,completion,,,,,,,low,low,,,,,,,true,,,,,false,584279.600000143,584278.8000001907,581733.955,581975.5,581750.434,584054.889,1,40,,
trial,html.Screen,6_38_0,2023-11-29T15:42:41.659Z,,,,1,-1.1302628852630028,-1.288906469447243,,,true,hh,3047.4110001907684,response,1.274417010249866,1.2,-1.2,1.0725495669014795,1.2,-1.2,high,high,,ISIC_0071050.JPG,,ISIC_8849004.JPG,,25,true,0.14,hh,keypress(i),0,false,587102.7000000477,587102.3000001907,584038.404,584279.9000000954,584054.889,586877.161,1,40,39,
sequence,flow.Sequence,6_38,2023-11-29T15:42:41.660Z,,,,,,,,,,,3047.4110001907684,completion,,,,,,,high,high,,,,,,,true,,,,,false,587103.3000001907,587102.3000001907,584038.404,584279.8000001907,584054.889,586877.161,1,40,,
trial,html.Screen,6_39_0,2023-11-29T15:42:46.178Z,,,,1,-1.1195710731537871,-1.1961732733209125,,,true,hh,4743.9390001430875,response,1.1409143352872226,1.2,-1.2,1.1323007949069106,1.2,-1.2,high,high,,ISIC_0067170.JPG,,ISIC_0030291.JPG,,25,true,0.14,hh,keypress(i),0,false,591621.100000143,591621.100000143,586860.491,587103.5,586877.161,591402.533,1,40,40,
sequence,flow.Sequence,6_39,2023-11-29T15:42:46.178Z,,,,,,,,,,,4743.9390001430875,completion,,,,,,,high,high,,,,,,,true,,,,,false,591621.3000001907,591621.100000143,586860.491,587103.4000000954,586877.161,591402.533,1,40,,
practice_loop,flow.Loop,6,2023-11-29T15:42:46.178Z,,,,,,,,,,,283737.07200014306,completion,,,,,,,,,,,,,,,true,,,,,false,591621.4000000954,591621.100000143,307867.408,308117.2000000477,307884.028,591402.533,1,40,,
stair_instructions,html.Screen,7,2023-11-29T15:42:52.650Z,,,,,,,,,,,6690.367000095313,response,,,,,,,,,,,,,,,,,continue,click button,,,598093.3000001907,598092.9000000954,591386.026,591621.4000000954,591402.533,597865.108,,,,
trial,html.Screen,8_0_0,2023-11-29T15:43:03.917Z,,,,2,0.0308384937406319,-0.0038396364323947,,0.04,true,ll,11492.492000143044,response,-1.2194553326562725,1.2,-1.2,-1.2381726989215684,1.2,-1.2,low,low,,ISIC_0029825.JPG,,ISIC_0068975.JPG,28,30,false,0.13,ll,keypress(f),0,true,609357.7000000477,609357.600000143,597848.685,598093.4000000954,597865.108,609137.071,1,40,1,
sequence,flow.Sequence,8_0,2023-11-29T15:43:03.917Z,,,,,,,,,,,11492.492000143044,completion,,,,,,,low,low,,,,,,,false,,,,,true,609357.8000001907,609357.600000143,597848.685,598093.4000000954,597865.108,609137.071,1,40,,
trial,html.Screen,8_1_0,2023-11-29T15:43:11.699Z,,,,2,-0.0164027439304477,0.0082910758715273,,0.04,true,lh,8003.429000000004,response,-0.8443403196524287,1.15,-1.15,0.8858525429102605,1.15,-1.15,low,high,,ISIC_7381224.JPG,,ISIC_8777813.JPG,28,26,false,0.3500000000000002,lh,keypress(e),0,true,617140.600000143,617140.5,609120.449,609357.9000000954,609137.071,616918.987,1,40,2,
sequence,flow.Sequence,8_1,2023-11-29T15:43:11.700Z,,,,,,,,,,,8003.429000000004,completion,,,,,,,low,high,,,,,,,false,,,,,true,617140.8000001907,617140.5,609120.449,609357.9000000954,609137.071,616918.987,1,40,,
trial,html.Screen,8_2_0,2023-11-29T15:43:13.598Z,,,,2,0,-0.0102871556606504,,0.04,true,ll,2119.6130001430865,response,-1.1392972253022884,1.15,-1.0999999999999999,-1.208510423375335,1.15,-1.15,low,low,,ISIC_1805163.JPG,,ISIC_0046526.JPG,28,27,false,0.1,ll,keypress(f),0,true,619039,619038.600000143,616902.331,617140.8000001907,616918.987,618822.592,1,40,3,
sequence,flow.Sequence,8_2,2023-11-29T15:43:13.598Z,,,,,,,,,,,2119.6130001430865,completion,,,,,,,low,low,,,,,,,false,,,,,true,619039.5,619038.600000143,616902.331,617140.8000001907,616918.987,618822.592,1,40,,
trial,html.Screen,8_3_0,2023-11-29T15:43:21.126Z,,,,2,0,-0.0102871556606504,,0.04,false,hh,7744.308000095421,response,1.0257168197307909,1.15,-1.0999999999999999,1.0403166496930305,1.15,-1.1239038243388115,high,high,,ISIC_1805163.JPG,,ISIC_1690909.JPG,28,27,false,0.14,lh,keypress(e),0,true,626567.2000000477,626566.9000000954,618789.391,619039.7000000477,618822.592,626337.209,1,40,4,
sequence,flow.Sequence,8_3,2023-11-29T15:43:21.127Z,,,,,,,,,,,7744.308000095421,completion,,,,,,,high,high,,,,,,,false,,,,,true,626567.8000001907,626566.9000000954,618789.391,619039.7000000477,618822.592,626337.209,1,40,,
trial,html.Screen,8_4_0,2023-11-29T15:43:22.878Z,,,,2,-0.0198696495649504,0.0387952353063878,,0.04,true,ll,1981.491000047652,response,-1.0773466327271526,1.15,-1.0999999999999999,-1.1601445610079184,1.0999999999999999,-1.1239038243388115,low,low,,ISIC_6735970.JPG,,ISIC_0055169.JPG,28,29,false,0.1,ll,keypress(f),0,true,628319,628318.7000000477,626320.696,626568,626337.209,628107.329,1,40,5,
sequence,flow.Sequence,8_4,2023-11-29T15:43:22.878Z,,,,,,,,,,,1981.491000047652,completion,,,,,,,low,low,,,,,,,false,,,,,true,628319.5,628318.7000000477,626320.696,626568,626337.209,628107.329,1,40,,
trial,html.Screen,8_5_0,2023-11-29T15:43:32.030Z,,,,2,0.0119001144851157,-0.0063430114540141,,0.04,true,hl,9363.471000190708,response,1.058275612142778,1.15,-1.0687455968675355,-0.7824898568540655,1.0999999999999999,-1.1239038243388115,high,low,,ISIC_0003822.JPG,,ISIC_4906385.JPG,28,25,false,0.39000000000000024,hl,keypress(j),0,true,637471.100000143,637470.8000001907,628074.176,628319.9000000954,628107.329,637241.772,1,40,6,
sequence,flow.Sequence,8_5,2023-11-29T15:43:32.030Z,,,,,,,,,,,9363.471000190708,completion,,,,,,,high,low,,,,,,,false,,,,,true,637471.5,637470.8000001907,628074.176,628319.8000001907,628107.329,637241.772,1,40,,
trial,html.Screen,8_6_0,2023-11-29T15:43:37.622Z,,,,2,-0.0164027439304477,0.0082910758715273,,0.04,true,ll,5820.828000143054,response,-0.9836672814341636,1.15,-1.0687455968675355,-1.0629122718286683,1.0999999999999999,-1.0739038243388115,low,low,,ISIC_7381224.JPG,,ISIC_0062161.JPG,28,38,false,0.1,ll,keypress(f),0,true,643063,643062.600000143,637225.229,637471.7000000477,637241.772,642852.69,1,40,7,
sequence,flow.Sequence,8_6,2023-11-29T15:43:37.622Z,,,,,,,,,,,5820.828000143054,completion,,,,,,,low,low,,,,,,,false,,,,,true,643063.600000143,643062.600000143,637225.229,637471.7000000477,637241.772,642852.69,1,40,,
trial,html.Screen,8_7_0,2023-11-29T15:43:47.286Z,,,,2,-0.0164027439304477,0.0082910758715273,,0.04,false,hl,9874.210000095423,response,0.8034318937720549,1.15,-1.0687455968675355,-1.0024917298189338,1.0999999999999999,-1.0739038243388115,high,low,,ISIC_7381224.JPG,,ISIC_0032766.JPG,28,25,false,0.3500000000000002,ll,keypress(f),0,true,652727.2000000477,652726.9000000954,642819.482,643063.8000001907,642852.69,652504.828,1,40,8,
sequence,flow.Sequence,8_7,2023-11-29T15:43:47.287Z,,,,,,,,,,,9874.210000095423,completion,,,,,,,high,low,,,,,,,false,,,,,true,652727.8000001907,652726.9000000954,642819.482,643063.8000001907,642852.69,652504.828,1,40,,
trial,html.Screen,8_8_0,2023-11-29T15:43:54.958Z,,,,2,-0.0065172941585523,0.0118857043117315,,0.04,false,lh,7893.6720000000205,response,-0.9617893983965208,1.15,-1.0687455968675355,0.9453006131304652,1.0999999999999999,-0.982702000823801,low,high,,ISIC_6119202.JPG,,ISIC_4229473.JPG,28,27,false,0.29000000000000015,ll,keypress(f),0,true,660398.8000001907,660398.5,652488.222,652728.100000143,652504.828,660169.732,1,40,9,
sequence,flow.Sequence,8_8,2023-11-29T15:43:54.958Z,,,,,,,,,,,7893.6720000000205,completion,,,,,,,low,high,,,,,,,false,,,,,true,660399.2000000477,660398.5,652488.222,652728.100000143,652504.828,660169.732,1,40,,
trial,html.Screen,8_9_0,2023-11-29T15:43:59.183Z,,,,2,-0.039520186367207,-0.0377961575607372,,0.04,true,ll,4453.6680000954075,response,-0.8654274202714607,1.15,-0.9623508351125944,-0.943970373243474,1.15,-0.982702000823801,low,low,,ISIC_6356149.JPG,,ISIC_0011752.JPG,28,40,false,0.1,ll,keypress(f),0,true,664623.8000001907,664623.4000000954,660153.166,660399.5,660169.732,664394.625,1,40,10,
sequence,flow.Sequence,8_9,2023-11-29T15:43:59.183Z,,,,,,,,,,,4453.6680000954075,completion,,,,,,,low,low,,,,,,,false,,,,,true,664624.3000001907,664623.4000000954,660153.166,660399.5,660169.732,664394.625,1,40,,
trial,html.Screen,8_10_0,2023-11-29T15:44:05.504Z,,,,2,-0.0199950873045219,-0.0172506388509166,,0.04,true,hh,6547.975000143051,response,1.1989130276493527,1.15,-0.9623508351125944,1.2666195460149832,1.15,-0.982702000823801,high,high,,ISIC_0029906.JPG,,ISIC_0031705.JPG,28,27,false,0.14,hh,keypress(i),0,true,670942.9000000954,670942.600000143,664378.055,664624.600000143,664394.625,670723.617,1,40,11,
sequence,flow.Sequence,8_10,2023-11-29T15:44:05.504Z,,,,,,,,,,,6547.975000143051,completion,,,,,,,high,high,,,,,,,false,,,,,true,670943.5,670942.600000143,664378.055,664624.600000143,664394.625,670723.617,1,40,,
trial,html.Screen,8_11_0,2023-11-29T15:44:15.958Z,,,,2,-0.001445457736793,-0.0165307427449982,,0.04,false,hh,10673.483000143082,response,1.2804054832904397,1.15,-0.9623508351125944,1.171271535505083,1.15,-0.982702000823801,high,high,,ISIC_0027350.JPG,,ISIC_7889838.JPG,28,27,false,0.14,lh,keypress(e),0,true,681397.2000000477,681397.100000143,670706.945,670943.8000001907,670723.617,681177.301,1,40,12,
sequence,flow.Sequence,8_11,2023-11-29T15:44:15.958Z,,,,,,,,,,,10673.483000143082,completion,,,,,,,high,high,,,,,,,false,,,,,true,681397.3000001907,681397.100000143,670706.945,670943.7000000477,670723.617,681177.301,1,40,,
trial,html.Screen,8_12_0,2023-11-29T15:44:20.279Z,,,,2,-0.001445457736793,-0.0165307427449982,,0.04,true,hh,4540.199000000022,response,1.2100527057059796,1.15,-0.9623508351125944,1.2159112471537263,1.1689455407600329,-0.982702000823801,high,high,,ISIC_0027350.JPG,,ISIC_0008055.JPG,28,26,false,0.14,hh,keypress(i),0,true,685717.7000000477,685717.5,681160.75,681397.4000000954,681177.301,685485.704,1,40,13,
sequence,flow.Sequence,8_12,2023-11-29T15:44:20.279Z,,,,,,,,,,,4540.199000000022,completion,,,,,,,high,high,,,,,,,false,,,,,true,685717.9000000954,685717.5,681160.75,681397.4000000954,681177.301,685485.704,1,40,,
trial,html.Screen,8_13_0,2023-11-29T15:44:25.320Z,,,,2,0.0009714874637896,-0.0174815595031679,,0.04,true,ll,5272.795999999973,response,-0.9415126659682582,1.15,-0.9623508351125944,-1.0413549203180965,1.1689455407600329,-0.982702000823801,low,low,,ISIC_9848743.JPG,,ISIC_4398011.JPG,28,40,false,0.1,ll,keypress(f),0,true,690758.7000000477,690758.5,685469.072,685718,685485.704,690545.626,1,40,14,
sequence,flow.Sequence,8_13,2023-11-29T15:44:25.320Z,,,,,,,,,,,5272.795999999973,completion,,,,,,,low,low,,,,,,,false,,,,,true,690759.2000000477,690758.5,685469.072,685718,685485.704,690545.626,1,40,,
trial,html.Screen,8_14_0,2023-11-29T15:44:34.279Z,,,,2,-0.0074667911845194,0.018500200317654,,0.04,true,hl,9171.873999999953,response,0.930804711032185,1.15,-0.9123508351125944,-0.7294067991476295,1.1689455407600329,-0.932702000823801,high,low,,ISIC_0058723.JPG,,ISIC_5067317.JPG,28,28,false,0.29000000000000015,hl,keypress(j),0,true,699717.7000000477,699717.5,690512.272,690759.5,690545.626,699496.242,1,40,15,
sequence,flow.Sequence,8_14,2023-11-29T15:44:34.279Z,,,,,,,,,,,9171.873999999953,completion,,,,,,,high,low,,,,,,,false,,,,,true,699717.8000001907,699717.5,690512.272,690759.5,690545.626,699496.242,1,40,,
trial,html.Screen,8_15_0,2023-11-29T15:44:36.888Z,,,,2,-0.039520186367207,-0.0377961575607372,,0.04,false,hl,2830.358000143082,response,1.0453124399868816,1.0999999999999999,-0.9123508351125944,-0.8986747280184286,1.1689455407600329,-0.932702000823801,high,low,,ISIC_6356149.JPG,,ISIC_0013967.JPG,28,26,false,0.2600000000000001,hh,keypress(i),0,true,702326.9000000954,702326.600000143,699479.752,699717.8000001907,699496.242,702101.34,1,40,16,
sequence,flow.Sequence,8_15,2023-11-29T15:44:36.888Z,,,,,,,,,,,2830.358000143082,completion,,,,,,,high,low,,,,,,,false,,,,,true,702327.5,702326.600000143,699479.752,699717.8000001907,699496.242,702101.34,1,40,,
trial,html.Screen,8_16_0,2023-11-29T15:44:49.008Z,,,,2,0.0367706518941078,-0.0161069838272154,,0.04,true,ll,12345.360000047716,response,-0.8679614460736003,1.0999999999999999,-0.9123508351125944,-0.9273061036826674,1.1689455407600329,-0.982702000823801,low,low,,ISIC_0033419.JPG,,ISIC_9955163.JPG,28,40,false,0.1,ll,keypress(f),0,true,714447,714446.7000000477,702084.916,702327.7000000477,702101.34,714224.954,1,40,17,
sequence,flow.Sequence,8_16,2023-11-29T15:44:49.008Z,,,,,,,,,,,12345.360000047716,completion,,,,,,,low,low,,,,,,,false,,,,,true,714447.600000143,714446.7000000477,702084.916,702327.7000000477,702101.34,714224.954,1,40,,
trial,html.Screen,8_17_0,2023-11-29T15:44:56.880Z,,,,2,-0.039520186367207,-0.0377961575607372,,0.04,false,hh,8093.646000143024,response,1.0161855018674797,1.0999999999999999,-0.9123508351125944,1.1331366334676347,1.1689455407600329,-0.982702000823801,high,high,,ISIC_6356149.JPG,,ISIC_3521671.JPG,28,25,false,0.14,lh,keypress(e),0,true,722319,722318.600000143,714208.411,714447.8000001907,714224.954,722090.265,1,40,18,
sequence,flow.Sequence,8_17,2023-11-29T15:44:56.880Z,,,,,,,,,,,8093.646000143024,completion,,,,,,,high,high,,,,,,,false,,,,,true,722319.5,722318.600000143,714208.411,714447.8000001907,714224.954,722090.265,1,40,,
trial,html.Screen,8_18_0,2023-11-29T15:45:00.191Z,,,,2,-0.0074667911845194,0.018500200317654,,0.04,true,ll,3539.1350000953535,response,-0.8179322126045343,1.15,-0.9123508351125944,-0.9445915945560848,1.1189455407600328,-0.982702000823801,low,low,,ISIC_0058723.JPG,,ISIC_0056364.JPG,28,40,false,0.1,ll,keypress(f),0,true,725629.600000143,725629.4000000954,722073.471,722319.8000001907,722090.265,725396.699,1,40,19,
sequence,flow.Sequence,8_18,2023-11-29T15:45:00.191Z,,,,,,,,,,,3539.1350000953535,completion,,,,,,,low,low,,,,,,,false,,,,,true,725629.7000000477,725629.4000000954,722073.471,722319.7000000477,722090.265,725396.699,1,40,,
trial,html.Screen,8_19_0,2023-11-29T15:45:07.458Z,,,,2,0.0200295718112167,0.0155559071275806,,0.04,true,lh,7498.1010001907125,response,-0.8307508446051526,1.15,-0.8859488491193761,1.1707575338936729,1.1189455407600328,-0.8859488491193761,low,high,,ISIC_0061343.JPG,,ISIC_0028606.JPG,28,25,false,0.22000000000000008,lh,keypress(e),0,true,732895.100000143,732894.8000001907,725380.178,725629.8000001907,725396.699,732677.543,1,40,20,
sequence,flow.Sequence,8_19,2023-11-29T15:45:07.459Z,,,,,,,,,,,7498.1010001907125,completion,,,,,,,low,high,,,,,,,false,,,,,true,732895.600000143,732894.8000001907,725380.178,725629.8000001907,725396.699,732677.543,1,40,,
trial,html.Screen,8_20_0,2023-11-29T15:45:13.194Z,,,,2,0.0257631352671967,0.0202837002774028,,0.04,true,lh,5953.557000143104,response,-0.6739044665672069,1.15,-0.8859488491193761,0.908941600707678,1.1189455407600328,-0.8859488491193761,low,high,,ISIC_0032797.JPG,,ISIC_2244564.JPG,28,25,false,0.22000000000000008,lh,keypress(e),0,true,738631.4000000954,738631.100000143,732660.787,732896,732677.543,738405.436,1,40,21,
sequence,flow.Sequence,8_20,2023-11-29T15:45:13.195Z,,,,,,,,,,,5953.557000143104,completion,,,,,,,low,high,,,,,,,false,,,,,true,738632,738631.100000143,732660.787,732895.9000000954,732677.543,738405.436,1,40,,
trial,html.Screen,8_21_0,2023-11-29T15:45:20.954Z,,,,2,0.0308384937406319,-0.0038396364323947,,0.04,false,hh,7985.264000047697,response,1.0659165756604234,1.15,-0.8359488491193761,1.0867497316848906,0.9898495673006755,-0.8859488491193761,high,high,,ISIC_0029825.JPG,,ISIC_5807608.JPG,28,27,false,0.12,lh,keypress(e),0,true,746391,746390.7000000477,738388.609,738632.3000001907,738405.436,746170.51,1,40,22,
sequence,flow.Sequence,8_21,2023-11-29T15:45:20.954Z,,,,,,,,,,,7985.264000047697,completion,,,,,,,high,high,,,,,,,false,,,,,true,746391.600000143,746390.7000000477,738388.609,738632.100000143,738405.436,746170.51,1,40,,
trial,html.Screen,8_22_0,2023-11-29T15:45:27.402Z,,,,2,-0.0241900387072296,0.0339955304424736,,0.04,true,hh,6668.390000095358,response,1.1450360947247324,1.15,-0.8359488491193761,0.9543756979111568,0.9898495673006755,-0.8859488491193761,high,high,,ISIC_0010789.JPG,,ISIC_1234463.JPG,28,27,false,0.12,hh,keypress(i),0,true,752839.3000001907,752838.9000000954,746153.963,746391.8000001907,746170.51,752616.434,1,40,23,
sequence,flow.Sequence,8_22,2023-11-29T15:45:27.403Z,,,,,,,,,,,6668.390000095358,completion,,,,,,,high,high,,,,,,,false,,,,,true,752839.9000000954,752838.9000000954,746153.963,746391.7000000477,746170.51,752616.434,1,40,,
trial,html.Screen,8_23_0,2023-11-29T15:45:34.762Z,,,,2,-0.0088741920055285,-0.0058246074740588,,0.04,true,hh,7582.3660001907265,response,1.2101243893950622,1.15,-0.8359488491193761,0.9721089662087676,0.9997058963179446,-0.8859488491193761,high,high,,ISIC_4136663.JPG,,ISIC_0760740.JPG,28,26,false,0.12,hh,keypress(i),0,true,760199.2000000477,760198.8000001907,752599.757,752840.100000143,752616.434,759980.688,1,40,24,
sequence,flow.Sequence,8_23,2023-11-29T15:45:34.763Z,,,,,,,,,,,7582.3660001907265,completion,,,,,,,high,high,,,,,,,false,,,,,true,760199.7000000477,760198.8000001907,752599.757,752840,752616.434,759980.688,1,40,,
trial,html.Screen,8_24_0,2023-11-29T15:45:43.634Z,,,,2,-0.0199950873045219,-0.0172506388509166,,0.04,false,hl,9090.312000000034,response,1.203269031614007,1.041116677801915,-0.8359488491193761,-0.6961047103031557,0.9997058963179446,-0.8859488491193761,high,low,,ISIC_0029906.JPG,,ISIC_0002639.JPG,28,26,false,0.22000000000000008,hh,keypress(i),0,true,769071.3000001907,769071,759964.142,760200,759980.688,768847.923,1,40,25,
sequence,flow.Sequence,8_24,2023-11-29T15:45:43.635Z,,,,,,,,,,,9090.312000000034,completion,,,,,,,high,low,,,,,,,false,,,,,true,769071.9000000954,769071,759964.142,760200,759980.688,768847.923,1,40,,
trial,html.Screen,8_25_0,2023-11-29T15:45:49.914Z,,,,2,-0.0109416414475118,-0.005246498750811,,0.04,false,lh,6502.877000190783,response,-1.0116417541846066,1.041116677801915,-0.8359488491193761,1.033442916947398,0.9997058963179446,-0.9359488491193761,low,high,,ISIC_0064279.JPG,,ISIC_0031389.JPG,28,27,false,0.18000000000000005,ll,keypress(f),0,true,775351.100000143,775350.8000001907,768831.391,769072.2000000477,768847.923,775126.831,1,40,26,
sequence,flow.Sequence,8_25,2023-11-29T15:45:49.915Z,,,,,,,,,,,6502.877000190783,completion,,,,,,,low,high,,,,,,,false,,,,,true,775351.600000143,775350.8000001907,768831.391,769072.100000143,768847.923,775126.831,1,40,,
trial,html.Screen,8_26_0,2023-11-29T15:46:00.584Z,,,,2,-0.0388334549081915,0.0303399972963369,,0.04,true,hl,10894.569000095362,response,0.8954803463300026,1.041116677801915,-0.8359488491193761,-0.7071819047913821,1.0497058963179446,-0.9359488491193761,high,low,,ISIC_4961708.JPG,,ISIC_0033071.JPG,28,27,false,0.2400000000000001,hl,keypress(j),0,true,786021.600000143,786021.4000000954,775110.182,775351.8000001907,775126.831,785797.601,1,40,27,
sequence,flow.Sequence,8_26,2023-11-29T15:46:00.585Z,,,,,,,,,,,10894.569000095362,completion,,,,,,,high,low,,,,,,,false,,,,,true,786021.7000000477,786021.4000000954,775110.182,775351.8000001907,775126.831,785797.601,1,40,,
trial,html.Screen,8_27_0,2023-11-29T15:46:10.804Z,,,,2,-0.001445457736793,-0.0165307427449982,,0.04,false,hl,10441.299000095343,response,0.930804711032185,0.9911166778019149,-0.8359488491193761,-0.7294067991476295,1.0497058963179446,-0.9359488491193761,high,low,,ISIC_0027350.JPG,,ISIC_5067317.JPG,28,25,false,0.22000000000000008,lh,keypress(e),0,true,796239.3000001907,796238.9000000954,785780.807,786021.7000000477,785797.601,796034.21,1,40,28,
sequence,flow.Sequence,8_27,2023-11-29T15:46:10.805Z,,,,,,,,,,,10441.299000095343,completion,,,,,,,high,low,,,,,,,false,,,,,true,796239.9000000954,796238.9000000954,785780.807,786021.7000000477,785797.601,796034.21,1,40,,
trial,html.Screen,8_28_0,2023-11-29T15:46:19.179Z,,,,2,-0.001445457736793,-0.0165307427449982,,0.04,false,hl,8580.090000190772,response,0.8719231363109603,1.041116677801915,-0.8359488491193761,-0.7704280220140033,1.0497058963179446,-0.9859488491193762,high,low,,ISIC_0027350.JPG,,ISIC_0029453.JPG,28,26,false,0.2600000000000001,lh,keypress(e),0,true,804614.4000000954,804614.3000001907,796000.919,796240.100000143,796034.21,804400.527,1,40,29,
sequence,flow.Sequence,8_28,2023-11-29T15:46:19.180Z,,,,,,,,,,,8580.090000190772,completion,,,,,,,high,low,,,,,,,false,,,,,true,804614.8000001907,804614.3000001907,796000.919,796240,796034.21,804400.527,1,40,,
trial,html.Screen,8_29_0,2023-11-29T15:46:22.092Z,,,,2,-0.0109416414475118,-0.005246498750811,,0.04,true,hh,3126.3730000953656,response,1.1018283884093611,1.091116677801915,-0.8359488491193761,1.053767307212406,1.0497058963179446,-1.0359488491193762,high,high,,ISIC_0064279.JPG,,ISIC_6785249.JPG,28,27,false,0.11,hh,keypress(i),0,true,807527.2000000477,807526.9000000954,804367.173,804615,804400.527,807322.852,1,40,30,
sequence,flow.Sequence,8_29,2023-11-29T15:46:22.093Z,,,,,,,,,,,3126.3730000953656,completion,,,,,,,high,high,,,,,,,false,,,,,true,807527.7000000477,807526.9000000954,804367.173,804615,804400.527,807322.852,1,40,,
trial,html.Screen,8_30_0,2023-11-29T15:46:24.460Z,,,,2,-0.039520186367207,-0.0377961575607372,,0.04,false,lh,2572.048000095412,response,-0.9617893983965208,1.091116677801915,-0.8359488491193761,0.9453006131304652,1.0497058963179446,-1.0359488491193762,low,high,,ISIC_6356149.JPG,,ISIC_4229473.JPG,28,29,false,0.19000000000000006,ll,keypress(f),0,true,809895.3000001907,809894.9000000954,807289.616,807528,807322.852,809677.557,1,40,31,
sequence,flow.Sequence,8_30,2023-11-29T15:46:24.461Z,,,,,,,,,,,2572.048000095412,completion,,,,,,,low,high,,,,,,,false,,,,,true,809895.8000001907,809894.9000000954,807289.616,807527.9000000954,807322.852,809677.557,1,40,,
trial,html.Screen,8_31_0,2023-11-29T15:46:33.140Z,,,,2,-0.0198696495649504,0.0387952353063878,,0.04,true,ll,8897.44299999997,response,-0.7950276358398455,1.091116677801915,-0.785948849119376,-1.087838988516297,1.0997058963179447,-1.0359488491193762,low,low,,ISIC_6735970.JPG,,ISIC_0032019.JPG,28,42,false,0.1,ll,keypress(f),0,true,818575.3000001907,818575,809660.722,809896.100000143,809677.557,818360.991,1,40,32,
sequence,flow.Sequence,8_31,2023-11-29T15:46:33.141Z,,,,,,,,,,,8897.44299999997,completion,,,,,,,low,low,,,,,,,false,,,,,true,818575.9000000954,818575,809660.722,809896,809677.557,818360.991,1,40,,
trial,html.Screen,8_32_0,2023-11-29T15:46:39.500Z,,,,2,0.0367744112927588,0.0324865661712824,,0.04,false,ll,6573.909000095329,response,-0.7442210668746905,1.091116677801915,-0.785948849119376,-1.0149619004779185,1.0997058963179447,-1.0359488491193762,low,low,,ISIC_4523565.JPG,,ISIC_7373074.JPG,28,42,false,0.1,hl,keypress(j),0,true,824935.3000001907,824934.9000000954,818327.713,818576.100000143,818360.991,824706.653,1,40,33,
sequence,flow.Sequence,8_32,2023-11-29T15:46:39.501Z,,,,,,,,,,,6573.909000095329,completion,,,,,,,low,low,,,,,,,false,,,,,true,824935.8000001907,824934.9000000954,818327.713,818576,818360.991,824706.653,1,40,,
trial,html.Screen,8_33_0,2023-11-29T15:46:43.348Z,,,,2,0,-0.0102871556606504,,0.04,true,hh,4076.247000095318,response,1.151139267005652,1.091116677801915,-0.8359488491193761,1.0838749490501327,1.0997058963179447,-1.0014004444971076,high,high,,ISIC_1805163.JPG,,ISIC_0002566.JPG,28,25,false,0.12,hh,keypress(i),0,true,828783.3000001907,828782.9000000954,824690.156,824936.100000143,824706.653,828564.18,1,40,34,
sequence,flow.Sequence,8_33,2023-11-29T15:46:43.349Z,,,,,,,,,,,4076.247000095318,completion,,,,,,,high,high,,,,,,,false,,,,,true,828783.9000000954,828782.9000000954,824690.156,824936,824706.653,828564.18,1,40,,
trial,html.Screen,8_34_0,2023-11-29T15:46:48.460Z,,,,2,0.0258224118104549,-0.0029364553353019,,0.04,false,lh,5330.5200000476325,response,-1.0116417541846066,1.0675071080278922,-0.8359488491193761,1.033442916947398,1.0997058963179447,-1.0014004444971076,low,high,,ISIC_8325226.JPG,,ISIC_0031389.JPG,28,27,false,0.19000000000000006,ll,keypress(f),0,true,833895.100000143,833894.7000000477,828547.725,828784.100000143,828564.18,833674.13,1,40,35,
sequence,flow.Sequence,8_34,2023-11-29T15:46:48.461Z,,,,,,,,,,,5330.5200000476325,completion,,,,,,,low,high,,,,,,,false,,,,,true,833895.7000000477,833894.7000000477,828547.725,828784,828564.18,833674.13,1,40,,
trial,html.Screen,8_35_0,2023-11-29T15:47:02.230Z,,,,2,-0.0241900387072296,0.0339955304424736,,0.04,false,lh,13990.470000143046,response,-0.6688135136685576,1.0675071080278922,-0.8359488491193761,1.2501710146339169,1.1497058963179447,-1.0014004444971076,low,high,,ISIC_0010789.JPG,,ISIC_9562442.JPG,28,25,false,0.22000000000000008,hl,keypress(j),0,true,847664.9000000954,847664.600000143,833657.541,833895.9000000954,833674.13,847450.937,1,40,36,
sequence,flow.Sequence,8_35,2023-11-29T15:47:02.230Z,,,,,,,,,,,13990.470000143046,completion,,,,,,,low,high,,,,,,,false,,,,,true,847665.4000000954,847664.600000143,833657.541,833895.8000001907,833674.13,847450.937,1,40,,
trial,html.Screen,8_36_0,2023-11-29T15:47:07.678Z,,,,2,0.0076984477620101,0.0069458408496562,,0.04,true,lh,5659.5629999999655,response,-0.678931451947854,1.0675071080278922,-0.8859488491193761,0.9976887721741746,1.1997058963179448,-1.0014004444971076,low,high,,ISIC_0000434.JPG,,ISIC_1137915.JPG,28,26,false,0.27000000000000013,lh,keypress(e),0,true,853111,853110.5,847417.697,847665.7000000477,847450.937,852896.042,1,40,37,
sequence,flow.Sequence,8_36,2023-11-29T15:47:07.678Z,,,,,,,,,,,5659.5629999999655,completion,,,,,,,low,high,,,,,,,false,,,,,true,853111.5,853110.5,847417.697,847665.600000143,847450.937,852896.042,1,40,,
trial,html.Screen,8_37_0,2023-11-29T15:47:15.622Z,,,,2,-0.039520186367207,-0.0377961575607372,,0.04,false,hl,8158.957999999984,response,0.9653573371180936,1.0675071080278922,-0.8859488491193761,-0.854766800381037,1.1997058963179448,-1.0014004444971076,high,low,,ISIC_6356149.JPG,,ISIC_9640145.JPG,28,25,false,0.27000000000000013,lh,keypress(e),0,true,861055.3000001907,861055,852861.607,853111.7000000477,852896.042,860843.685,1,40,38,
sequence,flow.Sequence,8_37,2023-11-29T15:47:15.623Z,,,,,,,,,,,8158.957999999984,completion,,,,,,,high,low,,,,,,,false,,,,,true,861055.8000001907,861055,852861.607,853111.7000000477,852896.042,860843.685,1,40,,
trial,html.Screen,8_38_0,2023-11-29T15:47:21.396Z,,,,2,-0.001445457736793,-0.0165307427449982,,0.04,true,lh,5985.515000047628,response,-0.6284406742939498,1.1175071080278922,-0.8859488491193761,0.9882196642247332,1.1997058963179448,-1.0514004444971077,low,high,,ISIC_0027350.JPG,,ISIC_0014255.JPG,28,26,false,0.27000000000000013,lh,keypress(e),0,true,866829.3000001907,866829.2000000477,860810.42,861056.100000143,860843.685,866604.877,1,40,39,
sequence,flow.Sequence,8_38,2023-11-29T15:47:21.396Z,,,,,,,,,,,5985.515000047628,completion,,,,,,,low,high,,,,,,,false,,,,,true,866829.4000000954,866829.2000000477,860810.42,861056,860843.685,866604.877,1,40,,
trial,html.Screen,8_39_0,2023-11-29T15:47:29.150Z,,,,2,0.0119001144851157,-0.0063430114540141,,0.04,false,hl,7977.723000143073,response,1.2578167348825195,1.1175071080278922,-0.8359488491193761,-0.8371819698254004,0.9429542181994539,-1.0514004444971077,high,low,,ISIC_0003822.JPG,,ISIC_9613570.JPG,28,25,false,0.3200000000000002,lh,keypress(e),0,true,874583,874582.600000143,866588.369,866829.5,866604.877,874353.31,1,40,40,
sequence,flow.Sequence,8_39,2023-11-29T15:47:29.150Z,,,,,,,,,,,7977.723000143073,completion,,,,,,,high,low,,,,,,,false,,,,,true,874583.4000000954,874582.600000143,866588.369,866829.4000000954,866604.877,874353.31,1,40,,
stair_loop,flow.Loop,8,2023-11-29T15:47:29.151Z,,,,,,,,,,,276717.49200014304,completion,,,,,,,,,,,,,,,false,,,,,true,874583.7000000477,874582.600000143,597848.685,598093.4000000954,597865.108,874353.31,1,40,,
exp_instructions,html.Screen,9,2023-11-29T15:47:44.462Z,,,,,,,,,,,15540.590000095312,response,,,,,,,,,,,,,,,,,continue,keypress(Space),,,889894.600000143,889893.9000000954,874336.553,874583.9000000954,874353.31,889666.451,,,,
trial,html.Screen,10_0_0,2023-11-29T15:47:52.752Z,,,,1,0.0119001144851157,-0.0063430114540141,,0.04,true,hh,8518.949000095367,response,1.151139267005652,1.0858104713093255,-0.840948849119376,1.0838749490501327,1.0718446617323976,-0.9738569075015825,high,high,,ISIC_0003822.JPG,9,ISIC_0002566.JPG,28,26,false,0.11,hh,keypress(i),0,false,898185.600000143,898185.4000000954,889649.854,889895,889666.451,897965.917,5,600,1,
break,html.Screen,10_0_1,2023-11-29T15:47:52.753Z,,,,,,,,,,,NaN,,,,,,,,high,high,,,,,,,false,,,,,false,898186.4000000954,898186.100000143,,898185.7000000477,,897965.917,5,600,,
break_continue,html.Screen,10_0_2,2023-11-29T15:47:52.754Z,,,,,,,,,,,NaN,,,,,,,,high,high,,,,,,,false,,,,,false,898186.9000000954,898186.7000000477,,898186.5,,897965.917,5,600,,
sequence,flow.Sequence,10_0,2023-11-29T15:47:52.754Z,,,,,,,,,,,8520.249000047683,completion,,,,,,,high,high,,,,,,,false,,,,,false,898187.100000143,898186.7000000477,889649.854,889894.9000000954,889666.451,897965.917,5,600,,
trial,html.Screen,10_1_0,2023-11-29T15:47:59.454Z,,,,1,0.0009714874637896,-0.0174815595031679,,0.04,false,lh,6920.983000095352,response,-0.7079689798840642,1.0858104713093255,-0.840948849119376,0.9053957126199562,1.0718446617323976,-0.9738569075015825,low,high,,ISIC_9848743.JPG,10,ISIC_0058863.JPG,28,27,false,0.19000000000000006,hh,keypress(i),0,false,904887.3000001907,904886.9000000954,897949.368,898187.2000000477,897965.917,904662.313,5,600,2,
break,html.Screen,10_1_1,2023-11-29T15:47:59.456Z,,,,,,,,,,,NaN,,,,,,,,low,high,,,,,,,false,,,,,false,904888.7000000477,904888.3000001907,,904887.7000000477,,904662.313,5,600,,
break_continue,html.Screen,10_1_2,2023-11-29T15:47:59.457Z,,,,,,,,,,,NaN,,,,,,,,low,high,,,,,,,false,,,,,false,904889.7000000477,904889.3000001907,,904888.9000000954,,904662.313,5,600,,
sequence,flow.Sequence,10_1,2023-11-29T15:47:59.457Z,,,,,,,,,,,6923.383000190719,completion,,,,,,,low,high,,,,,,,false,,,,,false,904890,904889.3000001907,897949.368,898187.2000000477,897965.917,904662.313,5,600,,
trial,html.Screen,10_2_0,2023-11-29T15:48:02.086Z,,,,1,-0.0074667911845194,0.018500200317654,,0.04,true,ll,2856.587000095402,response,-0.773945859979408,1.0858104713093255,-0.840948849119376,-0.8851229142232653,1.0718446617323976,-0.9738569075015825,low,low,,ISIC_0058723.JPG,9,ISIC_0073238.JPG,28,45,false,0.1,ll,keypress(f),0,false,907519.2000000477,907518.9000000954,904645.546,904890.2000000477,904662.313,907300.776,5,600,3,
break,html.Screen,10_2_1,2023-11-29T15:48:02.087Z,,,,,,,,,,,NaN,,,,,,,,low,low,,,,,,,false,,,,,false,907520.5,907520.2000000477,,907519.7000000477,,907300.776,5,600,,
break_continue,html.Screen,10_2_2,2023-11-29T15:48:02.088Z,,,,,,,,,,,NaN,,,,,,,,low,low,,,,,,,false,,,,,false,907521.4000000954,907521,,907520.7000000477,,907300.776,5,600,,
sequence,flow.Sequence,10_2,2023-11-29T15:48:02.089Z,,,,,,,,,,,2858.6870000000345,completion,,,,,,,low,low,,,,,,,false,,,,,false,907521.7000000477,907521,904645.546,904890.2000000477,904662.313,907300.776,5,600,,
trial,html.Screen,10_3_0,2023-11-29T15:48:06.824Z,,,,1,-0.0198696495649504,0.0387952353063878,,0.04,true,hl,4954.0240001907805,response,0.8830264383952469,1.0858104713093255,-0.840948849119376,-0.8635562538060516,1.0718446617323976,-0.9738569075015825,high,low,,ISIC_6735970.JPG,10,ISIC_0032258.JPG,28,28,false,0.28000000000000014,hl,keypress(j),0,false,912255.2000000477,912254.8000001907,907284.279,907522,907300.776,912026.647,5,600,4,
break,html.Screen,10_3_1,2023-11-29T15:48:06.825Z,,,,,,,,,,,NaN,,,,,,,,high,low,,,,,,,false,,,,,false,912256.4000000954,912256.100000143,,912255.600000143,,912026.647,5,600,,
break_continue,html.Screen,10_3_2,2023-11-29T15:48:06.826Z,,,,,,,,,,,NaN,,,,,,,,high,low,,,,,,,false,,,,,false,912257.3000001907,912256.9000000954,,912256.600000143,,912026.647,5,600,,
sequence,flow.Sequence,10_3,2023-11-29T15:48:06.826Z,,,,,,,,,,,4956.124000095413,completion,,,,,,,high,low,,,,,,,false,,,,,false,912257.600000143,912256.9000000954,907284.279,907521.9000000954,907300.776,912026.647,5,600,,
trial,html.Screen,10_4_0,2023-11-29T15:48:13.327Z,,,,1,0.0044063257337227,0.0172548282859886,,0.04,false,lh,6730.853000000003,response,-0.7714570894008278,1.0858104713093255,-0.840948849119376,0.9113656554657036,1.0718446617323976,-0.9738569075015825,low,high,,ISIC_7413786.JPG,8,ISIC_4529092.JPG,28,27,false,0.19000000000000006,hl,keypress(j),0,false,918757.7000000477,918757.5,912010.131,912257.7000000477,912026.647,918539.321,5,600,5,
break,html.Screen,10_4_1,2023-11-29T15:48:13.327Z,,,,,,,,,,,NaN,,,,,,,,low,high,,,,,,,false,,,,,false,918758,918757.9000000954,,918757.8000001907,,918539.321,5,600,,
break_continue,html.Screen,10_4_2,2023-11-29T15:48:13.327Z,,,,,,,,,,,NaN,,,,,,,,low,high,,,,,,,false,,,,,false,918758.2000000477,918758.2000000477,,918758,,918539.321,5,600,,
sequence,flow.Sequence,10_4,2023-11-29T15:48:13.327Z,,,,,,,,,,,6731.5530000476865,completion,,,,,,,low,high,,,,,,,false,,,,,false,918758.3000001907,918758.2000000477,912010.131,912257.7000000477,912026.647,918539.321,5,600,,
trial,html.Screen,10_5_0,2023-11-29T15:48:17.960Z,,,,1,-0.0109416414475118,-0.005246498750811,,0.04,true,lh,4851.579000095371,response,-0.7396001261916139,1.0858104713093255,-0.840948849119376,0.9901017340796716,1.0718446617323976,-0.9738569075015825,low,high,,ISIC_0064279.JPG,9,ISIC_8679617.JPG,28,27,false,0.19000000000000006,lh,keypress(e),0,false,923391.3000001907,923390.9000000954,918522.835,918758.3000001907,918539.321,923164.992,5,600,6,
break,html.Screen,10_5_1,2023-11-29T15:48:17.962Z,,,,,,,,,,,NaN,,,,,,,,low,high,,,,,,,false,,,,,false,923392.7000000477,923392.2000000477,,923391.7000000477,,923164.992,5,600,,
break_continue,html.Screen,10_5_2,2023-11-29T15:48:17.962Z,,,,,,,,,,,NaN,,,,,,,,low,high,,,,,,,false,,,,,false,923393.5,923393.2000000477,,923392.9000000954,,923164.992,5,600,,
sequence,flow.Sequence,10_5,2023-11-29T15:48:17.963Z,,,,,,,,,,,4853.879000047687,completion,,,,,,,low,high,,,,,,,false,,,,,false,923393.9000000954,923393.2000000477,918522.835,918758.3000001907,918539.321,923164.992,5,600,,
trial,html.Screen,10_6_0,2023-11-29T15:48:27.414Z,,,,1,0.0283578106329894,-0.0088840758711548,,0.04,false,ll,9680.408000095398,response,-0.8932499910364976,1.0858104713093255,-0.840948849119376,-1.0367498890350624,1.0718446617323976,-0.9738569075015825,low,low,,ISIC_0060707.JPG,9,ISIC_0030106.JPG,28,45,false,0.1,hl,keypress(j),0,false,932845.5,932845.4000000954,923148.46,923394.2000000477,923164.992,932616.709,5,600,7,
break,html.Screen,10_6_1,2023-11-29T15:48:27.415Z,,,,,,,,,,,NaN,,,,,,,,low,low,,,,,,,false,,,,,false,932845.9000000954,932845.8000001907,,932845.600000143,,932616.709,5,600,,
break_continue,html.Screen,10_6_2,2023-11-29T15:48:27.415Z,,,,,,,,,,,NaN,,,,,,,,low,low,,,,,,,false,,,,,false,932846.100000143,932846,,932845.9000000954,,932616.709,5,600,,
sequence,flow.Sequence,10_6,2023-11-29T15:48:27.415Z,,,,,,,,,,,9681.00800000003,completion,,,,,,,low,low,,,,,,,false,,,,,false,932846.2000000477,932846,923148.46,923394.100000143,923164.992,932616.709,5,600,,
trial,html.Screen,10_7_0,2023-11-29T15:48:31.622Z,,,,1,-0.0164027439304477,0.0082910758715273,,0.04,true,ll,4436.491000047652,response,-0.8735012360137532,1.0858104713093255,-0.840948849119376,-1.0448182576694087,1.0718446617323976,-0.9738569075015825,low,low,,ISIC_7381224.JPG,10,ISIC_0010267.JPG,28,45,false,0.1,ll,keypress(f),0,false,937053.4000000954,937053.2000000477,932599.965,932846.3000001907,932616.709,936824.889,5,600,8,
break,html.Screen,10_7_1,2023-11-29T15:48:31.623Z,,,,,,,,,,,NaN,,,,,,,,low,low,,,,,,,false,,,,,false,937053.7000000477,937053.600000143,,937053.5,,936824.889,5,600,,
break_continue,html.Screen,10_7_2,2023-11-29T15:48:31.623Z,,,,,,,,,,,NaN,,,,,,,,low,low,,,,,,,false,,,,,false,937053.9000000954,937053.8000001907,,937053.8000001907,,936824.889,5,600,,
sequence,flow.Sequence,10_7,2023-11-29T15:48:31.623Z,,,,,,,,,,,4437.091000190703,completion,,,,,,,low,low,,,,,,,false,,,,,false,937054,937053.8000001907,932599.965,932846.3000001907,932616.709,936824.889,5,600,,
trial,html.Screen,10_8_0,2023-11-29T15:48:35.072Z,,,,1,0.0283578106329894,-0.0088840758711548,,0.04,false,hl,3677.9110001907684,response,1.0453124399868816,1.0858104713093255,-0.840948849119376,-0.8986747280184286,1.0718446617323976,-0.9738569075015825,high,low,,ISIC_0060707.JPG,9,ISIC_0013967.JPG,28,28,false,0.28000000000000014,hh,keypress(i),0,false,940503.100000143,940502.8000001907,936808.185,937054,936824.889,940281.828,5,600,9,
break,html.Screen,10_8_1,2023-11-29T15:48:35.073Z,,,,,,,,,,,NaN,,,,,,,,high,low,,,,,,,false,,,,,false,940504.4000000954,940504,,940503.5,,940281.828,5,600,,
break_continue,html.Screen,10_8_2,2023-11-29T15:48:35.074Z,,,,,,,,,,,NaN,,,,,,,,high,low,,,,,,,false,,,,,false,940505.5,940505,,940504.8000001907,,940281.828,5,600,,
sequence,flow.Sequence,10_8,2023-11-29T15:48:35.075Z,,,,,,,,,,,3680.1110000000335,completion,,,,,,,high,low,,,,,,,false,,,,,false,940505.7000000477,940505,936808.185,937054,936824.889,940281.828,5,600,,
trial,html.Screen,10_9_0,2023-11-29T15:48:37.640Z,,,,1,0.0200295718112167,0.0155559071275806,,0.04,true,ll,2789.1720000000205,response,-0.8214996989009526,1.0858104713093255,-0.840948849119376,-0.9889466964422248,1.0718446617323976,-0.9738569075015825,low,low,,ISIC_0061343.JPG,8,ISIC_0000305.JPG,28,45,false,0.1,ll,keypress(f),0,false,943071.3000001907,943071,940264.914,940506,940281.828,942869.985,5,600,10,
break,html.Screen,10_9_1,2023-11-29T15:48:37.641Z,,,,,,,,,,,NaN,,,,,,,,low,low,,,,,,,false,,,,,false,943072.5,943072.2000000477,,943071.7000000477,,942869.985,5,600,,
break_continue,html.Screen,10_9_2,2023-11-29T15:48:37.642Z,,,,,,,,,,,NaN,,,,,,,,low,low,,,,,,,false,,,,,false,943073.5,943073,,943072.8000001907,,942869.985,5,600,,
sequence,flow.Sequence,10_9,2023-11-29T15:48:37.643Z,,,,,,,,,,,2791.1720000000205,completion,,,,,,,low,low,,,,,,,false,,,,,false,943073.8000001907,943073,940264.914,940506,940281.828,942869.985,5,600,,
trial,html.Screen,10_10_0,2023-11-29T15:48:40.000Z,,,,1,0.0257631352671967,0.0202837002774028,,0.04,false,hl,2560.815000190749,response,1.0453124399868816,1.0858104713093255,-0.840948849119376,-0.8986747280184286,1.0718446617323976,-0.9738569075015825,high,low,,ISIC_0032797.JPG,9,ISIC_0013967.JPG,28,28,false,0.28000000000000014,hh,keypress(i),0,false,945431.100000143,945430.8000001907,942836.857,943074,942869.985,945207.902,5,600,11,
break,html.Screen,10_10_1,2023-11-29T15:48:40.001Z,,,,,,,,,,,NaN,,,,,,,,high,low,,,,,,,false,,,,,false,945432.3000001907,945432,,945431.5,,945207.902,5,600,,
break_continue,html.Screen,10_10_2,2023-11-29T15:48:40.002Z,,,,,,,,,,,NaN,,,,,,,,high,low,,,,,,,false,,,,,false,945433.3000001907,945432.8000001907,,945432.5,,945207.902,5,600,,
sequence,flow.Sequence,10_10,2023-11-29T15:48:40.002Z,,,,,,,,,,,2562.815000190749,completion,,,,,,,high,low,,,,,,,false,,,,,false,945433.600000143,945432.8000001907,942836.857,943074,942869.985,945207.902,5,600,,
trial,html.Screen,10_11_0,2023-11-29T15:48:46.656Z,,,,1,0.0367706518941078,-0.0161069838272154,,0.04,true,hl,6878.698000143049,response,1.199471562817528,1.0858104713093255,-0.840948849119376,-0.8631260534979347,1.0718446617323976,-0.9738569075015825,high,low,,ISIC_0033419.JPG,9,ISIC_0030754.JPG,28,28,false,0.28000000000000014,hl,keypress(j),0,false,952087,952086.600000143,945191.376,945433.9000000954,945207.902,951872.034,5,600,12,
break,html.Screen,10_11_1,2023-11-29T15:48:46.657Z,,,,,,,,,,,NaN,,,,,,,,high,low,,,,,,,false,,,,,false,952088.2000000477,952087.9000000954,,952087.3000001907,,951872.034,5,600,,
break_continue,html.Screen,10_11_2,2023-11-29T15:48:46.658Z,,,,,,,,,,,NaN,,,,,,,,high,low,,,,,,,false,,,,,false,952089.100000143,952088.8000001907,,952088.5,,951872.034,5,600,,
sequence,flow.Sequence,10_11,2023-11-29T15:48:46.658Z,,,,,,,,,,,6880.898000190733,completion,,,,,,,high,low,,,,,,,false,,,,,false,952089.5,952088.8000001907,945191.376,945433.8000001907,945207.902,951872.034,5,600,,
trial,html.Screen,10_12_0,2023-11-29T15:48:48.929Z,,,,1,0.0367706518941078,-0.0161069838272154,,0.04,false,lh,2487.2660001907498,response,-0.8307508446051526,1.0858104713093255,-0.840948849119376,1.1707575338936729,1.0718446617323976,-0.9738569075015825,low,high,,ISIC_0033419.JPG,9,ISIC_0028606.JPG,28,27,false,0.19000000000000006,hh,keypress(i),0,false,954359.8000001907,954359.3000001907,951837.71,952089.7000000477,951872.034,954141.953,5,600,13,
break,html.Screen,10_12_1,2023-11-29T15:48:48.930Z,,,,,,,,,,,NaN,,,,,,,,low,high,,,,,,,false,,,,,false,954361,954360.7000000477,,954360.2000000477,,954141.953,5,600,,
break_continue,html.Screen,10_12_2,2023-11-29T15:48:48.931Z,,,,,,,,,,,NaN,,,,,,,,low,high,,,,,,,false,,,,,false,954362,954361.600000143,,954361.2000000477,,954141.953,5,600,,
sequence,flow.Sequence,10_12,2023-11-29T15:48:48.931Z,,,,,,,,,,,2489.566000143066,completion,,,,,,,low,high,,,,,,,false,,,,,false,954362.3000001907,954361.600000143,951837.71,952089.600000143,951872.034,954141.953,5,600,,
trial,html.Screen,10_13_0,2023-11-29T15:48:55.838Z,,,,1,0.0220026381002083,-0.0170756452911772,,0.04,false,hl,7127.5470000000205,response,0.8075741539776473,1.0858104713093255,-0.840948849119376,-0.7326891894107508,1.0718446617323976,-0.9738569075015825,high,low,,ISIC_5347806.JPG,9,ISIC_3428523.JPG,28,28,false,0.28000000000000014,hh,keypress(i),0,false,961269.600000143,961269.5,954125.517,954362.5,954141.953,961038.712,5,600,14,
break,html.Screen,10_13_1,2023-11-29T15:48:55.839Z,,,,,,,,,,,NaN,,,,,,,,high,low,,,,,,,false,,,,,false,961269.9000000954,961269.9000000954,,961269.7000000477,,961038.712,5,600,,
break_continue,html.Screen,10_13_2,2023-11-29T15:48:55.839Z,,,,,,,,,,,NaN,,,,,,,,high,low,,,,,,,false,,,,,false,961270.2000000477,961270.100000143,,961270,,961038.712,5,600,,
sequence,flow.Sequence,10_13,2023-11-29T15:48:55.839Z,,,,,,,,,,,7128.147000143072,completion,,,,,,,high,low,,,,,,,false,,,,,false,961270.2000000477,961270.100000143,954125.517,954362.4000000954,954141.953,961038.712,5,600,,
trial,html.Screen,10_14_0,2023-11-29T15:48:57.784Z,,,,1,0.0286056110007553,0.036125199756515,,0.04,true,hh,2175.988000047626,response,1.151139267005652,1.0858104713093255,-0.840948849119376,1.0838749490501327,1.0718446617323976,-0.9738569075015825,high,high,,ISIC_6535558.JPG,10,ISIC_0002566.JPG,28,26,false,0.11,hh,keypress(i),0,false,963215.100000143,963214.7000000477,961021.943,961270.3000001907,961038.712,963009.221,5,600,15,
break,html.Screen,10_14_1,2023-11-29T15:48:57.785Z,,,,,,,,,,,NaN,,,,,,,,high,high,,,,,,,false,,,,,false,963216.100000143,963215.9000000954,,963215.5,,963009.221,5,600,,
break_continue,html.Screen,10_14_2,2023-11-29T15:48:57.786Z,,,,,,,,,,,NaN,,,,,,,,high,high,,,,,,,false,,,,,false,963216.9000000954,963216.600000143,,963216.4000000954,,963009.221,5,600,,
sequence,flow.Sequence,10_14,2023-11-29T15:48:57.786Z,,,,,,,,,,,2177.8880001429934,completion,,,,,,,high,high,,,,,,,false,,,,,false,963217.4000000954,963216.600000143,961021.943,961270.3000001907,961038.712,963009.221,5,600,,
trial,html.Screen,10_15_0,2023-11-29T15:49:01.185Z,,,,1,-0.0164027439304477,0.0082910758715273,,0.04,false,lh,3606.0790001907153,response,-0.6761608723588025,1.0858104713093255,-0.840948849119376,1.0058174828582729,1.0718446617323976,-0.9738569075015825,low,high,,ISIC_7381224.JPG,10,ISIC_1343302.JPG,28,27,false,0.19000000000000006,ll,keypress(f),0,false,966615.600000143,966615.3000001907,962975.975,963217.5,963009.221,966399.326,5,600,16,
break,html.Screen,10_15_1,2023-11-29T15:49:01.186Z,,,,,,,,,,,NaN,,,,,,,,low,high,,,,,,,false,,,,,false,966616.9000000954,966616.600000143,,966616.100000143,,966399.326,5,600,,
break_continue,html.Screen,10_15_2,2023-11-29T15:49:01.187Z,,,,,,,,,,,NaN,,,,,,,,low,high,,,,,,,false,,,,,false,966617.8000001907,966617.4000000954,,966617.100000143,,966399.326,5,600,,
sequence,flow.Sequence,10_15,2023-11-29T15:49:01.187Z,,,,,,,,,,,3608.179000095348,completion,,,,,,,low,high,,,,,,,false,,,,,false,966618.100000143,966617.4000000954,962975.975,963217.5,963009.221,966399.326,5,600,,
trial,html.Screen,10_16_0,2023-11-29T15:49:03.849Z,,,,1,-0.001445457736793,-0.0165307427449982,,0.04,true,ll,2878.374000047683,response,-0.8010128234618513,1.0858104713093255,-0.840948849119376,-0.9031251164933652,1.0718446617323976,-0.9738569075015825,low,low,,ISIC_0027350.JPG,9,ISIC_0058768.JPG,28,45,false,0.1,ll,keypress(f),0,false,969277.7000000477,969277.7000000477,966365.986,966618.5,966399.326,969054.547,5,600,17,
break,html.Screen,10_16_1,2023-11-29T15:49:03.849Z,,,,,,,,,,,NaN,,,,,,,,low,low,,,,,,,false,,,,,false,969278,969278,,969277.8000001907,,969054.547,5,600,,
break_continue,html.Screen,10_16_2,2023-11-29T15:49:03.849Z,,,,,,,,,,,NaN,,,,,,,,low,low,,,,,,,false,,,,,false,969278.3000001907,969278.2000000477,,969278.100000143,,969054.547,5,600,,
sequence,flow.Sequence,10_16,2023-11-29T15:49:03.849Z,,,,,,,,,,,2878.874000047683,completion,,,,,,,low,low,,,,,,,false,,,,,false,969278.3000001907,969278.2000000477,966365.986,966618.4000000954,966399.326,969054.547,5,600,,
trial,html.Screen,10_17_0,2023-11-29T15:49:12.763Z,,,,1,0.0009714874637896,-0.0174815595031679,,0.04,false,hh,9136.653000047663,response,0.9798314852960236,1.0858104713093255,-0.840948849119376,1.167024525807191,1.0718446617323976,-0.9738569075015825,high,high,,ISIC_9848743.JPG,9,ISIC_4341261.JPG,28,26,false,0.11,lh,keypress(e),0,false,978191.7000000477,978191.2000000477,969037.819,969278.4000000954,969054.547,977971.68,5,600,18,
break,html.Screen,10_17_1,2023-11-29T15:49:12.764Z,,,,,,,,,,,NaN,,,,,,,,high,high,,,,,,,false,,,,,false,978193,978192.7000000477,,978192.2000000477,,977971.68,5,600,,
break_continue,html.Screen,10_17_2,2023-11-29T15:49:12.765Z,,,,,,,,,,,NaN,,,,,,,,high,high,,,,,,,false,,,,,false,978194.100000143,978193.7000000477,,978193.4000000954,,977971.68,5,600,,
sequence,flow.Sequence,10_17,2023-11-29T15:49:12.765Z,,,,,,,,,,,9139.153000047663,completion,,,,,,,high,high,,,,,,,false,,,,,false,978194.5,978193.7000000477,969037.819,969278.3000001907,969054.547,977971.68,5,600,,
trial,html.Screen,10_18_0,2023-11-29T15:49:19.401Z,,,,1,-0.0074667911845194,0.018500200317654,,0.04,false,hl,6858.420000143,response,0.9653573371180936,1.0858104713093255,-0.840948849119376,-0.854766800381037,1.0718446617323976,-0.9738569075015825,high,low,,ISIC_0058723.JPG,9,ISIC_9640145.JPG,28,28,false,0.28000000000000014,lh,keypress(e),0,false,984830.2000000477,984830.100000143,977955.212,978194.7000000477,977971.68,984601.242,5,600,19,
break,html.Screen,10_18_1,2023-11-29T15:49:19.402Z,,,,,,,,,,,NaN,,,,,,,,high,low,,,,,,,false,,,,,false,984830.8000001907,984830.7000000477,,984830.4000000954,,984601.242,5,600,,
break_continue,html.Screen,10_18_2,2023-11-29T15:49:19.402Z,,,,,,,,,,,NaN,,,,,,,,high,low,,,,,,,false,,,,,false,984831.3000001907,984831.100000143,,984831,,984601.242,5,600,,
sequence,flow.Sequence,10_18,2023-11-29T15:49:19.402Z,,,,,,,,,,,6859.420000143,completion,,,,,,,high,low,,,,,,,false,,,,,false,984831.600000143,984831.100000143,977955.212,978194.600000143,977971.68,984601.242,5,600,,
trial,html.Screen,10_19_0,2023-11-29T15:49:27.609Z,,,,1,-0.0241900387072296,0.0339955304424736,,0.04,false,hh,8436.558000190766,response,1.1100289789666156,1.0858104713093255,-0.840948849119376,0.9747349048723576,1.0718446617323976,-0.9738569075015825,high,high,,ISIC_0010789.JPG,9,ISIC_0026552.JPG,28,26,false,0.11,hl,keypress(j),0,false,993038,993037.8000001907,984584.561,984831.600000143,984601.242,992817.304,5,600,20,
break,html.Screen,10_19_1,2023-11-29T15:49:27.609Z,,,,,,,,,,,NaN,,,,,,,,high,high,,,,,,,false,,,,,false,993038.4000000954,993038.2000000477,,993038,,992817.304,5,600,,
break_continue,html.Screen,10_19_2,2023-11-29T15:49:27.610Z,,,,,,,,,,,NaN,,,,,,,,high,high,,,,,,,false,,,,,false,993038.600000143,993038.5,,993038.4000000954,,992817.304,5,600,,
sequence,flow.Sequence,10_19,2023-11-29T15:49:27.610Z,,,,,,,,,,,8437.25800000003,completion,,,,,,,high,high,,,,,,,false,,,,,false,993038.7000000477,993038.5,984584.561,984831.600000143,984601.242,992817.304,5,600,,
trial,html.Screen,10_20_0,2023-11-29T15:49:35.618Z,,,,1,-0.0164027439304477,0.0082910758715273,,0.04,false,hh,8229.496000190731,response,1.0943527860463682,1.0858104713093255,-0.840948849119376,1.124481746658104,1.0718446617323976,-0.9738569075015825,high,high,,ISIC_7381224.JPG,9,ISIC_0438136.JPG,28,26,false,0.11,hl,keypress(j),0,false,1001047.100000143,1001046.8000001907,992800.778,993038.8000001907,992817.304,1000816.21,5,600,21,
break,html.Screen,10_20_1,2023-11-29T15:49:35.619Z,,,,,,,,,,,NaN,,,,,,,,high,high,,,,,,,false,,,,,false,1001048.3000001907,1001048.100000143,,1001047.600000143,,1000816.21,5,600,,
break_continue,html.Screen,10_20_2,2023-11-29T15:49:35.620Z,,,,,,,,,,,NaN,,,,,,,,high,high,,,,,,,false,,,,,false,1001049.2000000477,1001048.9000000954,,1001048.600000143,,1000816.21,5,600,,
sequence,flow.Sequence,10_20,2023-11-29T15:49:35.620Z,,,,,,,,,,,8231.596000095364,completion,,,,,,,high,high,,,,,,,false,,,,,false,1001049.600000143,1001048.9000000954,992800.778,993038.8000001907,992817.304,1000816.21,5,600,,
trial,html.Screen,10_21_0,2023-11-29T15:49:43.498Z,,,,1,0,-0.0102871556606504,,0.04,true,ll,8110.890000143088,response,-0.7707298150258685,1.0858104713093255,-0.840948849119376,-1.010460601525102,1.0718446617323976,-0.9738569075015825,low,low,,ISIC_1805163.JPG,9,ISIC_0010746.JPG,28,45,false,0.1,ll,keypress(f),0,false,1008927.4000000954,1008927.100000143,1000799.538,1001049.8000001907,1000816.21,1008698.129,5,600,22,
break,html.Screen,10_21_1,2023-11-29T15:49:43.500Z,,,,,,,,,,,NaN,,,,,,,,low,low,,,,,,,false,,,,,false,1008928.9000000954,1008928.5,,1008927.9000000954,,1008698.129,5,600,,
break_continue,html.Screen,10_21_2,2023-11-29T15:49:43.501Z,,,,,,,,,,,NaN,,,,,,,,low,low,,,,,,,false,,,,,false,1008929.8000001907,1008929.4000000954,,1008929.100000143,,1008698.129,5,600,,
sequence,flow.Sequence,10_21,2023-11-29T15:49:43.501Z,,,,,,,,,,,8113.190000095405,completion,,,,,,,low,low,,,,,,,false,,,,,false,1008930.100000143,1008929.4000000954,1000799.538,1001049.7000000477,1000816.21,1008698.129,5,600,,
trial,html.Screen,10_22_0,2023-11-29T15:49:52.042Z,,,,1,-0.0074667911845194,0.018500200317654,,0.04,false,hh,8772.671000190778,response,0.9832288967264424,1.0858104713093255,-0.840948849119376,1.0898586098590013,1.0718446617323976,-0.9738569075015825,high,high,,ISIC_0058723.JPG,9,ISIC_2724529.JPG,28,26,false,0.11,lh,keypress(e),0,false,1017471.100000143,1017470.8000001907,1008681.65,1008930.4000000954,1008698.129,1017248.123,5,600,23,
break,html.Screen,10_22_1,2023-11-29T15:49:52.043Z,,,,,,,,,,,NaN,,,,,,,,high,high,,,,,,,false,,,,,false,1017472.2000000477,1017472,,1017471.5,,1017248.123,5,600,,
break_continue,html.Screen,10_22_2,2023-11-29T15:49:52.044Z,,,,,,,,,,,NaN,,,,,,,,high,high,,,,,,,false,,,,,false,1017473.100000143,1017472.7000000477,,1017472.5,,1017248.123,5,600,,
sequence,flow.Sequence,10_22,2023-11-29T15:49:52.044Z,,,,,,,,,,,8774.571000047727,completion,,,,,,,high,high,,,,,,,false,,,,,false,1017473.4000000954,1017472.7000000477,1008681.65,1008930.3000001907,1008698.129,1017248.123,5,600,,
trial,html.Screen,10_23_0,2023-11-29T15:50:02.250Z,,,,1,-0.001445457736793,-0.0165307427449982,,0.04,true,lh,10430.876999999979,response,-0.8443403196524287,1.0858104713093255,-0.840948849119376,0.8858525429102605,1.0718446617323976,-0.9738569075015825,low,high,,ISIC_0027350.JPG,8,ISIC_8777813.JPG,28,27,false,0.19000000000000006,lh,keypress(e),0,false,1027679.5,1027679,1017231.582,1017473.600000143,1017248.123,1027451.315,5,600,24,
break,html.Screen,10_23_1,2023-11-29T15:50:02.252Z,,,,,,,,,,,NaN,,,,,,,,low,high,,,,,,,false,,,,,false,1027680.600000143,1027680.4000000954,,1027679.8000001907,,1027451.315,5,600,,
break_continue,html.Screen,10_23_2,2023-11-29T15:50:02.252Z,,,,,,,,,,,NaN,,,,,,,,low,high,,,,,,,false,,,,,false,1027681.600000143,1027681.2000000477,,1027680.8000001907,,1027451.315,5,600,,
sequence,flow.Sequence,10_23,2023-11-29T15:50:02.253Z,,,,,,,,,,,10433.077000047662,completion,,,,,,,low,high,,,,,,,false,,,,,false,1027681.9000000954,1027681.2000000477,1017231.582,1017473.600000143,1017248.123,1027451.315,5,600,,
trial,html.Screen,10_24_0,2023-11-29T15:50:09.818Z,,,,1,0.0367744112927588,0.0324865661712824,,0.04,false,lh,7794.085000095423,response,-0.6761608723588025,1.0858104713093255,-0.840948849119376,1.0058174828582729,1.0718446617323976,-0.9738569075015825,low,high,,ISIC_4523565.JPG,12,ISIC_1343302.JPG,28,27,false,0.19000000000000006,ll,keypress(f),0,false,1035245.600000143,1035245.4000000954,1027434.845,1027682.2000000477,1027451.315,1035032.717,5,600,25,
break,html.Screen,10_24_1,2023-11-29T15:50:09.819Z,,,,,,,,,,,NaN,,,,,,,,low,high,,,,,,,false,,,,,false,1035246.2000000477,1035246,,1035245.8000001907,,1035032.717,5,600,,
break_continue,html.Screen,10_24_2,2023-11-29T15:50:09.819Z,,,,,,,,,,,NaN,,,,,,,,low,high,,,,,,,false,,,,,false,1035246.5,1035246.3000001907,,1035246.3000001907,,1035032.717,5,600,,
sequence,flow.Sequence,10_24,2023-11-29T15:50:09.819Z,,,,,,,,,,,7794.985000190791,completion,,,,,,,low,high,,,,,,,false,,,,,false,1035246.5,1035246.3000001907,1027434.845,1027682.100000143,1027451.315,1035032.717,5,600,,
trial,html.Screen,10_25_0,2023-11-29T15:50:15.316Z,,,,1,0.0308384937406319,-0.0038396364323947,,0.04,true,hl,5710.583000190789,response,0.8830264383952469,1.0858104713093255,-0.840948849119376,-0.8635562538060516,1.0718446617323976,-0.9738569075015825,high,low,,ISIC_0029825.JPG,8,ISIC_0032258.JPG,28,28,false,0.28000000000000014,hl,keypress(j),0,false,1040743.600000143,1040743.3000001907,1034999.421,1035246.600000143,1035032.717,1040543.475,5,600,26,
break,html.Screen,10_25_1,2023-11-29T15:50:15.318Z,,,,,,,,,,,NaN,,,,,,,,high,low,,,,,,,false,,,,,false,1040745,1040744.5,,1040744.100000143,,1040543.475,5,600,,
break_continue,html.Screen,10_25_2,2023-11-29T15:50:15.319Z,,,,,,,,,,,NaN,,,,,,,,high,low,,,,,,,false,,,,,false,1040745.9000000954,1040745.4000000954,,1040745.2000000477,,1040543.475,5,600,,
sequence,flow.Sequence,10_25,2023-11-29T15:50:15.319Z,,,,,,,,,,,5712.683000095421,completion,,,,,,,high,low,,,,,,,false,,,,,false,1040746.3000001907,1040745.4000000954,1034999.421,1035246.5,1035032.717,1040543.475,5,600,,
trial,html.Screen,10_26_0,2023-11-29T15:50:28.731Z,,,,1,-0.0074667911845194,0.018500200317654,,0.04,false,lh,13614.225000047707,response,-0.8067116931297591,1.0858104713093255,-0.840948849119376,1.215898074058027,1.0718446617323976,-0.9738569075015825,low,high,,ISIC_0058723.JPG,9,ISIC_1457687.JPG,28,27,false,0.19000000000000006,hl,keypress(j),0,false,1054157.8000001907,1054157.7000000477,1040526.755,1040746.600000143,1040543.475,1053936.207,5,600,27,
break,html.Screen,10_26_1,2023-11-29T15:50:28.731Z,,,,,,,,,,,NaN,,,,,,,,low,high,,,,,,,false,,,,,false,1054158.100000143,1054158,,1054157.9000000954,,1053936.207,5,600,,
break_continue,html.Screen,10_26_2,2023-11-29T15:50:28.731Z,,,,,,,,,,,NaN,,,,,,,,low,high,,,,,,,false,,,,,false,1054158.4000000954,1054158.2000000477,,1054158.2000000477,,1053936.207,5,600,,
sequence,flow.Sequence,10_26,2023-11-29T15:50:28.731Z,,,,,,,,,,,13614.725000047707,completion,,,,,,,low,high,,,,,,,false,,,,,false,1054158.4000000954,1054158.2000000477,1040526.755,1040746.5,1040543.475,1053936.207,5,600,,
trial,html.Screen,10_27_0,2023-11-29T15:50:35.171Z,,,,1,0.0283578106329894,-0.0088840758711548,,0.04,true,hl,6661.3930001431145,response,0.8513427412482127,1.0858104713093255,-0.840948849119376,-0.9295303568095064,1.0718446617323976,-0.9738569075015825,high,low,,ISIC_0060707.JPG,9,ISIC_0034164.JPG,28,28,false,0.28000000000000014,hl,keypress(j),0,false,1060597.7000000477,1060597.600000143,1053919.76,1054158.5,1053936.207,1060365.379,5,600,28,
break,html.Screen,10_27_1,2023-11-29T15:50:35.171Z,,,,,,,,,,,NaN,,,,,,,,high,low,,,,,,,false,,,,,false,1060598,1060598,,1060597.8000001907,,1060365.379,5,600,,
break_continue,html.Screen,10_27_2,2023-11-29T15:50:35.171Z,,,,,,,,,,,NaN,,,,,,,,high,low,,,,,,,false,,,,,false,1060598.3000001907,1060598.2000000477,,1060598.100000143,,1060365.379,5,600,,
sequence,flow.Sequence,10_27,2023-11-29T15:50:35.171Z,,,,,,,,,,,6661.993000047747,completion,,,,,,,high,low,,,,,,,false,,,,,false,1060598.4000000954,1060598.2000000477,1053919.76,1054158.4000000954,1053936.207,1060365.379,5,600,,
trial,html.Screen,10_28_0,2023-11-29T15:50:40.227Z,,,,1,-0.0164027439304477,0.0082910758715273,,0.04,false,hh,5288.621000000043,response,0.9832288967264424,1.0858104713093255,-0.840948849119376,1.0898586098590013,1.0718446617323976,-0.9738569075015825,high,high,,ISIC_7381224.JPG,9,ISIC_2724529.JPG,28,26,false,0.11,lh,keypress(e),0,false,1065654.2000000477,1065654,1060348.911,1060598.4000000954,1060365.379,1065425.25,5,600,29,
break,html.Screen,10_28_1,2023-11-29T15:50:40.227Z,,,,,,,,,,,NaN,,,,,,,,high,high,,,,,,,false,,,,,false,1065654.600000143,1065654.600000143,,1065654.3000001907,,1065425.25,5,600,,
break_continue,html.Screen,10_28_2,2023-11-29T15:50:40.228Z,,,,,,,,,,,NaN,,,,,,,,high,high,,,,,,,false,,,,,false,1065655.100000143,1065654.9000000954,,1065654.7000000477,,1065425.25,5,600,,
sequence,flow.Sequence,10_28,2023-11-29T15:50:40.228Z,,,,,,,,,,,5289.52100009541,completion,,,,,,,high,high,,,,,,,false,,,,,false,1065655.2000000477,1065654.9000000954,1060348.911,1060598.4000000954,1060365.379,1065425.25,5,600,,
trial,html.Screen,10_29_0,2023-11-29T15:50:45.436Z,,,,1,-0.0374659946425444,-0.0086043094957617,,0.04,false,ll,5437.650000095367,response,-0.8312425167370745,1.0858104713093255,-0.840948849119376,-0.9376491160549733,1.0718446617323976,-0.9738569075015825,low,low,,ISIC_0033051.JPG,8,ISIC_4834687.JPG,28,45,false,0.1,hh,keypress(i),0,false,1070863.3000001907,1070862.9000000954,1065408.734,1065655.3000001907,1065425.25,1070635.372,5,600,30,
break,html.Screen,10_29_1,2023-11-29T15:50:45.437Z,,,,,,,,,,,NaN,,,,,,,,low,low,,,,,,,false,,,,,false,1070864.600000143,1070864.3000001907,,1070863.7000000477,,1070635.372,5,600,,
break_continue,html.Screen,10_29_2,2023-11-29T15:50:45.438Z,,,,,,,,,,,NaN,,,,,,,,low,low,,,,,,,false,,,,,false,1070865.5,1070865,,1070864.8000001907,,1070635.372,5,600,,
sequence,flow.Sequence,10_29,2023-11-29T15:50:45.439Z,,,,,,,,,,,5439.75,completion,,,,,,,low,low,,,,,,,false,,,,,false,1070865.8000001907,1070865,1065408.734,1065655.3000001907,1065425.25,1070635.372,5,600,,
trial,html.Screen,10_30_0,2023-11-29T15:50:53.989Z,,,,1,0,-0.0102871556606504,,0.04,false,hh,8780.028000095394,response,1.1100289789666156,1.0858104713093255,-0.840948849119376,0.9747349048723576,1.0718446617323976,-0.9738569075015825,high,high,,ISIC_1805163.JPG,8,ISIC_0026552.JPG,28,26,false,0.11,hl,keypress(j),0,false,1079415.8000001907,1079415.4000000954,1070618.789,1070866.100000143,1070635.372,1079202.068,5,600,31,
break,html.Screen,10_30_1,2023-11-29T15:50:53.990Z,,,,,,,,,,,NaN,,,,,,,,high,high,,,,,,,false,,,,,false,1079417,1079416.7000000477,,1079416.2000000477,,1079202.068,5,600,,
break_continue,html.Screen,10_30_2,2023-11-29T15:50:53.991Z,,,,,,,,,,,NaN,,,,,,,,high,high,,,,,,,false,,,,,false,1079417.9000000954,1079417.5,,1079417.2000000477,,1079202.068,5,600,,
sequence,flow.Sequence,10_30,2023-11-29T15:50:53.991Z,,,,,,,,,,,8782.128000000026,completion,,,,,,,high,high,,,,,,,false,,,,,false,1079418.3000001907,1079417.5,1070618.789,1070866,1070635.372,1079202.068,5,600,,
trial,html.Screen,10_31_0,2023-11-29T15:50:59.803Z,,,,1,0.0118382036798625,0.0300588245877227,,0.04,false,hh,6027.832000095397,response,1.0325421457475312,1.0858104713093255,-0.840948849119376,1.0219157566370058,1.0718446617323976,-0.9738569075015825,high,high,,ISIC_4748605.JPG,9,ISIC_5336548.JPG,28,26,false,0.11,lh,keypress(e),0,false,1085230,1085229.9000000954,1079168.777,1079418.5,1079202.068,1085014.238,5,600,32,
break,html.Screen,10_31_1,2023-11-29T15:50:59.803Z,,,,,,,,,,,NaN,,,,,,,,high,high,,,,,,,false,,,,,false,1085230.4000000954,1085230.3000001907,,1085230.2000000477,,1085014.238,5,600,,
break_continue,html.Screen,10_31_2,2023-11-29T15:50:59.804Z,,,,,,,,,,,NaN,,,,,,,,high,high,,,,,,,false,,,,,false,1085230.7000000477,1085230.5,,1085230.5,,1085014.238,5,600,,
sequence,flow.Sequence,10_31,2023-11-29T15:50:59.804Z,,,,,,,,,,,6028.43200000003,completion,,,,,,,high,high,,,,,,,false,,,,,false,1085230.8000001907,1085230.5,1079168.777,1079418.4000000954,1079202.068,1085014.238,5,600,,
trial,html.Screen,10_32_0,2023-11-29T15:51:02.750Z,,,,1,-0.0388334549081915,0.0303399972963369,,0.04,false,hl,3160.6620000954717,response,1.0453124399868816,1.0858104713093255,-0.840948849119376,-0.8986747280184286,1.0718446617323976,-0.9738569075015825,high,low,,ISIC_4961708.JPG,9,ISIC_0013967.JPG,28,28,false,0.28000000000000014,hh,keypress(i),0,false,1088175.2000000477,1088174.9000000954,1084979.907,1085230.9000000954,1085014.238,1087952.554,5,600,33,
break,html.Screen,10_32_1,2023-11-29T15:51:02.751Z,,,,,,,,,,,NaN,,,,,,,,high,low,,,,,,,false,,,,,false,1088176.5,1088176.2000000477,,1088175.7000000477,,1087952.554,5,600,,
break_continue,html.Screen,10_32_2,2023-11-29T15:51:02.752Z,,,,,,,,,,,NaN,,,,,,,,high,low,,,,,,,false,,,,,false,1088177.4000000954,1088177,,1088176.7000000477,,1087952.554,5,600,,
sequence,flow.Sequence,10_32,2023-11-29T15:51:02.752Z,,,,,,,,,,,3162.7620000001043,completion,,,,,,,high,low,,,,,,,false,,,,,false,1088177.600000143,1088177,1084979.907,1085230.9000000954,1085014.238,1087952.554,5,600,,
trial,html.Screen,10_33_0,2023-11-29T15:51:04.925Z,,,,1,0.0283578106329894,-0.0088840758711548,,0.04,true,ll,2396.9459999999963,response,-0.7878258396152632,1.0858104713093255,-0.840948849119376,-0.8828399683080101,1.0718446617323976,-0.9738569075015825,low,low,,ISIC_0060707.JPG,9,ISIC_0053541.JPG,28,45,false,0.1,ll,keypress(f),0,false,1090349.8000001907,1090349.5,1087935.905,1088177.9000000954,1087952.554,1090123.296,5,600,34,
break,html.Screen,10_33_1,2023-11-29T15:51:04.925Z,,,,,,,,,,,NaN,,,,,,,,low,low,,,,,,,false,,,,,false,1090350.100000143,1090350,,1090349.8000001907,,1090123.296,5,600,,
break_continue,html.Screen,10_33_2,2023-11-29T15:51:04.925Z,,,,,,,,,,,NaN,,,,,,,,low,low,,,,,,,false,,,,,false,1090350.4000000954,1090350.2000000477,,1090350.2000000477,,1090123.296,5,600,,
sequence,flow.Sequence,10_33,2023-11-29T15:51:04.925Z,,,,,,,,,,,2397.64600004768,completion,,,,,,,low,low,,,,,,,false,,,,,false,1090350.5,1090350.2000000477,1087935.905,1088177.8000001907,1087952.554,1090123.296,5,600,,
trial,html.Screen,10_34_0,2023-11-29T15:51:10.076Z,,,,1,-0.0374659946425444,-0.0086043094957617,,0.04,false,hh,5378.203999999911,response,1.1409143352872226,1.0858104713093255,-0.840948849119376,1.1323007949069106,1.0718446617323976,-0.9738569075015825,high,high,,ISIC_0033051.JPG,9,ISIC_0030291.JPG,28,26,false,0.11,lh,keypress(e),0,false,1095501.600000143,1095501.5,1090106.833,1090350.5,1090123.296,1095283.348,5,600,35,
break,html.Screen,10_34_1,2023-11-29T15:51:10.077Z,,,,,,,,,,,NaN,,,,,,,,high,high,,,,,,,false,,,,,false,1095502.100000143,1095501.9000000954,,1095501.8000001907,,1095283.348,5,600,,
break_continue,html.Screen,10_34_2,2023-11-29T15:51:10.077Z,,,,,,,,,,,NaN,,,,,,,,high,high,,,,,,,false,,,,,false,1095502.3000001907,1095502.3000001907,,1095502.2000000477,,1095283.348,5,600,,
sequence,flow.Sequence,10_34,2023-11-29T15:51:10.077Z,,,,,,,,,,,5379.0040001906455,completion,,,,,,,high,high,,,,,,,false,,,,,false,1095502.4000000954,1095502.3000001907,1090106.833,1090350.5,1090123.296,1095283.348,5,600,,
trial,html.Screen,10_35_0,2023-11-29T15:51:11.806Z,,,,1,-0.039520186367207,-0.0377961575607372,,0.04,true,ll,1947.5520000953693,response,-0.7863202439789435,1.0858104713093255,-0.840948849119376,-1.0644234101027583,1.0718446617323976,-0.9738569075015825,low,low,,ISIC_6356149.JPG,9,ISIC_0071576.JPG,28,45,false,0.1,ll,keypress(f),0,false,1097231.3000001907,1097230.9000000954,1095266.901,1095502.5,1095283.348,1097003.365,5,600,36,
break,html.Screen,10_35_1,2023-11-29T15:51:11.807Z,,,,,,,,,,,NaN,,,,,,,,low,low,,,,,,,false,,,,,false,1097232.5,1097232.3000001907,,1097231.7000000477,,1097003.365,5,600,,
break_continue,html.Screen,10_35_2,2023-11-29T15:51:11.808Z,,,,,,,,,,,NaN,,,,,,,,low,low,,,,,,,false,,,,,false,1097233.5,1097233,,1097232.8000001907,,1097003.365,5,600,,
sequence,flow.Sequence,10_35,2023-11-29T15:51:11.809Z,,,,,,,,,,,1949.6520000000019,completion,,,,,,,low,low,,,,,,,false,,,,,false,1097233.9000000954,1097233,1095266.901,1095502.5,1095283.348,1097003.365,5,600,,
trial,html.Screen,10_36_0,2023-11-29T15:51:14.677Z,,,,1,0,-0.0102871556606504,,0.04,true,ll,3098.6350000000093,response,-0.7960221520457809,1.0858104713093255,-0.840948849119376,-0.9397522689480928,1.0718446617323976,-0.9738569075015825,low,low,,ISIC_1805163.JPG,9,ISIC_1200192.JPG,28,45,false,0.1,ll,keypress(f),0,false,1100102.2000000477,1100102,1096986.868,1097234.100000143,1097003.365,1099875.611,5,600,37,
break,html.Screen,10_36_1,2023-11-29T15:51:14.677Z,,,,,,,,,,,NaN,,,,,,,,low,low,,,,,,,false,,,,,false,1100102.600000143,1100102.600000143,,1100102.3000001907,,1099875.611,5,600,,
break_continue,html.Screen,10_36_2,2023-11-29T15:51:14.678Z,,,,,,,,,,,NaN,,,,,,,,low,low,,,,,,,false,,,,,false,1100103,1100102.9000000954,,1100102.8000001907,,1099875.611,5,600,,
sequence,flow.Sequence,10_36,2023-11-29T15:51:14.678Z,,,,,,,,,,,3099.5350000953767,completion,,,,,,,low,low,,,,,,,false,,,,,false,1100103.100000143,1100102.9000000954,1096986.868,1097234,1097003.365,1099875.611,5,600,,
trial,html.Screen,10_37_0,2023-11-29T15:51:16.742Z,,,,1,0.0076984477620101,0.0069458408496562,,0.04,true,hh,2291.6890001907013,response,1.151139267005652,1.0858104713093255,-0.840948849119376,1.0838749490501327,1.0718446617323976,-0.9738569075015825,high,high,,ISIC_0000434.JPG,10,ISIC_0002566.JPG,28,26,false,0.11,hh,keypress(i),0,false,1102167.600000143,1102167.3000001907,1099858.917,1100103.3000001907,1099875.611,1101946.46,5,600,38,
break,html.Screen,10_37_1,2023-11-29T15:51:16.744Z,,,,,,,,,,,NaN,,,,,,,,high,high,,,,,,,false,,,,,false,1102168.9000000954,1102168.5,,1102168,,1101946.46,5,600,,
break_continue,html.Screen,10_37_2,2023-11-29T15:51:16.745Z,,,,,,,,,,,NaN,,,,,,,,high,high,,,,,,,false,,,,,false,1102169.7000000477,1102169.3000001907,,1102169,,1101946.46,5,600,,
sequence,flow.Sequence,10_37,2023-11-29T15:51:16.745Z,,,,,,,,,,,2293.6890001907013,completion,,,,,,,high,high,,,,,,,false,,,,,false,1102170.100000143,1102169.3000001907,1099858.917,1100103.3000001907,1099875.611,1101946.46,5,600,,
trial,html.Screen,10_38_0,2023-11-29T15:51:20.134Z,,,,1,0.0009714874637896,-0.0174815595031679,,0.04,true,hh,3612.4400000954047,response,1.001866590114321,1.0858104713093255,-0.840948849119376,1.080719641270871,1.0718446617323976,-0.9738569075015825,high,high,,ISIC_9848743.JPG,10,ISIC_0663941.JPG,28,26,false,0.11,hh,keypress(i),0,false,1105559.3000001907,1105558.9000000954,1101929.834,1102170.4000000954,1101946.46,1105336.244,5,600,39,
