sender,sender_type,sender_id,timestamp,meta,,age,blockNo,c1,c2,condition,control_tolerance,correct,correctResponse,duration,ended_on,f1,f1_high,f1_low,f2,f2_high,f2_low,feature_level1,feature_level2,gender,img_left,img_reveal,img_right,n_control_images,n_target_images,practice,range_tolerance,response,response_action,selection_duration,staircase,time_commit,time_end,time_render,time_run,time_show,time_switch,total_blocks,total_trials,trialNo,url
informed_consent,html.Screen,0,2024-03-19T19:44:07.917Z,"{""labjs_version"":""20.2.4"",""labjs_build"":{""flavor"":""development"",""commit"":""f5b4a49f956347addd546a832a3327688c2c0fef""},""location"":""https://labjs.felixhenninger.com/api/labjs_preview/index.html"",""userAgent"":""Mozilla/5.0 (Windows NT 10.0; Win64; x64) AppleWebKit/537.36 (KHTML, like Gecko) Chrome/119.0.0.0 Safari/537.36"",""platform"":""Win32"",""language"":""en-US"",""locale"":""en-US"",""timeZone"":""America/Chicago"",""timezoneOffset"":300,""screen_width"":1920,""screen_height"":1080,""scroll_width"":945,""scroll_height"":918,""window_innerWidth"":945,""window_innerHeight"":966,""devicePixelRatio"":1}",,,,,,,,,,29559.605999904634,response,,,,,,,,,,,,,,,,,consent,click button,,,30295.299999952316,30287.599999904633,711.327,956.0999999046326,727.994,30057.361,,,,{}
Demography form,html.Form,1,2024-03-19T19:44:15.878Z,,,19,,,,,,,,8198.139,form submission,,,,,,,,,male,,,,,,,,,,,,38255.700000047684,38255.5,30040.699,30295.599999904633,30057.361,38015.229,,,,
Welcome,html.Screen,2,2024-03-19T19:44:37.670Z,,,,,,,"[""asym"",""col""]",,,,22032.671000095368,response,,,,,,,,,,,,,,,,,continue,click button,,,60048.5,60047.90000009537,37998.716,38255.799999952316,38015.229,59803.656,,,,
demo_instructions,html.Screen,3,2024-03-19T19:45:03.558Z,,,,,,,,,,,26132.143999952314,response,,,,,,,,,,,,,,,,,continue,click button,,,85936.5,85935.79999995232,59787.225,60048.59999990463,59803.656,85696.172,,,,
trial,html.Screen,4_0_0,2024-03-19T19:45:12.264Z,,,,0,-1.152619213055059,-1.2957497771092716,,,true,hh,8945.12799995231,response,1.1990772227054871,1.2,-1.2,1.1224329926844498,1.2,-1.2,high,high,,ISIC_0061915.JPG,,ISIC_3425388.JPG,,25,true,0.15000000000000002,hh,keypress(i),100,false,94641.79999995232,94641.29999995232,85679.486,85936.59999990463,85696.172,94421.519,1,16,1,
sequence,flow.Sequence,4_0,2024-03-19T19:45:12.285Z,,,,,,,,,,,8945.12799995231,completion,,,,,,,high,high,,,,,,,true,,,,,false,94663.40000009537,94641.29999995232,85679.486,85936.59999990463,85696.172,94421.519,1,16,,
trial,html.Screen,4_1_0,2024-03-19T19:45:16.340Z,,,,0,-1.194799101954455,-1.2071632388858642,,,true,hh,4295.580999904632,response,1.2714351764931109,1.2,-1.2,1.0785174776187512,1.2,-1.2,high,high,,ISIC_4347535.JPG,,ISIC_2454898.JPG,,25,true,0.15000000000000002,hh,keypress(i),100,false,98717.59999990463,98717.09999990463,94404.909,94663.5,94421.519,98492.396,1,16,2,
sequence,flow.Sequence,4_1,2024-03-19T19:45:16.340Z,,,,,,,,,,,4295.580999904632,completion,,,,,,,high,high,,,,,,,true,,,,,false,98718.40000009537,98717.09999990463,94404.909,94663.5,94421.519,98492.396,1,16,,
trial,html.Screen,4_2_0,2024-03-19T19:45:21.158Z,,,,0,-1.2974483548597415,-1.2071506593281005,,,true,hh,5043.703999904639,response,1.1727618800748076,1.2,-1.2,1.0636787813411093,1.2,-1.2,high,high,,ISIC_0011007.JPG,,ISIC_9690371.JPG,,25,true,0.15000000000000002,hh,keypress(i),100,false,103536.5,103536.09999990463,98475.692,98718.90000009537,98492.396,103313.887,1,16,3,
sequence,flow.Sequence,4_2,2024-03-19T19:45:21.159Z,,,,,,,,,,,5043.703999904639,completion,,,,,,,high,high,,,,,,,true,,,,,false,103537.20000004768,103536.09999990463,98475.692,98718.79999995232,98492.396,103313.887,1,16,,
trial,html.Screen,4_3_0,2024-03-19T19:45:23.207Z,,,,0,-1.189469386514313,-1.3008582067137853,,,true,hh,2270.6129999999976,response,1.1217390688497193,1.2,-1.2,1.2276600934505035,1.2,-1.2,high,high,,ISIC_0010644.JPG,,ISIC_0026344.JPG,,25,true,0.15000000000000002,hh,keypress(i),100,false,105585.09999990463,105584.5,103297.146,103537.5,103313.887,105365.983,1,16,4,
sequence,flow.Sequence,4_3,2024-03-19T19:45:23.208Z,,,,,,,,,,,2270.6129999999976,completion,,,,,,,high,high,,,,,,,true,,,,,false,105585.70000004768,105584.5,103297.146,103537.40000009537,103313.887,105365.983,1,16,,
trial,html.Screen,4_4_0,2024-03-19T19:45:32.488Z,,,,0,1.1655508270784471,1.1162776063248168,,,true,ll,9499.21700004769,response,-1.1392234684115472,1.2,-1.2,-1.3198277407683998,1.2,-1.2,low,low,,ISIC_5509946.JPG,,ISIC_0071875.JPG,,27,true,0.12,ll,keypress(f),100,false,114865.79999995232,114865.20000004768,105349.175,105586.20000004768,105365.983,114641.736,1,16,5,
sequence,flow.Sequence,4_4,2024-03-19T19:45:32.489Z,,,,,,,,,,,9499.21700004769,completion,,,,,,,low,low,,,,,,,true,,,,,false,114866.70000004768,114865.20000004768,105349.175,105586.09999990463,105365.983,114641.736,1,16,,
trial,html.Screen,4_5_0,2024-03-19T19:45:40.426Z,,,,0,1.1990772227054871,1.1224329926844498,,,true,ll,8161.964000047679,response,-1.2040551955011098,1.2,-1.2,-1.2664651062241792,1.2,-1.2,low,low,,ISIC_3425388.JPG,,ISIC_0068886.JPG,,41,true,0.15000000000000002,ll,keypress(f),100,false,122804.20000004768,122803.70000004768,114625.09,114867,114641.736,122583.046,1,16,6,
sequence,flow.Sequence,4_5,2024-03-19T19:45:40.427Z,,,,,,,,,,,8161.964000047679,completion,,,,,,,low,low,,,,,,,true,,,,,false,122804.79999995232,122803.70000004768,114625.09,114866.90000009537,114641.736,122583.046,1,16,,
trial,html.Screen,4_6_0,2024-03-19T19:45:43.551Z,,,,0,1.0581281450494728,1.133169116569424,,,true,ll,3344.8540000953653,response,-1.194799101954455,1.2,-1.2,-1.2071632388858642,1.2,-1.2,low,low,,ISIC_5490352.JPG,,ISIC_4347535.JPG,,41,true,0.15000000000000002,ll,keypress(f),100,false,125928.40000009537,125927.90000009537,122566.371,122805.20000004768,122583.046,125702.82,1,16,7,
sequence,flow.Sequence,4_6,2024-03-19T19:45:43.551Z,,,,,,,,,,,3344.8540000953653,completion,,,,,,,low,low,,,,,,,true,,,,,false,125929.09999990463,125927.90000009537,122566.371,122805.09999990463,122583.046,125702.82,1,16,,
trial,html.Screen,4_7_0,2024-03-19T19:45:49.712Z,,,,0,1.073296525451802,1.3454282740421717,,,true,ll,6386.58000009536,response,-1.1320017221158485,1.2,-1.2,-1.065213496692536,1.2,-1.2,low,low,,ISIC_5787312.JPG,,ISIC_0030597.JPG,,41,true,0.15000000000000002,ll,keypress(f),100,false,132089.90000009537,132089.40000009537,125686.166,125929.40000009537,125702.82,131875.575,1,16,8,
sequence,flow.Sequence,4_7,2024-03-19T19:45:49.713Z,,,,,,,,,,,6386.58000009536,completion,,,,,,,low,low,,,,,,,true,,,,,false,132090.59999990463,132089.40000009537,125686.166,125929.29999995232,125702.82,131875.575,1,16,,
trial,html.Screen,4_8_0,2024-03-19T19:46:04.440Z,,,,0,1.0143509683988825,-1.0281980567462463,,,true,lh,14941.424999999988,response,-1.0748728054622358,1.2,-1.2,1.2840853987892311,1.2,-1.2,low,high,,ISIC_0062031.JPG,,ISIC_0059219.JPG,,26,true,0.3300000000000002,lh,keypress(e),100,false,146817.5,146817,131842.323,132091,131875.575,146590.276,1,16,9,
sequence,flow.Sequence,4_8,2024-03-19T19:46:04.440Z,,,,,,,,,,,14941.424999999988,completion,,,,,,,low,high,,,,,,,true,,,,,false,146818.09999990463,146817,131842.323,132090.90000009537,131875.575,146590.276,1,16,,
trial,html.Screen,4_9_0,2024-03-19T19:46:10.845Z,,,,0,1.11329866545753,-1.2155631217348757,,,true,lh,6632.624000095355,response,-1.1592423187534993,1.2,-1.2,1.067128884093211,1.2,-1.2,low,high,,ISIC_0032610.JPG,,ISIC_6854940.JPG,,33,true,0.3600000000000002,lh,keypress(e),100,false,153223.20000004768,153222.90000009537,146573.67,146818.5,146590.276,152996.645,1,16,10,
sequence,flow.Sequence,4_9,2024-03-19T19:46:10.846Z,,,,,,,,,,,6632.624000095355,completion,,,,,,,low,high,,,,,,,true,,,,,false,153223.90000009537,153222.90000009537,146573.67,146818.40000009537,146590.276,152996.645,1,16,,
trial,html.Screen,4_10_0,2024-03-19T19:46:24.050Z,,,,0,1.00615481805876,-0.8428903771195875,,,true,lh,13430.755000095378,response,-0.9448560599810628,1.2,-1.2,0.9099421612683488,1.2,-1.2,low,high,,ISIC_0069970.JPG,,ISIC_9684318.JPG,,33,true,0.3600000000000002,lh,keypress(e),100,false,166427.40000009537,166427.40000009537,152980.099,153224.29999995232,152996.645,166209.899,1,16,11,
sequence,flow.Sequence,4_10,2024-03-19T19:46:24.050Z,,,,,,,,,,,13430.755000095378,completion,,,,,,,low,high,,,,,,,true,,,,,false,166427.70000004768,166427.40000009537,152980.099,153224.09999990463,152996.645,166209.899,1,16,,
trial,html.Screen,4_11_0,2024-03-19T19:46:26.385Z,,,,0,1.4727776799485246,-0.8779113138076752,,,true,lh,2552.5010000953625,response,-1.0700930503975157,1.2,-1.2,0.923753102263735,1.2,-1.2,low,high,,ISIC_0033074.JPG,,ISIC_0000022.JPG,,33,true,0.3600000000000002,lh,keypress(e),100,false,168762.70000004768,168762.40000009537,166193.344,166427.70000004768,166209.899,168545.528,1,16,12,
sequence,flow.Sequence,4_11,2024-03-19T19:46:26.386Z,,,,,,,,,,,2552.5010000953625,completion,,,,,,,low,high,,,,,,,true,,,,,false,168763.29999995232,168762.40000009537,166193.344,166427.70000004768,166209.899,168545.528,1,16,,
trial,html.Screen,4_12_0,2024-03-19T19:46:40.751Z,,,,0,-1.1547137855907486,1.0185275168641534,,,true,hl,14582.872000095376,response,1.11329866545753,1.2,-1.2,-1.2155631217348757,1.2,-1.2,high,low,,ISIC_7604870.JPG,,ISIC_0032610.JPG,,29,true,0.3600000000000002,hl,keypress(j),100,false,183128.5,183128.40000009537,168528.897,168763.59999990463,168545.528,182909.888,1,16,13,
sequence,flow.Sequence,4_12,2024-03-19T19:46:40.751Z,,,,,,,,,,,14582.872000095376,completion,,,,,,,high,low,,,,,,,true,,,,,false,183128.70000004768,183128.40000009537,168528.897,168763.59999990463,168545.528,182909.888,1,16,,
trial,html.Screen,4_13_0,2024-03-19T19:46:48.464Z,,,,0,-0.9225524349657857,0.929746784178986,,,true,hl,7931.211999904626,response,1.2838089642212804,1.2,-1.2,-0.8550527900640753,1.2,-1.2,high,low,,ISIC_0011077.JPG,,ISIC_0034187.JPG,,29,true,0.3600000000000002,hl,keypress(j),100,false,190841.29999995232,190841.09999990463,182893.205,183128.79999995232,182909.888,190617.584,1,16,14,
sequence,flow.Sequence,4_13,2024-03-19T19:46:48.464Z,,,,,,,,,,,7931.211999904626,completion,,,,,,,high,low,,,,,,,true,,,,,false,190841.40000009537,190841.09999990463,182893.205,183128.70000004768,182909.888,190617.584,1,16,,
trial,html.Screen,4_14_0,2024-03-19T19:46:58.989Z,,,,0,-0.9670240379618178,1.1806404773220665,,,true,hl,10748.415999999997,response,0.8779374983479176,1.2,-1.2,-0.9745548032823428,1.2,-1.2,high,low,,ISIC_0002288.JPG,,ISIC_2991354.JPG,,29,true,0.3600000000000002,hl,keypress(j),100,false,201366.29999995232,201366,190600.885,190841.5,190617.584,201144.843,1,16,15,
sequence,flow.Sequence,4_14,2024-03-19T19:46:58.989Z,,,,,,,,,,,10748.415999999997,completion,,,,,,,high,low,,,,,,,true,,,,,false,201366.90000009537,201366,190600.885,190841.40000009537,190617.584,201144.843,1,16,,
trial,html.Screen,4_15_0,2024-03-19T19:47:10.449Z,,,,0,-0.9873794329144926,0.9500689037516484,,,true,hl,11681.956999952323,response,0.8644465729542988,1.2,-1.2,-0.8679598285079457,1.2,-1.2,high,low,,ISIC_0013498.JPG,,ISIC_6718969.JPG,,29,true,0.3600000000000002,hl,keypress(j),100,false,212827.20000004768,212826.79999995232,201128.062,201367.29999995232,201144.843,212606.167,1,16,16,
sequence,flow.Sequence,4_15,2024-03-19T19:47:10.450Z,,,,,,,,,,,11681.956999952323,completion,,,,,,,high,low,,,,,,,true,,,,,false,212827.79999995232,212826.79999995232,201128.062,201367.20000004768,201144.843,212606.167,1,16,,
demonstration_loop,flow.Loop,4,2024-03-19T19:47:10.451Z,,,,,,,,,,,127130.62799995231,completion,,,,,,,,,,,,,,,true,,,,,false,212828.20000004768,212826.79999995232,85679.486,85936.59999990463,85696.172,212606.167,1,16,,
practice_instructions,html.Screen,5,2024-03-19T19:47:15.533Z,,,,,,,,,,,5297.432999904646,response,,,,,,,,,,,,,,,,,continue,click button,,,217910.90000009537,217903.59999990463,212589.563,212828.40000009537,212606.167,217661.239,,,,
trial,html.Screen,6_0_0,2024-03-19T19:47:30.244Z,,,,1,-1.2232482867978696,-1.2451219760556858,,,true,hh,14945.560999952315,response,1.1168199061753437,1.2,-1.2,1.212287319329914,1.2,-1.2,high,high,,ISIC_0030889.JPG,,ISIC_5919355.JPG,,25,true,0.15000000000000002,hh,keypress(i),0,false,232621.40000009537,232606.79999995232,217644.792,217911,217661.239,232375.934,1,40,1,
sequence,flow.Sequence,6_0,2024-03-19T19:47:30.244Z,,,,,,,,,,,14945.560999952315,completion,,,,,,,high,high,,,,,,,true,,,,,false,232621.59999990463,232606.79999995232,217644.792,217911,217661.239,232375.934,1,40,,
trial,html.Screen,6_1_0,2024-03-19T19:47:37.664Z,,,,1,-1.3034518282811869,-1.0897657776277234,,,true,hh,7665.466000095359,response,1.1168199061753437,1.2,-1.2,1.212287319329914,1.2,-1.2,high,high,,ISIC_0071988.JPG,,ISIC_5919355.JPG,,25,true,0.15000000000000002,hh,keypress(i),0,false,240041.70000004768,240041.40000009537,232359.233,232621.70000004768,232375.934,239800.007,1,40,2,
sequence,flow.Sequence,6_1,2024-03-19T19:47:37.665Z,,,,,,,,,,,7665.466000095359,completion,,,,,,,high,high,,,,,,,true,,,,,false,240042.29999995232,240041.40000009537,232359.233,232621.70000004768,232375.934,239800.007,1,40,,
trial,html.Screen,6_2_0,2024-03-19T19:47:42.223Z,,,,1,-1.2055236989581275,-1.1960893075698802,,,true,hh,4800.292999952304,response,1.073296525451802,1.2,-1.2,1.3454282740421717,1.2,-1.2,high,high,,ISIC_0072393.JPG,,ISIC_5787312.JPG,,25,true,0.15000000000000002,hh,keypress(i),0,false,244600.5,244600.29999995232,239783.405,240042.5,239800.007,244371.616,1,40,3,
sequence,flow.Sequence,6_2,2024-03-19T19:47:42.223Z,,,,,,,,,,,4800.292999952304,completion,,,,,,,high,high,,,,,,,true,,,,,false,244600.59999990463,244600.29999995232,239783.405,240042.5,239800.007,244371.616,1,40,,
trial,html.Screen,6_3_0,2024-03-19T19:47:50.224Z,,,,1,-1.3132505134129506,-1.0949928516457437,,,true,hh,8229.483999904623,response,1.2200968917423711,1.2,-1.2,1.3183466064109373,1.2,-1.2,high,high,,ISIC_0066935.JPG,,ISIC_3624318.JPG,,25,true,0.15000000000000002,hh,keypress(i),0,false,252601.59999990463,252601.09999990463,244337.914,244600.70000004768,244371.616,252362.52,1,40,4,
sequence,flow.Sequence,6_3,2024-03-19T19:47:50.225Z,,,,,,,,,,,8229.483999904623,completion,,,,,,,high,high,,,,,,,true,,,,,false,252602.09999990463,252601.09999990463,244337.914,244600.70000004768,244371.616,252362.52,1,40,,
trial,html.Screen,6_4_0,2024-03-19T19:47:55.568Z,,,,1,-1.1474466950560966,-1.173734476257662,,,true,hh,5582.9800000000105,response,1.0959058628476686,1.2,-1.2,1.2921331918483707,1.2,-1.2,high,high,,ISIC_5216586.JPG,,ISIC_5920470.JPG,,25,true,0.15000000000000002,hh,keypress(i),0,false,257945.79999995232,257945.5,252345.983,252602.40000009537,252362.52,257701.251,1,40,5,
sequence,flow.Sequence,6_4,2024-03-19T19:47:55.569Z,,,,,,,,,,,5582.9800000000105,completion,,,,,,,high,high,,,,,,,true,,,,,false,257946.29999995232,257945.5,252345.983,252602.29999995232,252362.52,257701.251,1,40,,
trial,html.Screen,6_5_0,2024-03-19T19:48:04.495Z,,,,1,-1.3034518282811869,-1.0897657776277234,,,true,hh,9170.74900000001,response,1.0959058628476686,1.2,-1.2,1.2921331918483707,1.2,-1.2,high,high,,ISIC_0071988.JPG,,ISIC_5920470.JPG,,25,true,0.15000000000000002,hh,keypress(i),0,false,266872.2000000477,266872,257684.644,257946.59999990463,257701.251,266643.426,1,40,6,
sequence,flow.Sequence,6_5,2024-03-19T19:48:04.495Z,,,,,,,,,,,9170.74900000001,completion,,,,,,,high,high,,,,,,,true,,,,,false,266872.40000009537,266872,257684.644,257946.5,257701.251,266643.426,1,40,,
trial,html.Screen,6_6_0,2024-03-19T19:48:10.255Z,,,,1,0.8779374983479176,-0.9745548032823428,,,false,lh,5988.673999904655,response,-1.2704198237183777,1.2,-1.2,1.138121072015301,1.2,-1.2,low,high,,ISIC_2991354.JPG,,ISIC_0501843.JPG,,26,true,0.3300000000000002,hh,keypress(i),0,false,272632.2000000477,272632.09999990463,266610.088,266872.5,266643.426,272399.467,1,40,7,
sequence,flow.Sequence,6_6,2024-03-19T19:48:10.255Z,,,,,,,,,,,5988.673999904655,completion,,,,,,,low,high,,,,,,,true,,,,,false,272632.2999999523,272632.09999990463,266610.088,266872.5,266643.426,272399.467,1,40,,
trial,html.Screen,6_7_0,2024-03-19T19:48:14.272Z,,,,1,-1.2055236989581275,-1.1960893075698802,,,true,hh,4249.933000095363,response,1.1569583426015195,1.2,-1.2,1.02258614327008,1.2,-1.2,high,high,,ISIC_0072393.JPG,,ISIC_5705973.JPG,,157,true,0.3600000000000002,hh,keypress(i),0,false,276649.7000000477,276649.40000009537,272382.687,272632.40000009537,272399.467,276419.87,1,40,8,
sequence,flow.Sequence,6_7,2024-03-19T19:48:14.273Z,,,,,,,,,,,4249.933000095363,completion,,,,,,,high,high,,,,,,,true,,,,,false,276650.2000000477,276649.40000009537,272382.687,272632.2999999523,272399.467,276419.87,1,40,,
trial,html.Screen,6_8_0,2024-03-19T19:48:22.160Z,,,,1,-1.0748728054622358,1.2840853987892311,,,true,hl,8117.729999904637,response,1.1890109863264902,1.2,-1.2,-0.8867825318561365,1.2,-1.2,high,low,,ISIC_0059219.JPG,,ISIC_0072576.JPG,,29,true,0.3600000000000002,hl,keypress(j),0,false,284537.90000009537,284537.59999990463,276403.238,276650.5,276419.87,284294.431,1,40,9,
sequence,flow.Sequence,6_8,2024-03-19T19:48:22.161Z,,,,,,,,,,,8117.729999904637,completion,,,,,,,high,low,,,,,,,true,,,,,false,284538.2999999523,284537.59999990463,276403.238,276650.40000009537,276419.87,284294.431,1,40,,
trial,html.Screen,6_9_0,2024-03-19T19:48:27.519Z,,,,1,1.053007132776416,1.341217082060068,,,true,ll,5601.868999952334,response,-1.078286816527963,1.2,-1.2,-1.1255116193013075,1.2,-1.2,low,low,,ISIC_0024208.JPG,,ISIC_0066213.JPG,,211,true,0.3300000000000002,ll,keypress(f),0,false,289896.40000009537,289896.2999999523,284277.729,284538.5,284294.431,289666.449,1,40,10,
sequence,flow.Sequence,6_9,2024-03-19T19:48:27.519Z,,,,,,,,,,,5601.868999952334,completion,,,,,,,low,low,,,,,,,true,,,,,false,289896.59999990463,289896.2999999523,284277.729,284538.5,284294.431,289666.449,1,40,,
trial,html.Screen,6_10_0,2024-03-19T19:48:33.584Z,,,,1,0.8494721812820843,-1.3435429139974266,,,true,lh,6295.050999999978,response,-1.296989496412063,1.2,-1.2,1.1425074323097002,1.2,-1.2,low,high,,ISIC_0033585.JPG,,ISIC_6356803.JPG,,26,true,0.3300000000000002,lh,keypress(e),0,false,295961.7999999523,295961.5,289633.236,289896.7000000477,289666.449,295722.538,1,40,11,
sequence,flow.Sequence,6_10,2024-03-19T19:48:33.585Z,,,,,,,,,,,6295.050999999978,completion,,,,,,,low,high,,,,,,,true,,,,,false,295962.2999999523,295961.5,289633.236,289896.7000000477,289666.449,295722.538,1,40,,
trial,html.Screen,6_11_0,2024-03-19T19:48:43.232Z,,,,1,-0.8787496315223856,1.3680901203013998,,,true,hl,9886.662000047683,response,1.0003671514840182,1.2,-1.2,-0.8992716557663581,1.2,-1.2,high,low,,ISIC_0023811.JPG,,ISIC_0061749.JPG,,29,true,0.3600000000000002,hl,keypress(j),0,false,305609.5,305609.2000000477,295705.869,295962.59999990463,295722.538,305365.539,1,40,12,
sequence,flow.Sequence,6_11,2024-03-19T19:48:43.233Z,,,,,,,,,,,9886.662000047683,completion,,,,,,,high,low,,,,,,,true,,,,,false,305610,305609.2000000477,295705.869,295962.5,295722.538,305365.539,1,40,,
trial,html.Screen,6_12_0,2024-03-19T19:48:49.280Z,,,,1,-0.8787496315223856,1.3680901203013998,,,true,hl,6291.861000095378,response,0.9445114955578736,1.2,-1.2,-1.0054210059625863,1.2,-1.2,high,low,,ISIC_0023811.JPG,,ISIC_0033807.JPG,,29,true,0.3600000000000002,hl,keypress(j),0,false,311657.7000000477,311657.40000009537,305348.716,305610.40000009537,305365.539,311421.474,1,40,13,
sequence,flow.Sequence,6_12,2024-03-19T19:48:49.281Z,,,,,,,,,,,6291.861000095378,completion,,,,,,,high,low,,,,,,,true,,,,,false,311658.2000000477,311657.40000009537,305348.716,305610.2999999523,305365.539,311421.474,1,40,,
trial,html.Screen,6_13_0,2024-03-19T19:48:54.944Z,,,,1,0.8494721812820843,-1.3435429139974266,,,false,lh,5899.825999952329,response,-1.2043484010107477,1.2,-1.2,1.2178113180138233,1.2,-1.2,low,high,,ISIC_0033585.JPG,,ISIC_0011917.JPG,,26,true,0.3300000000000002,ll,keypress(f),0,false,317321.7000000477,317321.2999999523,311404.93,311658.5,311421.474,317077.179,1,40,14,
sequence,flow.Sequence,6_13,2024-03-19T19:48:54.945Z,,,,,,,,,,,5899.825999952329,completion,,,,,,,low,high,,,,,,,true,,,,,false,317322.09999990463,317321.2999999523,311404.93,311658.2999999523,311421.474,317077.179,1,40,,
trial,html.Screen,6_14_0,2024-03-19T19:48:59.168Z,,,,1,1.1638334638021437,1.0846635401396965,,,true,ll,4468.02100004768,response,-1.1894733304494307,1.2,-1.2,-1.1169761866204877,1.2,-1.2,low,low,,ISIC_4718313.JPG,,ISIC_0033813.JPG,,249,true,0.3600000000000002,ll,keypress(f),0,false,321545.59999990463,321545.2000000477,317060.377,317322.2999999523,317077.179,321314.68,1,40,15,
sequence,flow.Sequence,6_14,2024-03-19T19:48:59.169Z,,,,,,,,,,,4468.02100004768,completion,,,,,,,low,low,,,,,,,true,,,,,false,321546.09999990463,321545.2000000477,317060.377,317322.2999999523,317077.179,321314.68,1,40,,
trial,html.Screen,6_15_0,2024-03-19T19:49:02.672Z,,,,1,-0.8787496315223856,1.3680901203013998,,,false,hl,3734.7200000953744,response,0.849847885203758,1.2,-1.2,-0.973447384095442,1.2,-1.2,high,low,,ISIC_0023811.JPG,,ISIC_9612228.JPG,,29,true,0.3600000000000002,ll,keypress(f),0,false,325049.7999999523,325049.40000009537,321297.968,321546.2999999523,321314.68,324818.392,1,40,16,
sequence,flow.Sequence,6_15,2024-03-19T19:49:02.673Z,,,,,,,,,,,3734.7200000953744,completion,,,,,,,high,low,,,,,,,true,,,,,false,325050.2999999523,325049.40000009537,321297.968,321546.2000000477,321314.68,324818.392,1,40,,
trial,html.Screen,6_16_0,2024-03-19T19:49:07.200Z,,,,1,-1.1227373144244253,-1.1886610799377713,,,true,hh,4758.608000000007,response,1.204229955025689,1.2,-1.2,1.0874249761617445,1.2,-1.2,high,high,,ISIC_0059506.JPG,,ISIC_0056930.JPG,,127,true,0.3300000000000002,hh,keypress(i),0,false,329577.2999999523,329577,324801.665,325050.5,324818.392,329339.354,1,40,17,
sequence,flow.Sequence,6_16,2024-03-19T19:49:07.200Z,,,,,,,,,,,4758.608000000007,completion,,,,,,,high,high,,,,,,,true,,,,,false,329577.7000000477,329577,324801.665,325050.40000009537,324818.392,329339.354,1,40,,
trial,html.Screen,6_17_0,2024-03-19T19:49:12.448Z,,,,1,-1.0822170028935367,1.1654796154432183,,,false,hl,5485.945999952324,response,1.1224745971429997,1.2,-1.2,-0.8423270217438888,1.2,-1.2,high,low,,ISIC_7288818.JPG,,ISIC_0057032.JPG,,29,true,0.3600000000000002,hh,keypress(i),0,false,334825.59999990463,334825.2999999523,329322.775,329577.7999999523,329339.354,334594.734,1,40,18,
sequence,flow.Sequence,6_17,2024-03-19T19:49:12.449Z,,,,,,,,,,,5485.945999952324,completion,,,,,,,high,low,,,,,,,true,,,,,false,334826.09999990463,334825.2999999523,329322.775,329577.7999999523,329339.354,334594.734,1,40,,
trial,html.Screen,6_18_0,2024-03-19T19:49:20.640Z,,,,1,1.1305948371148624,1.2802709447034604,,,true,ll,8422.766000000003,response,-1.02958055269592,1.2,-1.2,-1.159278377691306,1.2,-1.2,low,low,,ISIC_5648111.JPG,,ISIC_0027190.JPG,,211,true,0.3300000000000002,ll,keypress(f),0,false,343017.90000009537,343017.5,334578.099,334826.2999999523,334594.734,342786.187,1,40,19,
sequence,flow.Sequence,6_18,2024-03-19T19:49:20.641Z,,,,,,,,,,,8422.766000000003,completion,,,,,,,low,low,,,,,,,true,,,,,false,343018.5,343017.5,334578.099,334826.2000000477,334594.734,342786.187,1,40,,
trial,html.Screen,6_19_0,2024-03-19T19:49:23.648Z,,,,1,1.1604734171556077,1.0789312625280616,,,true,ll,3239.0130000477075,response,-1.1407514641016443,1.2,-1.2,-1.280017651202714,1.2,-1.2,low,low,,ISIC_3950753.JPG,,ISIC_0072507.JPG,,41,true,0.15000000000000002,ll,keypress(f),0,false,346025.59999990463,346025.2000000477,342769.546,343018.7000000477,342786.187,345789.178,1,40,20,
sequence,flow.Sequence,6_19,2024-03-19T19:49:23.649Z,,,,,,,,,,,3239.0130000477075,completion,,,,,,,low,low,,,,,,,true,,,,,false,346026.2000000477,346025.2000000477,342769.546,343018.59999990463,342786.187,345789.178,1,40,,
trial,html.Screen,6_20_0,2024-03-19T19:49:29.184Z,,,,1,1.1217390688497193,1.2276600934505035,,,true,ll,5772.022000047669,response,-1.3034518282811869,1.2,-1.2,-1.0897657776277234,1.2,-1.2,low,low,,ISIC_0026344.JPG,,ISIC_0071988.JPG,,41,true,0.15000000000000002,ll,keypress(f),0,false,351561.59999990463,351561.2000000477,345772.561,346026.40000009537,345789.178,351327.95,1,40,21,
sequence,flow.Sequence,6_20,2024-03-19T19:49:29.185Z,,,,,,,,,,,5772.022000047669,completion,,,,,,,low,low,,,,,,,true,,,,,false,351562.09999990463,351561.2000000477,345772.561,346026.2999999523,345789.178,351327.95,1,40,,
trial,html.Screen,6_21_0,2024-03-19T19:49:37.248Z,,,,1,1.411763789273233,-1.0057734478347988,,,true,lh,8297.450000095356,response,-0.9448560599810628,1.2,-1.2,0.9099421612683488,1.2,-1.2,low,high,,ISIC_0027235.JPG,,ISIC_9684318.JPG,,26,true,0.3300000000000002,lh,keypress(e),0,false,359625.7000000477,359625.40000009537,351311.218,351562.2999999523,351327.95,359386.036,1,40,22,
sequence,flow.Sequence,6_21,2024-03-19T19:49:37.249Z,,,,,,,,,,,8297.450000095356,completion,,,,,,,low,high,,,,,,,true,,,,,false,359626.2999999523,359625.40000009537,351311.218,351562.2000000477,351327.95,359386.036,1,40,,
trial,html.Screen,6_22_0,2024-03-19T19:49:42.256Z,,,,1,-1.2974483548597415,-1.2071506593281005,,,true,hh,5246.864000095346,response,1.3366248363522348,1.2,-1.2,0.9006169139141662,1.2,-1.2,high,high,,ISIC_0011007.JPG,,ISIC_0030697.JPG,,157,true,0.3600000000000002,hh,keypress(i),0,false,364633.2999999523,364632.90000009537,359369.464,359626.59999990463,359386.036,364391.011,1,40,23,
sequence,flow.Sequence,6_22,2024-03-19T19:49:42.256Z,,,,,,,,,,,5246.864000095346,completion,,,,,,,high,high,,,,,,,true,,,,,false,364633.7000000477,364632.90000009537,359369.464,359626.5,359386.036,364391.011,1,40,,
trial,html.Screen,6_23_0,2024-03-19T19:49:45.360Z,,,,1,1.1217390688497193,1.2276600934505035,,,true,ll,3346.189000047685,response,-1.2435042401134029,1.2,-1.2,-1.2939710463315144,1.2,-1.2,low,low,,ISIC_0026344.JPG,,ISIC_0056119.JPG,,27,true,0.12,ll,keypress(f),0,false,367737.59999990463,367737.2000000477,364374.489,364634,364391.011,367494.159,1,40,24,
sequence,flow.Sequence,6_23,2024-03-19T19:49:45.361Z,,,,,,,,,,,3346.189000047685,completion,,,,,,,low,low,,,,,,,true,,,,,false,367738.2999999523,367737.2000000477,364374.489,364633.90000009537,364391.011,367494.159,1,40,,
trial,html.Screen,6_24_0,2024-03-19T19:49:52.305Z,,,,1,0.8494721812820843,-1.3435429139974266,,,true,lh,7187.341000000015,response,-1.2609895831255231,1.2,-1.2,1.0687377724194886,1.2,-1.2,low,high,,ISIC_0033585.JPG,,ISIC_1367610.JPG,,26,true,0.3300000000000002,lh,keypress(e),0,false,374681.7999999523,374681.5,367477.473,367738.5,367494.159,374451.066,1,40,25,
sequence,flow.Sequence,6_24,2024-03-19T19:49:52.305Z,,,,,,,,,,,7187.341000000015,completion,,,,,,,low,high,,,,,,,true,,,,,false,374682.2999999523,374681.5,367477.473,367738.5,367494.159,374451.066,1,40,,
trial,html.Screen,6_25_0,2024-03-19T19:49:59.614Z,,,,1,-1.155796217969438,1.1646564121743912,,,true,hl,7540.533999904641,response,1.00615481805876,1.2,-1.2,-0.8428903771195875,1.2,-1.2,high,low,,ISIC_2685523.JPG,,ISIC_0069970.JPG,,29,true,0.3600000000000002,hl,keypress(j),0,false,381991.7000000477,381991.59999990463,374434.524,374682.59999990463,374451.066,381758.475,1,40,26,
sequence,flow.Sequence,6_25,2024-03-19T19:49:59.614Z,,,,,,,,,,,7540.533999904641,completion,,,,,,,high,low,,,,,,,true,,,,,false,381991.7999999523,381991.59999990463,374434.524,374682.5,374451.066,381758.475,1,40,,
trial,html.Screen,6_26_0,2024-03-19T19:50:05.313Z,,,,1,1.1655508270784471,1.1162776063248168,,,true,ll,5931.025000000023,response,-0.9866439901618108,1.2,-1.2,-1.1327283202367815,1.2,-1.2,low,low,,ISIC_5509946.JPG,,ISIC_0072953.JPG,,211,true,0.3300000000000002,ll,keypress(f),0,false,387689.90000009537,387689.5,381741.828,381991.7999999523,381758.475,387447.361,1,40,27,
sequence,flow.Sequence,6_26,2024-03-19T19:50:05.313Z,,,,,,,,,,,5931.025000000023,completion,,,,,,,low,low,,,,,,,true,,,,,false,387690.40000009537,387689.5,381741.828,381991.7999999523,381758.475,387447.361,1,40,,
trial,html.Screen,6_27_0,2024-03-19T19:50:14.384Z,,,,1,1.073296525451802,1.3454282740421717,,,true,ll,9313.938999952341,response,-1.250220052739973,1.2,-1.2,-1.2967258992731714,1.2,-1.2,low,low,,ISIC_5787312.JPG,,ISIC_0031368.JPG,,41,true,0.15000000000000002,ll,keypress(f),0,false,396761.7000000477,396761.2999999523,387430.794,387690.59999990463,387447.361,396523.088,1,40,28,
sequence,flow.Sequence,6_27,2024-03-19T19:50:14.385Z,,,,,,,,,,,9313.938999952341,completion,,,,,,,low,low,,,,,,,true,,,,,false,396762.2000000477,396761.2999999523,387430.794,387690.59999990463,387447.361,396523.088,1,40,,
trial,html.Screen,6_28_0,2024-03-19T19:50:16.721Z,,,,1,0.8644465729542988,-0.8679598285079457,,,true,lh,2574.412000000011,response,-1.052305774554686,1.2,-1.2,1.3940181224717798,1.2,-1.2,low,high,,ISIC_6718969.JPG,,ISIC_4175400.JPG,,26,true,0.3300000000000002,lh,keypress(e),0,false,399097.7999999523,399097.5,396506.45,396762.40000009537,396523.088,398858.753,1,40,29,
sequence,flow.Sequence,6_28,2024-03-19T19:50:16.721Z,,,,,,,,,,,2574.412000000011,completion,,,,,,,low,high,,,,,,,true,,,,,false,399098.2999999523,399097.5,396506.45,396762.2999999523,396523.088,398858.753,1,40,,
trial,html.Screen,6_29_0,2024-03-19T19:50:18.256Z,,,,1,-1.2609895831255231,1.0687377724194886,,,true,hl,1774.3469999046065,response,1.2615315960773072,1.2,-1.2,-1.194084675079932,1.2,-1.2,high,low,,ISIC_1367610.JPG,,ISIC_0010044.JPG,,29,true,0.3600000000000002,hl,keypress(j),0,false,400633.5,400633.09999990463,398842.149,399098.59999990463,398858.753,400393.605,1,40,30,
sequence,flow.Sequence,6_29,2024-03-19T19:50:18.257Z,,,,,,,,,,,1774.3469999046065,completion,,,,,,,high,low,,,,,,,true,,,,,false,400633.90000009537,400633.09999990463,398842.149,399098.40000009537,398858.753,400393.605,1,40,,
trial,html.Screen,6_30_0,2024-03-19T19:50:20.463Z,,,,1,1.1655508270784471,1.1162776063248168,,,true,ll,2446.494999904651,response,-0.9850572151440374,1.2,-1.2,-1.028720908260899,1.2,-1.2,low,low,,ISIC_5509946.JPG,,ISIC_0068993.JPG,,211,true,0.3300000000000002,ll,keypress(f),0,false,402840.09999990463,402840.09999990463,400377.036,400634.2000000477,400393.605,402595.848,1,40,31,
sequence,flow.Sequence,6_30,2024-03-19T19:50:20.463Z,,,,,,,,,,,2446.494999904651,completion,,,,,,,low,low,,,,,,,true,,,,,false,402840.2999999523,402840.09999990463,400377.036,400634.09999990463,400393.605,402595.848,1,40,,
trial,html.Screen,6_31_0,2024-03-19T19:50:22.032Z,,,,1,-1.0345332538240786,1.4719115945084815,,,true,hl,1813.2519999046344,response,1.2838089642212804,1.2,-1.2,-0.8550527900640753,1.2,-1.2,high,low,,ISIC_0192490.JPG,,ISIC_0034187.JPG,,29,true,0.3600000000000002,hl,keypress(j),0,false,404409.40000009537,404409.09999990463,402579.37,402840.40000009537,402595.848,404181.343,1,40,32,
sequence,flow.Sequence,6_31,2024-03-19T19:50:22.033Z,,,,,,,,,,,1813.2519999046344,completion,,,,,,,high,low,,,,,,,true,,,,,false,404409.90000009537,404409.09999990463,402579.37,402840.2999999523,402595.848,404181.343,1,40,,
trial,html.Screen,6_32_0,2024-03-19T19:50:26.704Z,,,,1,1.11329866545753,-1.2155631217348757,,,true,lh,4899.756999904639,response,-0.8787496315223856,1.2,-1.2,1.3680901203013998,1.2,-1.2,low,high,,ISIC_0032610.JPG,,ISIC_0023811.JPG,,26,true,0.3300000000000002,lh,keypress(e),0,false,409081.5,409081.09999990463,404147.648,404410.09999990463,404181.343,408852.121,1,40,33,
sequence,flow.Sequence,6_32,2024-03-19T19:50:26.705Z,,,,,,,,,,,4899.756999904639,completion,,,,,,,low,high,,,,,,,true,,,,,false,409082,409081.09999990463,404147.648,404410,404181.343,408852.121,1,40,,
trial,html.Screen,6_33_0,2024-03-19T19:50:29.919Z,,,,1,1.11329866545753,-1.2155631217348757,,,true,lh,3443.8790000000154,response,-1.2609895831255231,1.2,-1.2,1.0687377724194886,1.2,-1.2,low,high,,ISIC_0032610.JPG,,ISIC_1367610.JPG,,33,true,0.3600000000000002,lh,keypress(e),0,false,412296.09999990463,412296,408835.483,409082.2000000477,408852.121,412055.283,1,40,34,
sequence,flow.Sequence,6_33,2024-03-19T19:50:29.919Z,,,,,,,,,,,3443.8790000000154,completion,,,,,,,low,high,,,,,,,true,,,,,false,412296.2000000477,412296,408835.483,409082.2000000477,408852.121,412055.283,1,40,,
trial,html.Screen,6_34_0,2024-03-19T19:50:33.263Z,,,,1,-1.0345332538240786,1.4719115945084815,,,true,hl,3584.717000000004,response,1.4727776799485246,1.2,-1.2,-0.8779113138076752,1.2,-1.2,high,low,,ISIC_0192490.JPG,,ISIC_0033074.JPG,,29,true,0.3600000000000002,hl,keypress(j),0,false,415640.09999990463,415640,412038.834,412296.2999999523,412055.283,415408.901,1,40,35,
sequence,flow.Sequence,6_34,2024-03-19T19:50:33.263Z,,,,,,,,,,,3584.717000000004,completion,,,,,,,high,low,,,,,,,true,,,,,false,415640.2999999523,415640,412038.834,412296.2999999523,412055.283,415408.901,1,40,,
trial,html.Screen,6_35_0,2024-03-19T19:50:36.896Z,,,,1,1.3471772753257971,1.055978100098093,,,true,ll,3864.19899990462,response,-1.396442510103573,1.2,-1.2,-1.1384820185296218,1.2,-1.2,low,low,,ISIC_2077116.JPG,,ISIC_0001118.JPG,,211,true,0.3300000000000002,ll,keypress(f),0,false,419273.40000009537,419273.09999990463,415392.149,415640.2999999523,415408.901,419028.982,1,40,36,
sequence,flow.Sequence,6_35,2024-03-19T19:50:36.897Z,,,,,,,,,,,3864.19899990462,completion,,,,,,,low,low,,,,,,,true,,,,,false,419273.90000009537,419273.09999990463,415392.149,415640.2999999523,415408.901,419028.982,1,40,,
trial,html.Screen,6_36_0,2024-03-19T19:50:39.295Z,,,,1,-1.2435042401134029,-1.2939710463315144,,,true,hh,2642.9180000953493,response,1.1642596483638106,1.2,-1.2,1.091507924157762,1.2,-1.2,high,high,,ISIC_0056119.JPG,,ISIC_0765584.JPG,,25,true,0.15000000000000002,hh,keypress(i),0,false,421671.90000009537,421671.90000009537,419012.416,419274.09999990463,419028.982,421431.29,1,40,37,
sequence,flow.Sequence,6_36,2024-03-19T19:50:39.295Z,,,,,,,,,,,2642.9180000953493,completion,,,,,,,high,high,,,,,,,true,,,,,false,421672.09999990463,421671.90000009537,419012.416,419274.09999990463,419028.982,421431.29,1,40,,
trial,html.Screen,6_37_0,2024-03-19T19:50:41.137Z,,,,1,-1.1547137855907486,1.0185275168641534,,,true,hl,2082.3099999046535,response,0.9385447468573198,1.2,-1.2,-1.2289860846064424,1.2,-1.2,high,low,,ISIC_7604870.JPG,,ISIC_0032780.JPG,,29,true,0.3600000000000002,hl,keypress(j),0,false,423513.90000009537,423513.59999990463,421414.835,421672.09999990463,421431.29,423283.347,1,40,38,
sequence,flow.Sequence,6_37,2024-03-19T19:50:41.137Z,,,,,,,,,,,2082.3099999046535,completion,,,,,,,high,low,,,,,,,true,,,,,false,423514.2999999523,423513.59999990463,421414.835,421672.09999990463,421431.29,423283.347,1,40,,
trial,html.Screen,6_38_0,2024-03-19T19:50:42.191Z,,,,1,1.064425982109969,-0.958564243697126,,,true,lh,1284.5530000953586,response,-1.2043484010107477,1.2,-1.2,1.2178113180138233,1.2,-1.2,low,high,,ISIC_3203344.JPG,,ISIC_0011917.JPG,,26,true,0.3300000000000002,lh,keypress(e),0,false,424568,424567.90000009537,423266.601,423514.5,423283.347,424350.907,1,40,39,
sequence,flow.Sequence,6_38,2024-03-19T19:50:42.191Z,,,,,,,,,,,1284.5530000953586,completion,,,,,,,low,high,,,,,,,true,,,,,false,424568.09999990463,424567.90000009537,423266.601,423514.5,423283.347,424350.907,1,40,,
trial,html.Screen,6_39_0,2024-03-19T19:50:47.312Z,,,,1,1.1235224875125256,-0.8641223012137988,,,true,lh,5338.192999904626,response,-1.055319394932912,1.2,-1.2,1.409116680310466,1.2,-1.2,low,high,,ISIC_0033901.JPG,,ISIC_6398669.JPG,,33,true,0.3600000000000002,lh,keypress(e),0,false,429689.40000009537,429689.09999990463,424334.207,424568.2000000477,424350.907,429455.97,1,40,40,
sequence,flow.Sequence,6_39,2024-03-19T19:50:47.313Z,,,,,,,,,,,5338.192999904626,completion,,,,,,,low,high,,,,,,,true,,,,,false,429689.7999999523,429689.09999990463,424334.207,424568.2000000477,424350.907,429455.97,1,40,,
practice_loop,flow.Loop,6,2024-03-19T19:50:47.313Z,,,,,,,,,,,212027.86099990463,completion,,,,,,,,,,,,,,,true,,,,,false,429690.09999990463,429689.09999990463,217644.792,217910.90000009537,217661.239,429455.97,1,40,,
stair_instructions,html.Screen,7,2024-03-19T19:50:49.399Z,,,,,,,,,,,2319.6299999046605,response,,,,,,,,,,,,,,,,,continue,click button,,,431776.09999990463,431775.59999990463,429439.228,429690.2999999523,429455.97,431541.616,,,,
trial,html.Screen,8_0_0,2024-03-19T19:50:51.967Z,,,,2,-0.0057914759495055,0.018500200317654,,0.04,false,lh,2802.4839999046526,response,-0.9566823908868002,1.2,-1.2,0.9602125665128364,1.2,-1.2,low,high,,ISIC_0058723.JPG,,ISIC_0056784.JPG,28,33,false,0.3600000000000002,ll,keypress(f),0,true,434344.2000000477,434344.09999990463,431524.866,431776.2000000477,431541.616,434127.348,1,40,1,
sequence,flow.Sequence,8_0,2024-03-19T19:50:51.967Z,,,,,,,,,,,2802.4839999046526,completion,,,,,,,low,high,,,,,,,false,,,,,true,434344.2999999523,434344.09999990463,431524.866,431776.2000000477,431541.616,434127.348,1,40,,
trial,html.Screen,8_1_0,2024-03-19T19:50:56.977Z,,,,2,-0.0060918352854008,0.029032683404407,,0.04,true,hh,5225.951999952318,response,1.0066944863194518,1.15,-1.15,1.2755557894401093,1.2,-1.15,high,high,,ISIC_8436194.JPG,,ISIC_3885041.JPG,28,29,false,0.15000000000000002,hh,keypress(i),0,true,439353.7000000477,439353.2999999523,434110.64,434344.40000009537,434127.348,439115.618,1,40,2,
sequence,flow.Sequence,8_1,2024-03-19T19:50:56.977Z,,,,,,,,,,,5225.951999952318,completion,,,,,,,high,high,,,,,,,false,,,,,true,439354.2000000477,439353.2999999523,434110.64,434344.40000009537,434127.348,439115.618,1,40,,
trial,html.Screen,8_2_0,2024-03-19T19:51:00.033Z,,,,2,0.0189295602385628,0.0128812415435153,,0.04,false,hl,3294.582000047667,response,1.225025174430573,1.15,-1.15,-0.8422679054456499,1.15,-1.15,high,low,,ISIC_0010372.JPG,,ISIC_7503950.JPG,28,27,false,0.31000000000000016,hh,keypress(i),0,true,442410.2999999523,442410.2000000477,439099.117,439354.40000009537,439115.618,442168.669,1,40,3,
sequence,flow.Sequence,8_2,2024-03-19T19:51:00.033Z,,,,,,,,,,,3294.582000047667,completion,,,,,,,high,low,,,,,,,false,,,,,true,442410.5,442410.2000000477,439099.117,439354.40000009537,439115.618,442168.669,1,40,,
trial,html.Screen,8_3_0,2024-03-19T19:51:07.055Z,,,,2,0.0327772618698018,-0.0056908372048728,,0.04,false,hh,7263.231000095373,response,1.1655508270784471,1.150290481935341,-1.15,1.1162776063248168,1.15,-1.15,high,high,,ISIC_7897925.JPG,,ISIC_5509946.JPG,28,26,false,0.14,lh,keypress(e),0,true,449431.90000009537,449431.90000009537,442152.176,442410.5,442168.669,449192.341,1,40,4,
sequence,flow.Sequence,8_3,2024-03-19T19:51:07.055Z,,,,,,,,,,,7263.231000095373,completion,,,,,,,high,high,,,,,,,false,,,,,true,449432.09999990463,449431.90000009537,442152.176,442410.5,442168.669,449192.341,1,40,,
trial,html.Screen,8_4_0,2024-03-19T19:51:13.568Z,,,,2,0.0127320821962457,-0.0315308940184827,,0.04,true,hh,6752.458999952301,response,1.1990772227054871,1.150290481935341,-1.15,1.1224329926844498,1.1459166978824629,-1.15,high,high,,ISIC_8156101.JPG,,ISIC_3425388.JPG,28,26,false,0.14,hh,keypress(i),0,true,455945,455944.7999999523,449175.797,449432.09999990463,449192.341,455715.541,1,40,5,
sequence,flow.Sequence,8_4,2024-03-19T19:51:13.568Z,,,,,,,,,,,6752.458999952301,completion,,,,,,,high,high,,,,,,,false,,,,,true,455945.5,455944.7999999523,449175.797,449432.09999990463,449192.341,455715.541,1,40,,
trial,html.Screen,8_5_0,2024-03-19T19:51:17.137Z,,,,2,-0.0060918352854008,0.029032683404407,,0.04,true,hl,3797.859000095341,response,0.8644465729542988,1.150290481935341,-1.15,-0.8679598285079457,1.1459166978824629,-1.15,high,low,,ISIC_8436194.JPG,,ISIC_6718969.JPG,28,27,false,0.31000000000000016,hl,keypress(j),0,true,459513.7999999523,459513.40000009537,455698.93,455945.7000000477,455715.541,459269.123,1,40,6,
sequence,flow.Sequence,8_5,2024-03-19T19:51:17.137Z,,,,,,,,,,,3797.859000095341,completion,,,,,,,high,low,,,,,,,false,,,,,true,459514.2999999523,459513.40000009537,455698.93,455945.7000000477,455715.541,459269.123,1,40,,
trial,html.Screen,8_6_0,2024-03-19T19:51:20.352Z,,,,2,-0.012020985739544,0.0126097407389903,,0.04,true,ll,3459.976999904611,response,-1.094624209823328,1.100290481935341,-1.15,-1.0544499428769605,1.1459166978824629,-1.15,low,low,,ISIC_0069379.JPG,,ISIC_0055526.JPG,28,25,false,0.11,ll,keypress(f),0,true,462729.5,462729.09999990463,459252.391,459514.40000009537,459269.123,462488.939,1,40,7,
sequence,flow.Sequence,8_6,2024-03-19T19:51:20.353Z,,,,,,,,,,,3459.976999904611,completion,,,,,,,low,low,,,,,,,false,,,,,true,462729.90000009537,462729.09999990463,459252.391,459514.40000009537,459269.123,462488.939,1,40,,
trial,html.Screen,8_7_0,2024-03-19T19:51:36.106Z,,,,2,-0.0077673378094614,-0.0021810768579373,,0.04,,,15766.339999999967,timeout,-0.7705174182595537,1.100290481935341,-0.9112048856924531,1.085710894474977,1.1459166978824629,-0.9112048856924531,low,high,,ISIC_0067621.JPG,,ISIC_0013644.JPG,28,25,false,0.19000000000000006,,,0,true,478483.5,478483.2000000477,462472.455,462730.09999990463,462488.939,478255.279,1,40,8,
sequence,flow.Sequence,8_7,2024-03-19T19:51:36.107Z,,,,,,,,,,,15994.26100004767,completion,,,,,,,low,high,,,,,,,false,,,,,true,478484,478483.2000000477,462472.455,462730.09999990463,462488.939,478255.279,1,40,,
trial,html.Screen,8_8_0,2024-03-19T19:51:40.095Z,,,,2,-0.00126575685933,-0.0325046559638838,,0.04,true,ll,4216.921000047703,response,-0.8299064093289698,1.100290481935341,-0.9112048856924531,-0.8788083232111502,1.1459166978824629,-0.9112048856924531,low,low,,ISIC_5682259.JPG,,ISIC_0000398.JPG,28,54,false,0.1,ll,keypress(f),0,true,482472.2999999523,482472.2000000477,478221.578,478484.09999990463,478255.279,482242.1,1,40,9,
sequence,flow.Sequence,8_8,2024-03-19T19:51:40.095Z,,,,,,,,,,,4216.921000047703,completion,,,,,,,low,low,,,,,,,false,,,,,true,482472.5,482472.2000000477,478221.578,478484.09999990463,478255.279,482242.1,1,40,,
trial,html.Screen,8_9_0,2024-03-19T19:51:44.464Z,,,,2,-0.0166849894750452,0.0371614812368835,,0.04,false,lh,4599.499999904656,response,-0.8035152873995188,1.100290481935341,-0.9112048856924531,1.2407642249743125,1.1459166978824629,-0.9112048856924531,low,high,,ISIC_6231450.JPG,,ISIC_0010671.JPG,28,25,false,0.19000000000000006,ll,keypress(f),0,true,486841.90000009537,486841.59999990463,482225.401,482472.59999990463,482242.1,486613.47,1,40,10,
sequence,flow.Sequence,8_9,2024-03-19T19:51:44.465Z,,,,,,,,,,,4599.499999904656,completion,,,,,,,low,high,,,,,,,false,,,,,true,486842.40000009537,486841.59999990463,482225.401,482472.59999990463,482242.1,486613.47,1,40,,
trial,html.Screen,8_10_0,2024-03-19T19:51:47.550Z,,,,2,-0.0077673378094614,-0.0021810768579373,,0.04,true,hh,3314.329999952344,response,1.1727618800748076,1.100290481935341,-0.7911618053053344,1.0636787813411093,1.195916697882463,-0.9112048856924531,high,high,,ISIC_0067621.JPG,,ISIC_9690371.JPG,28,26,false,0.14,hh,keypress(i),0,true,489927.7999999523,489927.7999999523,486579.82,486842.7000000477,486613.47,489682.794,1,40,11,
sequence,flow.Sequence,8_10,2024-03-19T19:51:47.550Z,,,,,,,,,,,3314.329999952344,completion,,,,,,,high,high,,,,,,,false,,,,,true,489928,489927.7999999523,486579.82,486842.5,486613.47,489682.794,1,40,,
trial,html.Screen,8_11_0,2024-03-19T19:51:51.662Z,,,,2,0.0199897690678184,0.0312486875504497,,0.04,false,lh,4357.206000000006,response,-0.6669021150735244,1.100290481935341,-0.7911618053053344,1.0443315451754065,1.195916697882463,-0.9112048856924531,low,high,,ISIC_5482426.JPG,,ISIC_9163466.JPG,28,28,false,0.18000000000000005,hl,keypress(j),0,true,494040.09999990463,494040,489666.063,489928.09999990463,489682.794,493803.54,1,40,12,
sequence,flow.Sequence,8_11,2024-03-19T19:51:51.663Z,,,,,,,,,,,4357.206000000006,completion,,,,,,,low,high,,,,,,,false,,,,,true,494040.2999999523,494040,489666.063,489928,489682.794,493803.54,1,40,,
trial,html.Screen,8_12_0,2024-03-19T19:51:56.142Z,,,,2,-0.0166849894750452,0.0371614812368835,,0.04,true,lh,4716.460000000021,response,-0.7877592509894734,1.100290481935341,-0.8411618053053345,1.1264694181779615,1.195916697882463,-0.9112048856924531,low,high,,ISIC_6231450.JPG,,ISIC_9058340.JPG,28,27,false,0.19000000000000006,lh,keypress(e),0,true,498520,498520,493786.831,494040.40000009537,493803.54,498274.685,1,40,13,
sequence,flow.Sequence,8_12,2024-03-19T19:51:56.142Z,,,,,,,,,,,4716.460000000021,completion,,,,,,,low,high,,,,,,,false,,,,,true,498520.2000000477,498520,493786.831,494040.40000009537,493803.54,498274.685,1,40,,
trial,html.Screen,8_13_0,2024-03-19T19:51:59.230Z,,,,2,0.0321039635696159,0.020496766286318,,0.04,false,hl,3333.1149999523186,response,0.931876071706936,1.100290481935341,-0.8411618053053345,-0.7205780326045168,1.195916697882463,-0.9112048856924531,high,low,,ISIC_0058063.JPG,,ISIC_0032426.JPG,28,26,false,0.20000000000000007,hh,keypress(i),0,true,501607.7999999523,501607.7999999523,498257.93,498520.2999999523,498274.685,501377.791,1,40,14,
sequence,flow.Sequence,8_13,2024-03-19T19:51:59.230Z,,,,,,,,,,,3333.1149999523186,completion,,,,,,,high,low,,,,,,,false,,,,,true,501608,501607.7999999523,498257.93,498520.2000000477,498274.685,501377.791,1,40,,
trial,html.Screen,8_14_0,2024-03-19T19:52:05.856Z,,,,2,-0.0060918352854008,0.029032683404407,,0.04,true,ll,6855.609000095341,response,-0.9286162906661966,0.9791727449424488,-0.8411618053053345,-0.8993115431771105,1.195916697882463,-0.9612048856924531,low,low,,ISIC_8436194.JPG,,ISIC_0011857.JPG,28,46,false,0.1,ll,keypress(f),0,true,508233.59999990463,508233.40000009537,501344.405,501608,501377.791,508001.283,1,40,15,
sequence,flow.Sequence,8_14,2024-03-19T19:52:05.856Z,,,,,,,,,,,6855.609000095341,completion,,,,,,,low,low,,,,,,,false,,,,,true,508234.09999990463,508233.40000009537,501344.405,501608,501377.791,508001.283,1,40,,
trial,html.Screen,8_15_0,2024-03-19T19:52:09.632Z,,,,2,-0.012020985739544,0.0126097407389903,,0.04,true,ll,4007.917000047688,response,-0.8751568783563604,0.9791727449424488,-0.8639639169216535,-0.8649242672115863,1.195916697882463,-0.9612048856924531,low,low,,ISIC_0069379.JPG,,ISIC_0027742.JPG,28,44,false,0.1,ll,keypress(f),0,true,512009.59999990463,512009.2000000477,507984.35,508234.40000009537,508001.283,511771.475,1,40,16,
sequence,flow.Sequence,8_15,2024-03-19T19:52:09.632Z,,,,,,,,,,,4007.917000047688,completion,,,,,,,low,low,,,,,,,false,,,,,true,512010,512009.2000000477,507984.35,508234.2999999523,508001.283,511771.475,1,40,,
trial,html.Screen,8_16_0,2024-03-19T19:52:13.600Z,,,,2,-0.0023664502831079,-0.0252784582169994,,0.04,false,hl,4205.925000095391,response,0.9087169856594104,0.9791727449424488,-0.8639639169216535,-0.8835647084207277,1.195916697882463,-0.8200405727839732,high,low,,ISIC_4156010.JPG,,ISIC_0000349.JPG,28,28,false,0.16000000000000003,ll,keypress(f),0,true,515977.59999990463,515977.40000009537,511754.997,512010.2000000477,511771.475,515742.163,1,40,17,
sequence,flow.Sequence,8_16,2024-03-19T19:52:13.600Z,,,,,,,,,,,4205.925000095391,completion,,,,,,,high,low,,,,,,,false,,,,,true,515978.2000000477,515977.40000009537,511754.997,512010.2000000477,511771.475,515742.163,1,40,,
trial,html.Screen,8_17_0,2024-03-19T19:52:22.192Z,,,,2,-0.0077673378094614,-0.0021810768579373,,0.04,true,hl,8827.237000095367,response,0.9674279172871372,1.0291727449424488,-0.8639639169216535,-0.7134300562904723,1.195916697882463,-0.8200405727839732,high,low,,ISIC_0067621.JPG,,ISIC_9130157.JPG,28,25,false,0.16000000000000003,hl,keypress(j),0,true,524569.7000000477,524569.4000000954,515725.617,515978.40000009537,515742.163,524334.086,1,40,18,
sequence,flow.Sequence,8_17,2024-03-19T19:52:22.192Z,,,,,,,,,,,8827.237000095367,completion,,,,,,,high,low,,,,,,,false,,,,,true,524570.2000000477,524569.4000000954,515725.617,515978.40000009537,515742.163,524334.086,1,40,,
trial,html.Screen,8_18_0,2024-03-19T19:52:32.480Z,,,,2,-0.0060934073440827,-0.0279108145883031,,0.04,false,hh,10523.41399999999,response,0.9169485822579088,1.0291727449424488,-0.8639639169216535,1.3110324669776257,1.195916697882463,-0.7700405727839732,high,high,,ISIC_0032604.JPG,,ISIC_0062286.JPG,28,27,false,0.13,lh,keypress(e),0,true,534857.7000000477,534857.5,524317.357,524570.4000000954,524334.086,534627.786,1,40,19,
sequence,flow.Sequence,8_18,2024-03-19T19:52:32.481Z,,,,,,,,,,,10523.41399999999,completion,,,,,,,high,high,,,,,,,false,,,,,true,534858.2999999523,534857.5,524317.357,524570.4000000954,524334.086,534627.786,1,40,,
trial,html.Screen,8_19_0,2024-03-19T19:52:38.081Z,,,,2,-0.0023664502831079,-0.0252784582169994,,0.04,false,lh,5829.41400004772,response,-0.7468996036626098,1.0791727449424489,-0.8639639169216535,1.0079605779898853,1.0892301921323815,-0.7700405727839732,low,high,,ISIC_4156010.JPG,,ISIC_5335139.JPG,28,26,false,0.17000000000000004,ll,keypress(f),0,true,540457.5,540457.2000000477,534611.019,534858.5,534627.786,540216.536,1,40,20,
sequence,flow.Sequence,8_19,2024-03-19T19:52:38.081Z,,,,,,,,,,,5829.41400004772,completion,,,,,,,low,high,,,,,,,false,,,,,true,540458,540457.2000000477,534611.019,534858.5,534627.786,540216.536,1,40,,
trial,html.Screen,8_20_0,2024-03-19T19:52:47.873Z,,,,2,-0.0057914759495055,0.018500200317654,,0.04,false,ll,10032.864000095404,response,-0.7597421372185947,1.0791727449424489,-0.8139639169216535,-0.7152318781979511,1.1392301921323815,-0.7700405727839732,low,low,,ISIC_0058723.JPG,,ISIC_0009894.JPG,28,62,false,0.1,hl,keypress(j),0,true,550249.7999999523,550249.4000000954,540199.933,540458.2000000477,540216.536,550009.645,1,40,21,
sequence,flow.Sequence,8_20,2024-03-19T19:52:47.873Z,,,,,,,,,,,10032.864000095404,completion,,,,,,,low,low,,,,,,,false,,,,,true,550250.2999999523,550249.4000000954,540199.933,540458.2000000477,540216.536,550009.645,1,40,,
trial,html.Screen,8_21_0,2024-03-19T19:52:50.977Z,,,,2,0.0189295602385628,0.0128812415435153,,0.04,true,ll,3343.555000047665,response,-0.8542403401067127,1.0791727449424489,-0.8639639169216535,-0.8471646801526567,1.1392301921323815,-0.7700405727839732,low,low,,ISIC_0010372.JPG,,ISIC_0010140.JPG,28,54,false,0.1,ll,keypress(f),0,true,553353.4000000954,553353.2000000477,549993.039,550250.5,550009.645,553112.737,1,40,22,
sequence,flow.Sequence,8_21,2024-03-19T19:52:50.977Z,,,,,,,,,,,3343.555000047665,completion,,,,,,,low,low,,,,,,,false,,,,,true,553354,553353.2000000477,549993.039,550250.5,550009.645,553112.737,1,40,,
trial,html.Screen,8_22_0,2024-03-19T19:52:55.776Z,,,,2,-0.0060918352854008,0.029032683404407,,0.04,false,hl,5040.163000095403,response,1.1598623261077452,1.0791727449424489,-0.8639639169216535,-0.6961047103031557,1.1392301921323815,-0.8007025101296846,high,low,,ISIC_8436194.JPG,,ISIC_0002639.JPG,28,29,false,0.18000000000000005,hh,keypress(i),0,true,558153.2999999523,558152.9000000954,553096.13,553354.2000000477,553112.737,557917.528,1,40,23,
sequence,flow.Sequence,8_22,2024-03-19T19:52:55.777Z,,,,,,,,,,,5040.163000095403,completion,,,,,,,high,low,,,,,,,false,,,,,true,558153.7999999523,558152.9000000954,553096.13,553354.2000000477,553112.737,557917.528,1,40,,
trial,html.Screen,8_23_0,2024-03-19T19:53:02.609Z,,,,2,0.0327772618698018,-0.0056908372048728,,0.04,true,hh,7067.971999999951,response,1.02671179315839,1.0791727449424489,-0.8639639169216535,1.232411858241539,1.1392301921323815,-0.8507025101296847,high,high,,ISIC_7897925.JPG,,ISIC_7779155.JPG,28,28,false,0.13,hh,keypress(i),0,true,564985.7999999523,564985.5,557901.007,558154.0999999046,557917.528,564741.086,1,40,24,
sequence,flow.Sequence,8_23,2024-03-19T19:53:02.609Z,,,,,,,,,,,7067.971999999951,completion,,,,,,,high,high,,,,,,,false,,,,,true,564986.2000000477,564985.5,557901.007,558154,557917.528,564741.086,1,40,,
trial,html.Screen,8_24_0,2024-03-19T19:53:05.185Z,,,,2,-0.012810673904807,0.00400964452501,,0.04,true,ll,2820.1140000476735,response,-0.8323660408822174,1.0795618256999646,-0.8639639169216535,-0.7659165333957175,1.1392301921323815,-0.8507025101296847,low,low,,ISIC_0064656.JPG,,ISIC_3738751.JPG,28,51,false,0.1,ll,keypress(f),0,true,567561.5999999046,567561.2000000477,564724.399,564986.5,564741.086,567327.008,1,40,25,
sequence,flow.Sequence,8_24,2024-03-19T19:53:05.185Z,,,,,,,,,,,2820.1140000476735,completion,,,,,,,low,low,,,,,,,false,,,,,true,567562,567561.2000000477,564724.399,564986.5,564741.086,567327.008,1,40,,
trial,html.Screen,8_25_0,2024-03-19T19:53:07.409Z,,,,2,-0.0050679133050021,-0.0174815595031679,,0.04,false,hl,2458.091999904602,response,0.9087169856594104,1.0795618256999646,-0.7491412871389674,-0.8835647084207277,1.1392301921323815,-0.8507025101296847,high,low,,ISIC_9848743.JPG,,ISIC_0000349.JPG,28,27,false,0.18000000000000005,hh,keypress(i),0,true,569785.5,569785.0999999046,567310.476,567562.2999999523,567327.008,569545.825,1,40,26,
sequence,flow.Sequence,8_25,2024-03-19T19:53:07.409Z,,,,,,,,,,,2458.091999904602,completion,,,,,,,high,low,,,,,,,false,,,,,true,569785.9000000954,569785.0999999046,567310.476,567562.2000000477,567327.008,569545.825,1,40,,
trial,html.Screen,8_26_0,2024-03-19T19:53:09.489Z,,,,2,0.0367218428225813,-0.0026956749740767,,0.04,false,hl,2319.274999904679,response,1.064425982109969,1.0795618256999646,-0.7491412871389674,-0.958564243697126,1.1392301921323815,-0.9007025101296847,high,low,,ISIC_7212271.JPG,,ISIC_3203344.JPG,28,25,false,0.19000000000000006,hh,keypress(i),0,true,571865.5,571865.0999999046,569529.364,569786.2000000477,569545.825,571631.465,1,40,27,
sequence,flow.Sequence,8_26,2024-03-19T19:53:09.489Z,,,,,,,,,,,2319.274999904679,completion,,,,,,,high,low,,,,,,,false,,,,,true,571865.9000000954,571865.0999999046,569529.364,569786.2000000477,569545.825,571631.465,1,40,,
trial,html.Screen,8_27_0,2024-03-19T19:53:12.769Z,,,,2,-0.0050679133050021,-0.0174815595031679,,0.04,true,ll,3513.9350000954,response,-0.7885346483975911,0.9365714838846897,-0.7491412871389674,-1.0139262987357185,1.1392301921323815,-0.9507025101296848,low,low,,ISIC_9848743.JPG,,ISIC_0000406.JPG,28,50,false,0.1,ll,keypress(f),0,true,575145.7000000477,575145.4000000954,571614.804,571866.0999999046,571631.465,574901.284,1,40,28,
sequence,flow.Sequence,8_27,2024-03-19T19:53:12.769Z,,,,,,,,,,,3513.9350000954,completion,,,,,,,low,low,,,,,,,false,,,,,true,575146.2000000477,575145.4000000954,571614.804,571866,571631.465,574901.284,1,40,,
trial,html.Screen,8_28_0,2024-03-19T19:53:16.896Z,,,,2,0.0051046740562181,-0.0178832721027728,,0.04,false,ll,4370.916000047699,response,-0.6614995891910197,0.9365714838846897,-0.7491412871389674,-0.922748967912168,1.1392301921323815,-0.9507025101296848,low,low,,ISIC_9545819.JPG,,ISIC_0032484.JPG,28,50,false,0.1,hh,keypress(i),0,true,579272.4000000954,579272.2000000477,574884.533,575146.4000000954,574901.284,579038.882,1,40,29,
sequence,flow.Sequence,8_28,2024-03-19T19:53:16.896Z,,,,,,,,,,,4370.916000047699,completion,,,,,,,low,low,,,,,,,false,,,,,true,579272.5999999046,579272.2000000477,574884.533,575146.2999999523,574901.284,579038.882,1,40,,
trial,html.Screen,8_29_0,2024-03-19T19:53:21.793Z,,,,2,-0.0060918352854008,0.029032683404407,,0.04,false,lh,5130.217999904649,response,-0.7277664800679337,0.9365714838846897,-0.7991412871389675,1.2162806898850131,1.1392301921323815,-1.0007025101296847,low,high,,ISIC_8436194.JPG,,ISIC_0013777.JPG,28,26,false,0.16000000000000003,hh,keypress(i),0,true,584169.4000000954,584169.0999999046,579022.138,579272.7000000477,579038.882,583926.829,1,40,30,
sequence,flow.Sequence,8_29,2024-03-19T19:53:21.793Z,,,,,,,,,,,5130.217999904649,completion,,,,,,,low,high,,,,,,,false,,,,,true,584170,584169.0999999046,579022.138,579272.7000000477,579038.882,583926.829,1,40,,
trial,html.Screen,8_30_0,2024-03-19T19:53:25.457Z,,,,2,0.0367218428225813,-0.0026956749740767,,0.04,true,hl,3906.5710000953404,response,0.9013888878932071,0.9365714838846897,-0.8491412871389675,-0.9328095253308732,1.0892301921323815,-1.0007025101296847,high,low,,ISIC_7212271.JPG,,ISIC_0068259.JPG,28,26,false,0.19000000000000006,hl,keypress(j),0,true,587833.7000000477,587833.4000000954,583910.241,584170.2000000477,583926.829,587597.33,1,40,31,
sequence,flow.Sequence,8_30,2024-03-19T19:53:25.457Z,,,,,,,,,,,3906.5710000953404,completion,,,,,,,high,low,,,,,,,false,,,,,true,587834.0999999046,587833.4000000954,583910.241,584170.0999999046,583926.829,587597.33,1,40,,
trial,html.Screen,8_31_0,2024-03-19T19:53:34.609Z,,,,2,0.0086413421586899,0.0360184993500958,,0.04,true,ll,9387.870000047726,response,-0.758207007584394,0.9365714838846897,-0.8491412871389675,-1.0467954238943018,1.0892301921323815,-1.0007025101296847,low,low,,ISIC_0010767.JPG,,ISIC_0011626.JPG,28,36,false,0.1,ll,keypress(f),0,true,596985.5,596985.2000000477,587580.686,587834.4000000954,587597.33,596773.294,1,40,32,
sequence,flow.Sequence,8_31,2024-03-19T19:53:34.609Z,,,,,,,,,,,9387.870000047726,completion,,,,,,,low,low,,,,,,,false,,,,,true,596986,596985.2000000477,587580.686,587834.4000000954,587597.33,596773.294,1,40,,
trial,html.Screen,8_32_0,2024-03-19T19:53:41.634Z,,,,2,0.0321039635696159,0.020496766286318,,0.04,true,lh,7236.606000095373,response,-0.9670240379618178,0.9365714838846897,-0.8491412871389675,1.1806404773220665,1.0892301921323815,-0.8525012157393479,low,high,,ISIC_0058063.JPG,,ISIC_0002288.JPG,28,26,false,0.17000000000000004,lh,keypress(e),0,true,604010.2999999523,604009.9000000954,596756.542,596986.2999999523,596773.294,603780.23,1,40,33,
sequence,flow.Sequence,8_32,2024-03-19T19:53:41.634Z,,,,,,,,,,,7236.606000095373,completion,,,,,,,low,high,,,,,,,false,,,,,true,604010.9000000954,604009.9000000954,596756.542,596986.2000000477,596773.294,603780.23,1,40,,
trial,html.Screen,8_33_0,2024-03-19T19:53:44.497Z,,,,2,-0.0158987717472563,-0.0292472192292015,,0.04,false,lh,3092.7700000000186,response,-0.9212323139676136,0.9365714838846897,-0.7991412871389675,0.9882196642247332,1.0892301921323815,-0.8525012157393479,low,high,,ISIC_1366765.JPG,,ISIC_0014255.JPG,28,25,false,0.15000000000000002,ll,keypress(f),0,true,606873.2999999523,606873,603763.433,604011.0999999046,603780.23,606632.854,1,40,34,
sequence,flow.Sequence,8_33,2024-03-19T19:53:44.497Z,,,,,,,,,,,3092.7700000000186,completion,,,,,,,low,high,,,,,,,false,,,,,true,606873.9000000954,606873,603763.433,604011.0999999046,603780.23,606632.854,1,40,,
trial,html.Screen,8_34_0,2024-03-19T19:53:46.991Z,,,,2,0.0321039635696159,0.020496766286318,,0.04,true,hh,2735.1459999999497,response,0.9584046290108544,0.9365714838846897,-0.7991412871389675,1.2089382903602173,1.1392301921323815,-0.8525012157393479,high,high,,ISIC_0058063.JPG,,ISIC_4874581.JPG,28,27,false,0.1,hh,keypress(i),0,true,609368.2000000477,609368,606616.362,606874.0999999046,606632.854,609135.515,1,40,35,
sequence,flow.Sequence,8_34,2024-03-19T19:53:46.992Z,,,,,,,,,,,2735.1459999999497,completion,,,,,,,high,high,,,,,,,false,,,,,true,609368.4000000954,609368,606616.362,606874.0999999046,606632.854,609135.515,1,40,,
trial,html.Screen,8_35_0,2024-03-19T19:53:49.441Z,,,,2,-0.0077673378094614,-0.0021810768579373,,0.04,true,hh,2681.484999999986,response,1.004164099430695,1.0336714596855359,-0.7991412871389675,1.0674669038247562,1.1392301921323815,-0.8525012157393479,high,high,,ISIC_0067621.JPG,,ISIC_0541345.JPG,28,26,false,0.13,hh,keypress(i),0,true,611817.2999999523,611817,609118.768,609368.5,609135.515,611587.853,1,40,36,
sequence,flow.Sequence,8_35,2024-03-19T19:53:49.441Z,,,,,,,,,,,2681.484999999986,completion,,,,,,,high,high,,,,,,,false,,,,,true,611817.9000000954,611817,609118.768,609368.4000000954,609135.515,611587.853,1,40,,
trial,html.Screen,8_36_0,2024-03-19T19:53:55.808Z,,,,2,0.0327772618698018,-0.0056908372048728,,0.04,false,hl,6596.347000047681,response,1.1172883106398417,1.0336714596855359,-0.7991412871389675,-0.7336493335132354,0.9858155016277255,-0.8525012157393479,high,low,,ISIC_7897925.JPG,,ISIC_7415335.JPG,28,27,false,0.17000000000000004,lh,keypress(e),0,true,618184.2999999523,618184.2000000477,611571.226,611818.0999999046,611587.853,617944.225,1,40,37,
sequence,flow.Sequence,8_36,2024-03-19T19:53:55.808Z,,,,,,,,,,,6596.347000047681,completion,,,,,,,high,low,,,,,,,false,,,,,true,618184.4000000954,618184.2000000477,611571.226,611818.0999999046,611587.853,617944.225,1,40,,
trial,html.Screen,8_37_0,2024-03-19T19:53:59.649Z,,,,2,-0.0350697500805515,-0.0166617848231997,,0.04,false,hh,4080.975000047707,response,1.0437497612294713,1.083671459685536,-0.7991412871389675,0.93059645456522,0.9858155016277255,-0.9025012157393479,high,high,,ISIC_0024423.JPG,,ISIC_0032357.JPG,28,28,false,0.11,ll,keypress(f),0,true,622025.4000000954,622025.2000000477,617927.507,618184.4000000954,617944.225,621781.357,1,40,38,
sequence,flow.Sequence,8_37,2024-03-19T19:53:59.649Z,,,,,,,,,,,4080.975000047707,completion,,,,,,,high,high,,,,,,,false,,,,,true,622026,622025.2000000477,617927.507,618184.4000000954,617944.225,621781.357,1,40,,
trial,html.Screen,8_38_0,2024-03-19T19:54:15.417Z,,,,2,-0.00126575685933,-0.0325046559638838,,0.04,,,15782.552000000025,timeout,1.0437497612294713,1.133671459685536,-0.7991412871389675,0.93059645456522,1.0358155016277255,-0.9025012157393479,high,high,,ISIC_5682259.JPG,,ISIC_0032357.JPG,28,27,false,0.11,,,0,true,637793.4000000954,637793,621764.838,622026.2999999523,621781.357,637563.909,1,40,39,
sequence,flow.Sequence,8_38,2024-03-19T19:54:15.417Z,,,,,,,,,,,16011.64300000004,completion,,,,,,,high,high,,,,,,,false,,,,,true,637793.9000000954,637793,621764.838,622026.2000000477,621781.357,637563.909,1,40,,
trial,html.Screen,8_39_0,2024-03-19T19:54:21.151Z,,,,2,-0.0166849894750452,0.0371614812368835,,0.04,true,lh,5963.890999952331,response,-0.6714344890480403,1.133671459685536,-0.7991412871389675,1.1317411618506656,1.0358155016277255,-0.9025012157393479,low,high,,ISIC_6231450.JPG,,ISIC_3691320.JPG,28,29,false,0.14,lh,keypress(e),0,true,643527.7999999523,643527.7999999523,637547.208,637794.2000000477,637563.909,643286.089,1,40,40,
sequence,flow.Sequence,8_39,2024-03-19T19:54:21.151Z,,,,,,,,,,,5963.890999952331,completion,,,,,,,low,high,,,,,,,false,,,,,true,643528.0999999046,643527.7999999523,637547.208,637794.0999999046,637563.909,643286.089,1,40,,
stair_loop,flow.Loop,8,2024-03-19T19:54:21.151Z,,,,,,,,,,,211986.18399995234,completion,,,,,,,,,,,,,,,false,,,,,true,643528.0999999046,643527.7999999523,431524.866,431776.09999990463,431541.616,643286.089,1,40,,
exp_instructions,html.Screen,9,2024-03-19T19:54:39.375Z,,,,,,,,,,,18465.410999999964,response,,,,,,,,,,,,,,,,,continue,keypress(Space),,,661751.9000000954,661751.5,643269.418,643528.0999999046,643286.089,661520.979,,,,
trial,html.Screen,10_0_0,2024-03-19T19:54:44.918Z,,,,1,-0.0071892445601978,0.0246015408628738,,0.04,true,lh,5774.421000095317,response,-0.8407642478899736,1.0233152813187443,-0.8103469445846392,0.9542322753334054,1.1035472540314502,-0.8833557986389791,low,high,,ISIC_0014133.JPG,10,ISIC_9090822.JPG,28,26,false,0.15000000000000002,lh,keypress(e),0,false,667295.4000000954,667295.4000000954,661504.216,661752,661520.979,667060.034,5,600,1,
break,html.Screen,10_0_1,2024-03-19T19:54:44.919Z,,,,,,,,,,,NaN,,,,,,,,low,high,,,,,,,false,,,,,false,667295.9000000954,667295.7999999523,,667295.5999999046,,667060.034,5,600,,
break_continue,html.Screen,10_0_2,2024-03-19T19:54:44.919Z,,,,,,,,,,,NaN,,,,,,,,low,high,,,,,,,false,,,,,false,667296.2000000477,667296,,667295.9000000954,,667060.034,5,600,,
sequence,flow.Sequence,10_0,2024-03-19T19:54:44.919Z,,,,,,,,,,,5775.02099999995,completion,,,,,,,low,high,,,,,,,false,,,,,false,667296.2000000477,667296,661504.216,661752,661520.979,667060.034,5,600,,
trial,html.Screen,10_1_0,2024-03-19T19:54:49.136Z,,,,1,0.0321039635696159,0.020496766286318,,0.04,true,hh,4452.966000000015,response,0.9462198986993904,1.0233152813187443,-0.8103469445846392,1.067111862128132,1.1035472540314502,-0.8833557986389791,high,high,,ISIC_0058063.JPG,8,ISIC_3564461.JPG,28,31,false,0.13,hh,keypress(i),0,false,671513.4000000954,671513,667043.265,667296.2999999523,667060.034,671280.938,5,600,2,
break,html.Screen,10_1_1,2024-03-19T19:54:49.138Z,,,,,,,,,,,NaN,,,,,,,,high,high,,,,,,,false,,,,,false,671514.7999999523,671514.2999999523,,671513.7999999523,,671280.938,5,600,,
break_continue,html.Screen,10_1_2,2024-03-19T19:54:49.138Z,,,,,,,,,,,NaN,,,,,,,,high,high,,,,,,,false,,,,,false,671515.5,671515.2999999523,,671515,,671280.938,5,600,,
sequence,flow.Sequence,10_1,2024-03-19T19:54:49.139Z,,,,,,,,,,,4455.265999952331,completion,,,,,,,high,high,,,,,,,false,,,,,false,671515.9000000954,671515.2999999523,667043.265,667296.2000000477,667060.034,671280.938,5,600,,
trial,html.Screen,10_2_0,2024-03-19T19:54:52.992Z,,,,1,-0.0023664502831079,-0.0252784582169994,,0.04,false,hh,4088.3619999523507,response,1.1217390688497193,1.0233152813187443,-0.8103469445846392,1.2276600934505035,1.1035472540314502,-0.8833557986389791,high,high,,ISIC_4156010.JPG,8,ISIC_0026344.JPG,28,31,false,0.13,lh,keypress(e),0,false,675369.5999999046,675369.2999999523,671264.109,671516.0999999046,671280.938,675134.542,5,600,3,
break,html.Screen,10_2_1,2024-03-19T19:54:52.994Z,,,,,,,,,,,NaN,,,,,,,,high,high,,,,,,,false,,,,,false,675370.7999999523,675370.5,,675370,,675134.542,5,600,,
break_continue,html.Screen,10_2_2,2024-03-19T19:54:52.994Z,,,,,,,,,,,NaN,,,,,,,,high,high,,,,,,,false,,,,,false,675371.5999999046,675371.2999999523,,675371.0999999046,,675134.542,5,600,,
sequence,flow.Sequence,10_2,2024-03-19T19:54:52.995Z,,,,,,,,,,,4090.3619999523507,completion,,,,,,,high,high,,,,,,,false,,,,,false,675371.9000000954,675371.2999999523,671264.109,671515.9000000954,671280.938,675134.542,5,600,,
trial,html.Screen,10_3_0,2024-03-19T19:54:55.489Z,,,,1,0.0327772618698018,-0.0056908372048728,,0.04,true,ll,2730.7579999523005,response,-0.8752617287758995,1.0233152813187443,-0.8103469445846392,-0.8023740329006754,1.1035472540314502,-0.8833557986389791,low,low,,ISIC_7897925.JPG,9,ISIC_0033968.JPG,28,56,false,0.1,ll,keypress(f),0,false,677865.5999999046,677865.2999999523,675117.921,675372.0999999046,675134.542,677637.659,5,600,4,
break,html.Screen,10_3_1,2024-03-19T19:54:55.490Z,,,,,,,,,,,NaN,,,,,,,,low,low,,,,,,,false,,,,,false,677866.7999999523,677866.5,,677866,,677637.659,5,600,,
break_continue,html.Screen,10_3_2,2024-03-19T19:54:55.490Z,,,,,,,,,,,NaN,,,,,,,,low,low,,,,,,,false,,,,,false,677867.5,677867.2000000477,,677867,,677637.659,5,600,,
sequence,flow.Sequence,10_3,2024-03-19T19:54:55.491Z,,,,,,,,,,,2732.658000047668,completion,,,,,,,low,low,,,,,,,false,,,,,false,677867.7999999523,677867.2000000477,675117.921,675372,675134.542,677637.659,5,600,,
trial,html.Screen,10_4_0,2024-03-19T19:54:58.591Z,,,,1,-0.0023664502831079,-0.0252784582169994,,0.04,false,lh,3330.2410000953823,response,-0.6707413499192771,1.0233152813187443,-0.8103469445846392,1.176352590105879,1.1035472540314502,-0.8833557986389791,low,high,,ISIC_4156010.JPG,9,ISIC_0567814.JPG,28,26,false,0.15000000000000002,ll,keypress(f),0,false,680968.0999999046,680967.9000000954,677603.647,677868.0999999046,677637.659,680723.462,5,600,5,
break,html.Screen,10_4_1,2024-03-19T19:54:58.591Z,,,,,,,,,,,NaN,,,,,,,,low,high,,,,,,,false,,,,,false,680968.4000000954,680968.2999999523,,680968.2000000477,,680723.462,5,600,,
break_continue,html.Screen,10_4_2,2024-03-19T19:54:58.591Z,,,,,,,,,,,NaN,,,,,,,,low,high,,,,,,,false,,,,,false,680968.5999999046,680968.5999999046,,680968.4000000954,,680723.462,5,600,,
sequence,flow.Sequence,10_4,2024-03-19T19:54:58.592Z,,,,,,,,,,,3330.9409999046475,completion,,,,,,,low,high,,,,,,,false,,,,,false,680968.5999999046,680968.5999999046,677603.647,677868,677637.659,680723.462,5,600,,
trial,html.Screen,10_5_0,2024-03-19T19:55:03.536Z,,,,1,-0.0377791839943904,0.0227626648172468,,0.04,true,lh,5189.738000047626,response,-0.7761549898346118,1.0233152813187443,-0.8103469445846392,1.0995228188562456,1.1035472540314502,-0.8833557986389791,low,high,,ISIC_7167479.JPG,9,ISIC_1835041.JPG,28,26,false,0.15000000000000002,lh,keypress(e),0,false,685913.5,685913.2000000477,680706.746,680968.7000000477,680723.462,685678.477,5,600,6,
break,html.Screen,10_5_1,2024-03-19T19:55:03.538Z,,,,,,,,,,,NaN,,,,,,,,low,high,,,,,,,false,,,,,false,685914.5999999046,685914.2999999523,,685913.9000000954,,685678.477,5,600,,
break_continue,html.Screen,10_5_2,2024-03-19T19:55:03.538Z,,,,,,,,,,,NaN,,,,,,,,low,high,,,,,,,false,,,,,false,685915.2999999523,685915.0999999046,,685914.9000000954,,685678.477,5,600,,
sequence,flow.Sequence,10_5,2024-03-19T19:55:03.538Z,,,,,,,,,,,5191.637999904575,completion,,,,,,,low,high,,,,,,,false,,,,,false,685915.5999999046,685915.0999999046,680706.746,680968.7000000477,680723.462,685678.477,5,600,,
trial,html.Screen,10_6_0,2024-03-19T19:55:07.808Z,,,,1,0.0189295602385628,0.0128812415435153,,0.04,false,hl,4506.622999904677,response,1.1172883106398417,1.0233152813187443,-0.8103469445846392,-0.7336493335132354,1.1035472540314502,-0.8833557986389791,high,low,,ISIC_0010372.JPG,8,ISIC_7415335.JPG,28,25,false,0.17000000000000004,lh,keypress(e),0,false,690185.4000000954,690185.0999999046,685661.921,685915.7999999523,685678.477,689949.407,5,600,7,
break,html.Screen,10_6_1,2024-03-19T19:55:07.809Z,,,,,,,,,,,NaN,,,,,,,,high,low,,,,,,,false,,,,,false,690186.5,690186.2000000477,,690185.7000000477,,689949.407,5,600,,
break_continue,html.Screen,10_6_2,2024-03-19T19:55:07.810Z,,,,,,,,,,,NaN,,,,,,,,high,low,,,,,,,false,,,,,false,690187.2000000477,690187,,690186.7000000477,,689949.407,5,600,,
sequence,flow.Sequence,10_6,2024-03-19T19:55:07.810Z,,,,,,,,,,,4508.523000000045,completion,,,,,,,high,low,,,,,,,false,,,,,false,690187.4000000954,690187,685661.921,685915.7999999523,685678.477,689949.407,5,600,,
trial,html.Screen,10_7_0,2024-03-19T19:55:11.088Z,,,,1,0.0327772618698018,-0.0056908372048728,,0.04,false,lh,3515.793000047677,response,-0.7277664800679337,1.0233152813187443,-0.8103469445846392,1.2162806898850131,1.1035472540314502,-0.8833557986389791,low,high,,ISIC_7897925.JPG,8,ISIC_0013777.JPG,28,26,false,0.15000000000000002,hh,keypress(i),0,false,693465.5,693465.2000000477,689932.836,690187.5999999046,689949.407,693252.929,5,600,8,
break,html.Screen,10_7_1,2024-03-19T19:55:11.090Z,,,,,,,,,,,NaN,,,,,,,,low,high,,,,,,,false,,,,,false,693466.7000000477,693466.4000000954,,693465.9000000954,,693252.929,5,600,,
break_continue,html.Screen,10_7_2,2024-03-19T19:55:11.090Z,,,,,,,,,,,NaN,,,,,,,,low,high,,,,,,,false,,,,,false,693467.4000000954,693467.0999999046,,693466.9000000954,,693252.929,5,600,,
sequence,flow.Sequence,10_7,2024-03-19T19:55:11.091Z,,,,,,,,,,,3517.692999904626,completion,,,,,,,low,high,,,,,,,false,,,,,false,693467.7000000477,693467.0999999046,689932.836,690187.5999999046,689949.407,693252.929,5,600,,
trial,html.Screen,10_8_0,2024-03-19T19:55:13.456Z,,,,1,0.0199897690678184,0.0312486875504497,,0.04,true,hh,2580.0709999999963,response,1.0730492496332733,1.0233152813187443,-0.8103469445846392,1.0252626598876022,1.1035472540314502,-0.8833557986389791,high,high,,ISIC_5482426.JPG,9,ISIC_0007029.JPG,28,31,false,0.13,hh,keypress(i),0,false,695833.2999999523,695833,693236.152,693467.9000000954,693252.929,695588.386,5,600,9,
break,html.Screen,10_8_1,2024-03-19T19:55:13.458Z,,,,,,,,,,,NaN,,,,,,,,high,high,,,,,,,false,,,,,false,695834.7999999523,695834.2999999523,,695833.7999999523,,695588.386,5,600,,
break_continue,html.Screen,10_8_2,2024-03-19T19:55:13.458Z,,,,,,,,,,,NaN,,,,,,,,high,high,,,,,,,false,,,,,false,695835.5999999046,695835.2999999523,,695835,,695588.386,5,600,,
sequence,flow.Sequence,10_8,2024-03-19T19:55:13.459Z,,,,,,,,,,,2582.3709999523126,completion,,,,,,,high,high,,,,,,,false,,,,,false,695835.9000000954,695835.2999999523,693236.152,693467.9000000954,693252.929,695588.386,5,600,,
trial,html.Screen,10_9_0,2024-03-19T19:55:18.208Z,,,,1,-0.012020985739544,0.0126097407389903,,0.04,true,hl,4996.814000047627,response,0.9674279172871372,1.0233152813187443,-0.8103469445846392,-0.7134300562904723,1.1035472540314502,-0.8833557986389791,high,low,,ISIC_0069379.JPG,9,ISIC_9130157.JPG,28,25,false,0.17000000000000004,hl,keypress(j),0,false,700585.5,700585.2000000477,695571.708,695836.0999999046,695588.386,700343.041,5,600,10,
break,html.Screen,10_9_1,2024-03-19T19:55:18.210Z,,,,,,,,,,,NaN,,,,,,,,high,low,,,,,,,false,,,,,false,700586.5999999046,700586.4000000954,,700585.9000000954,,700343.041,5,600,,
break_continue,html.Screen,10_9_2,2024-03-19T19:55:18.210Z,,,,,,,,,,,NaN,,,,,,,,high,low,,,,,,,false,,,,,false,700587.5,700587.0999999046,,700586.9000000954,,700343.041,5,600,,
sequence,flow.Sequence,10_9,2024-03-19T19:55:18.211Z,,,,,,,,,,,4998.713999904576,completion,,,,,,,high,low,,,,,,,false,,,,,false,700587.7000000477,700587.0999999046,695571.708,695836.0999999046,695588.386,700343.041,5,600,,
trial,html.Screen,10_10_0,2024-03-19T19:55:23.120Z,,,,1,-0.0377791839943904,0.0227626648172468,,0.04,true,hh,5154.159000047715,response,1.09666761087476,1.0233152813187443,-0.8103469445846392,0.9917482735105084,1.1035472540314502,-0.8833557986389791,high,high,,ISIC_7167479.JPG,9,ISIC_0071754.JPG,28,31,false,0.13,hh,keypress(i),0,false,705497.5,705497.2000000477,700326.526,700587.9000000954,700343.041,705264.771,5,600,11,
break,html.Screen,10_10_1,2024-03-19T19:55:23.121Z,,,,,,,,,,,NaN,,,,,,,,high,high,,,,,,,false,,,,,false,705498.5999999046,705498.4000000954,,705497.7999999523,,705264.771,5,600,,
break_continue,html.Screen,10_10_2,2024-03-19T19:55:23.122Z,,,,,,,,,,,NaN,,,,,,,,high,high,,,,,,,false,,,,,false,705499.2999999523,705499.2000000477,,705498.7999999523,,705264.771,5,600,,
sequence,flow.Sequence,10_10,2024-03-19T19:55:23.122Z,,,,,,,,,,,5156.159000047715,completion,,,,,,,high,high,,,,,,,false,,,,,false,705499.5999999046,705499.2000000477,700326.526,700587.7999999523,700343.041,705264.771,5,600,,
trial,html.Screen,10_11_0,2024-03-19T19:55:25.824Z,,,,1,0.0367218428225813,-0.0026956749740767,,0.04,true,hh,2936.1290000954177,response,1.09666761087476,1.0233152813187443,-0.8103469445846392,0.9917482735105084,1.1035472540314502,-0.8833557986389791,high,high,,ISIC_7212271.JPG,9,ISIC_0071754.JPG,28,31,false,0.13,hh,keypress(i),0,false,708201.2999999523,708200.9000000954,705248.198,705499.9000000954,705264.771,707967.513,5,600,12,
break,html.Screen,10_11_1,2024-03-19T19:55:25.825Z,,,,,,,,,,,NaN,,,,,,,,high,high,,,,,,,false,,,,,false,708202.4000000954,708202.0999999046,,708201.5999999046,,707967.513,5,600,,
break_continue,html.Screen,10_11_2,2024-03-19T19:55:25.826Z,,,,,,,,,,,NaN,,,,,,,,high,high,,,,,,,false,,,,,false,708203.0999999046,708202.9000000954,,708202.5999999046,,707967.513,5,600,,
sequence,flow.Sequence,10_11,2024-03-19T19:55:25.826Z,,,,,,,,,,,2938.1290000954177,completion,,,,,,,high,high,,,,,,,false,,,,,false,708203.5,708202.9000000954,705248.198,705499.7999999523,705264.771,707967.513,5,600,,
trial,html.Screen,10_12_0,2024-03-19T19:55:31.583Z,,,,1,0.0086413421586899,0.0360184993500958,,0.04,true,lh,5992.486999999965,response,-0.8015753713975186,1.0233152813187443,-0.8103469445846392,1.0067065355978264,1.1035472540314502,-0.8833557986389791,low,high,,ISIC_0010767.JPG,10,ISIC_0002119.JPG,28,26,false,0.15000000000000002,lh,keypress(e),0,false,713960.2000000477,713960,707950.775,708203.7000000477,707967.513,713723.2,5,600,13,
break,html.Screen,10_12_1,2024-03-19T19:55:31.583Z,,,,,,,,,,,NaN,,,,,,,,low,high,,,,,,,false,,,,,false,713960.5,713960.4000000954,,713960.2000000477,,713723.2,5,600,,
break_continue,html.Screen,10_12_2,2024-03-19T19:55:31.584Z,,,,,,,,,,,NaN,,,,,,,,low,high,,,,,,,false,,,,,false,713960.5999999046,713960.5999999046,,713960.5,,713723.2,5,600,,
sequence,flow.Sequence,10_12,2024-03-19T19:55:31.584Z,,,,,,,,,,,5993.086999904597,completion,,,,,,,low,high,,,,,,,false,,,,,false,713960.7000000477,713960.5999999046,707950.775,708203.5999999046,707967.513,713723.2,5,600,,
trial,html.Screen,10_13_0,2024-03-19T19:55:41.233Z,,,,1,-0.0118555311043871,-0.0087774532070196,,0.04,false,ll,9886.099999952363,response,-0.8800173162815772,1.0233152813187443,-0.8103469445846392,-0.912069987718464,1.1035472540314502,-0.8833557986389791,low,low,,ISIC_6488658.JPG,8,ISIC_0030852.JPG,28,56,false,0.1,lh,keypress(e),0,false,723609.5999999046,723609.2999999523,713706.578,713960.7000000477,713723.2,723382.774,5,600,14,
break,html.Screen,10_13_1,2024-03-19T19:55:41.234Z,,,,,,,,,,,NaN,,,,,,,,low,low,,,,,,,false,,,,,false,723610.7000000477,723610.5,,723610,,723382.774,5,600,,
break_continue,html.Screen,10_13_2,2024-03-19T19:55:41.235Z,,,,,,,,,,,NaN,,,,,,,,low,low,,,,,,,false,,,,,false,723611.4000000954,723611.2000000477,,723610.9000000954,,723382.774,5,600,,
sequence,flow.Sequence,10_13,2024-03-19T19:55:41.235Z,,,,,,,,,,,9888.00000004773,completion,,,,,,,low,low,,,,,,,false,,,,,false,723611.7000000477,723611.2000000477,713706.578,713960.7000000477,713723.2,723382.774,5,600,,
trial,html.Screen,10_14_0,2024-03-19T19:55:44.576Z,,,,1,0.0321039635696159,0.020496766286318,,0.04,true,ll,3569.226000000024,response,-0.838609817323933,1.0233152813187443,-0.8103469445846392,-0.8422150101593281,1.1035472540314502,-0.8833557986389791,low,low,,ISIC_0058063.JPG,9,ISIC_0009913.JPG,28,56,false,0.1,ll,keypress(f),0,false,726952.0999999046,726952,723366.109,723612,723382.774,726719.666,5,600,15,
break,html.Screen,10_14_1,2024-03-19T19:55:44.576Z,,,,,,,,,,,NaN,,,,,,,,low,low,,,,,,,false,,,,,false,726952.5,726952.4000000954,,726952.2000000477,,726719.666,5,600,,
break_continue,html.Screen,10_14_2,2024-03-19T19:55:44.576Z,,,,,,,,,,,NaN,,,,,,,,low,low,,,,,,,false,,,,,false,726952.7000000477,726952.7000000477,,726952.5,,726719.666,5,600,,
sequence,flow.Sequence,10_14,2024-03-19T19:55:44.576Z,,,,,,,,,,,3569.926000047708,completion,,,,,,,low,low,,,,,,,false,,,,,false,726952.7000000477,726952.7000000477,723366.109,723611.7999999523,723382.774,726719.666,5,600,,
trial,html.Screen,10_15_0,2024-03-19T19:55:57.407Z,,,,1,0.0199897690678184,0.0312486875504497,,0.04,false,lh,13063.933999904664,response,-0.6960100190659906,1.0233152813187443,-0.8103469445846392,1.12267859423828,1.1035472540314502,-0.8833557986389791,low,high,,ISIC_5482426.JPG,8,ISIC_0062702.JPG,28,26,false,0.15000000000000002,hh,keypress(i),0,false,739783.7999999523,739783.5999999046,726702.686,726952.7999999523,726719.666,739548.9,5,600,16,
break,html.Screen,10_15_1,2024-03-19T19:55:57.408Z,,,,,,,,,,,NaN,,,,,,,,low,high,,,,,,,false,,,,,false,739784.0999999046,739784,,739783.7999999523,,739548.9,5,600,,
break_continue,html.Screen,10_15_2,2024-03-19T19:55:57.408Z,,,,,,,,,,,NaN,,,,,,,,low,high,,,,,,,false,,,,,false,739784.2999999523,739784.2000000477,,739784.2000000477,,739548.9,5,600,,
sequence,flow.Sequence,10_15,2024-03-19T19:55:57.408Z,,,,,,,,,,,13064.534000047715,completion,,,,,,,low,high,,,,,,,false,,,,,false,739784.4000000954,739784.2000000477,726702.686,726952.7999999523,726719.666,739548.9,5,600,,
trial,html.Screen,10_16_0,2024-03-19T19:55:59.859Z,,,,1,-0.00126575685933,-0.0325046559638838,,0.04,true,ll,2686.1999999046093,response,-0.8628696237203484,1.0233152813187443,-0.8103469445846392,-0.9684635118197058,1.1035472540314502,-0.8833557986389791,low,low,,ISIC_5682259.JPG,8,ISIC_0015132.JPG,28,56,false,0.1,ll,keypress(f),0,false,742235.7999999523,742235.0999999046,739532.293,739784.4000000954,739548.9,742001.28,5,600,17,
break,html.Screen,10_16_1,2024-03-19T19:55:59.861Z,,,,,,,,,,,NaN,,,,,,,,low,low,,,,,,,false,,,,,false,742237.7000000477,742237.4000000954,,742236.5,,742001.28,5,600,,
break_continue,html.Screen,10_16_2,2024-03-19T19:55:59.862Z,,,,,,,,,,,NaN,,,,,,,,low,low,,,,,,,false,,,,,false,742238,742237.9000000954,,742237.7999999523,,742001.28,5,600,,
sequence,flow.Sequence,10_16,2024-03-19T19:55:59.862Z,,,,,,,,,,,2689.000000095344,completion,,,,,,,low,low,,,,,,,false,,,,,false,742238.4000000954,742237.9000000954,739532.293,739784.4000000954,739548.9,742001.28,5,600,,
trial,html.Screen,10_17_0,2024-03-19T19:56:06.529Z,,,,1,-0.0118555311043871,-0.0087774532070196,,0.04,true,hh,6903.719999999972,response,1.1510001454240106,1.0233152813187443,-0.8103469445846392,1.132540312667795,1.1035472540314502,-0.8833557986389791,high,high,,ISIC_6488658.JPG,8,ISIC_0009959.JPG,28,31,false,0.13,hh,keypress(i),0,false,748905.2999999523,748905,741984.777,742238.5,742001.28,748674.674,5,600,18,
break,html.Screen,10_17_1,2024-03-19T19:56:06.530Z,,,,,,,,,,,NaN,,,,,,,,high,high,,,,,,,false,,,,,false,748906.4000000954,748906.2000000477,,748905.7000000477,,748674.674,5,600,,
break_continue,html.Screen,10_17_2,2024-03-19T19:56:06.531Z,,,,,,,,,,,NaN,,,,,,,,high,high,,,,,,,false,,,,,false,748907.2000000477,748906.9000000954,,748906.7000000477,,748674.674,5,600,,
sequence,flow.Sequence,10_17,2024-03-19T19:56:06.531Z,,,,,,,,,,,6905.6200000953395,completion,,,,,,,high,high,,,,,,,false,,,,,false,748907.4000000954,748906.9000000954,741984.777,742238.4000000954,742001.28,748674.674,5,600,,
trial,html.Screen,10_18_0,2024-03-19T19:56:11.633Z,,,,1,0.0051046740562181,-0.0178832721027728,,0.04,true,lh,5334.726000095368,response,-0.7871162143493278,1.0233152813187443,-0.8103469445846392,1.2153707004941214,1.1035472540314502,-0.8833557986389791,low,high,,ISIC_9545819.JPG,9,ISIC_3439215.JPG,28,26,false,0.15000000000000002,lh,keypress(e),0,false,754009.7000000477,754009.4000000954,748658.042,748907.7000000477,748674.674,753779.982,5,600,19,
break,html.Screen,10_18_1,2024-03-19T19:56:11.634Z,,,,,,,,,,,NaN,,,,,,,,low,high,,,,,,,false,,,,,false,754010.7999999523,754010.5999999046,,754010.0999999046,,753779.982,5,600,,
break_continue,html.Screen,10_18_2,2024-03-19T19:56:11.635Z,,,,,,,,,,,NaN,,,,,,,,low,high,,,,,,,false,,,,,false,754011.5999999046,754011.4000000954,,754011.0999999046,,753779.982,5,600,,
sequence,flow.Sequence,10_18,2024-03-19T19:56:11.635Z,,,,,,,,,,,5336.726000095368,completion,,,,,,,low,high,,,,,,,false,,,,,false,754011.9000000954,754011.4000000954,748658.042,748907.5999999046,748674.674,753779.982,5,600,,
trial,html.Screen,10_19_0,2024-03-19T19:56:20.673Z,,,,1,-0.0077673378094614,-0.0021810768579373,,0.04,false,ll,9269.218000047724,response,-0.8223148058609743,1.0233152813187443,-0.8103469445846392,-0.8873094399918428,1.1035472540314502,-0.8833557986389791,low,low,,ISIC_0067621.JPG,9,ISIC_0011356.JPG,28,56,false,0.1,hh,keypress(i),0,false,763049.5,763049.2000000477,753763.083,754012.0999999046,753779.982,762805.473,5,600,20,
break,html.Screen,10_19_1,2024-03-19T19:56:20.674Z,,,,,,,,,,,NaN,,,,,,,,low,low,,,,,,,false,,,,,false,763050.5999999046,763050.2999999523,,763049.7999999523,,762805.473,5,600,,
break_continue,html.Screen,10_19_2,2024-03-19T19:56:20.675Z,,,,,,,,,,,NaN,,,,,,,,low,low,,,,,,,false,,,,,false,763051.4000000954,763051.0999999046,,763050.9000000954,,762805.473,5,600,,
sequence,flow.Sequence,10_19,2024-03-19T19:56:20.675Z,,,,,,,,,,,9271.117999904673,completion,,,,,,,low,low,,,,,,,false,,,,,false,763051.7000000477,763051.0999999046,753763.083,754012.0999999046,753779.982,762805.473,5,600,,
trial,html.Screen,10_20_0,2024-03-19T19:56:23.440Z,,,,1,-0.0350697500805515,-0.0166617848231997,,0.04,false,lh,3010.527000000002,response,-0.9212323139676136,1.0233152813187443,-0.8103469445846392,0.9882196642247332,1.1035472540314502,-0.8833557986389791,low,high,,ISIC_0024423.JPG,9,ISIC_0014255.JPG,28,26,false,0.15000000000000002,ll,keypress(f),0,false,765816.0999999046,765816,762788.731,763052,762805.473,765574.843,5,600,21,
break,html.Screen,10_20_1,2024-03-19T19:56:23.440Z,,,,,,,,,,,NaN,,,,,,,,low,high,,,,,,,false,,,,,false,765816.5,765816.4000000954,,765816.2999999523,,765574.843,5,600,,
break_continue,html.Screen,10_20_2,2024-03-19T19:56:23.440Z,,,,,,,,,,,NaN,,,,,,,,low,high,,,,,,,false,,,,,false,765816.7999999523,765816.7000000477,,765816.5999999046,,765574.843,5,600,,
sequence,flow.Sequence,10_20,2024-03-19T19:56:23.440Z,,,,,,,,,,,3011.2270000476856,completion,,,,,,,low,high,,,,,,,false,,,,,false,765816.7999999523,765816.7000000477,762788.731,763051.9000000954,762805.473,765574.843,5,600,,
trial,html.Screen,10_21_0,2024-03-19T19:56:28.737Z,,,,1,0.0199897690678184,0.0312486875504497,,0.04,false,lh,5538.1570000000065,response,-0.6664216411092332,1.0233152813187443,-0.8103469445846392,1.0200778943729398,1.1035472540314502,-0.8833557986389791,low,high,,ISIC_5482426.JPG,10,ISIC_8785329.JPG,28,26,false,0.15000000000000002,ll,keypress(f),0,false,771113.2999999523,771113,765558.363,765817,765574.843,770880.126,5,600,22,
break,html.Screen,10_21_1,2024-03-19T19:56:28.738Z,,,,,,,,,,,NaN,,,,,,,,low,high,,,,,,,false,,,,,false,771114.5,771114.2000000477,,771113.7000000477,,770880.126,5,600,,
break_continue,html.Screen,10_21_2,2024-03-19T19:56:28.739Z,,,,,,,,,,,NaN,,,,,,,,low,high,,,,,,,false,,,,,false,771115.2000000477,771115,,771114.7999999523,,770880.126,5,600,,
sequence,flow.Sequence,10_21,2024-03-19T19:56:28.739Z,,,,,,,,,,,5540.1570000000065,completion,,,,,,,low,high,,,,,,,false,,,,,false,771115.5,771115,765558.363,765817,765574.843,770880.126,5,600,,
trial,html.Screen,10_22_0,2024-03-19T19:56:32.432Z,,,,1,-0.0071892445601978,0.0246015408628738,,0.04,true,hh,3927.77400009532,response,1.011737552725394,1.0233152813187443,-0.8103469445846392,1.0893360711742854,1.1035472540314502,-0.8833557986389791,high,high,,ISIC_0014133.JPG,9,ISIC_2998367.JPG,28,31,false,0.13,hh,keypress(i),0,false,774808,774807.9000000954,770863.586,771115.7999999523,770880.126,774567.155,5,600,23,
break,html.Screen,10_22_1,2024-03-19T19:56:32.432Z,,,,,,,,,,,NaN,,,,,,,,high,high,,,,,,,false,,,,,false,774808.5,774808.4000000954,,774808.2000000477,,774567.155,5,600,,
break_continue,html.Screen,10_22_2,2024-03-19T19:56:32.432Z,,,,,,,,,,,NaN,,,,,,,,high,high,,,,,,,false,,,,,false,774808.7999999523,774808.7000000477,,774808.5999999046,,774567.155,5,600,,
sequence,flow.Sequence,10_22,2024-03-19T19:56:32.432Z,,,,,,,,,,,3928.574000047636,completion,,,,,,,high,high,,,,,,,false,,,,,false,774808.9000000954,774808.7000000477,770863.586,771115.7000000477,770880.126,774567.155,5,600,,
trial,html.Screen,10_23_0,2024-03-19T19:56:35.873Z,,,,1,0.0199897690678184,0.0312486875504497,,0.04,true,hh,3682.2450000953395,response,0.9949679201447648,1.0233152813187443,-0.8103469445846392,1.0468574143792184,1.1035472540314502,-0.8833557986389791,high,high,,ISIC_5482426.JPG,8,ISIC_6640753.JPG,28,31,false,0.13,hh,keypress(i),0,false,778249.7000000477,778249.4000000954,774550.61,774809,774567.155,778021.051,5,600,24,
break,html.Screen,10_23_1,2024-03-19T19:56:35.874Z,,,,,,,,,,,NaN,,,,,,,,high,high,,,,,,,false,,,,,false,778250.7999999523,778250.5999999046,,778250.0999999046,,778021.051,5,600,,
break_continue,html.Screen,10_23_2,2024-03-19T19:56:35.875Z,,,,,,,,,,,NaN,,,,,,,,high,high,,,,,,,false,,,,,false,778251.5999999046,778251.2999999523,,778251,,778021.051,5,600,,
sequence,flow.Sequence,10_23,2024-03-19T19:56:35.875Z,,,,,,,,,,,3684.1449999522883,completion,,,,,,,high,high,,,,,,,false,,,,,false,778251.7999999523,778251.2999999523,774550.61,774809,774567.155,778021.051,5,600,,
trial,html.Screen,10_24_0,2024-03-19T19:56:38.193Z,,,,1,-0.012020985739544,0.0126097407389903,,0.04,true,ll,2547.9490000000224,response,-0.8189159620098805,1.0233152813187443,-0.8103469445846392,-0.8194695407784734,1.1035472540314502,-0.8833557986389791,low,low,,ISIC_0069379.JPG,8,ISIC_0034101.JPG,28,56,false,0.1,ll,keypress(f),0,false,780569.2999999523,780569,777987.422,778252.0999999046,778021.051,780339.814,5,600,25,
break,html.Screen,10_24_1,2024-03-19T19:56:38.194Z,,,,,,,,,,,NaN,,,,,,,,low,low,,,,,,,false,,,,,false,780570.4000000954,780570.0999999046,,780569.7000000477,,780339.814,5,600,,
break_continue,html.Screen,10_24_2,2024-03-19T19:56:38.195Z,,,,,,,,,,,NaN,,,,,,,,low,low,,,,,,,false,,,,,false,780571.0999999046,780570.9000000954,,780570.7000000477,,780339.814,5,600,,
sequence,flow.Sequence,10_24,2024-03-19T19:56:38.195Z,,,,,,,,,,,2549.84900009539,completion,,,,,,,low,low,,,,,,,false,,,,,false,780571.4000000954,780570.9000000954,777987.422,778252,778021.051,780339.814,5,600,,
trial,html.Screen,10_25_0,2024-03-19T19:56:44.577Z,,,,1,0.0127320821962457,-0.0315308940184827,,0.04,true,hl,6613.386000047671,response,0.9087169856594104,1.0233152813187443,-0.8103469445846392,-0.8835647084207277,1.1035472540314502,-0.8833557986389791,high,low,,ISIC_8156101.JPG,9,ISIC_0000349.JPG,28,25,false,0.17000000000000004,hl,keypress(j),0,false,786953.5999999046,786953.2000000477,780323.02,780571.5999999046,780339.814,786712.595,5,600,26,
break,html.Screen,10_25_1,2024-03-19T19:56:44.579Z,,,,,,,,,,,NaN,,,,,,,,high,low,,,,,,,false,,,,,false,786955.0999999046,786954.7999999523,,786954.0999999046,,786712.595,5,600,,
break_continue,html.Screen,10_25_2,2024-03-19T19:56:44.580Z,,,,,,,,,,,NaN,,,,,,,,high,low,,,,,,,false,,,,,false,786956,786955.7000000477,,786955.5,,786712.595,5,600,,
sequence,flow.Sequence,10_25,2024-03-19T19:56:44.580Z,,,,,,,,,,,6615.886000047671,completion,,,,,,,high,low,,,,,,,false,,,,,false,786956.5,786955.7000000477,780323.02,780571.5999999046,780339.814,786712.595,5,600,,
trial,html.Screen,10_26_0,2024-03-19T19:56:46.655Z,,,,1,0.0051046740562181,-0.0178832721027728,,0.04,true,ll,2319.0049999046605,response,-0.8172719099003396,1.0233152813187443,-0.8103469445846392,-0.8014701937077862,1.1035472540314502,-0.8833557986389791,low,low,,ISIC_9545819.JPG,9,ISIC_0011794.JPG,28,56,false,0.1,ll,keypress(f),0,false,789031.7999999523,789031.5999999046,786696.125,786956.7999999523,786712.595,788798.048,5,600,27,
break,html.Screen,10_26_1,2024-03-19T19:56:46.656Z,,,,,,,,,,,NaN,,,,,,,,low,low,,,,,,,false,,,,,false,789032.2999999523,789032.2000000477,,789032,,788798.048,5,600,,
break_continue,html.Screen,10_26_2,2024-03-19T19:56:46.656Z,,,,,,,,,,,NaN,,,,,,,,low,low,,,,,,,false,,,,,false,789032.5999999046,789032.5,,789032.5,,788798.048,5,600,,
sequence,flow.Sequence,10_26,2024-03-19T19:56:46.656Z,,,,,,,,,,,2319.905000000028,completion,,,,,,,low,low,,,,,,,false,,,,,false,789032.5999999046,789032.5,786696.125,786956.7000000477,786712.595,788798.048,5,600,,
trial,html.Screen,10_27_0,2024-03-19T19:56:54.095Z,,,,1,-0.0057914759495055,0.018500200317654,,0.04,true,lh,7673.551999904681,response,-0.7450700429395554,1.0233152813187443,-0.8103469445846392,1.1659665266603083,1.1035472540314502,-0.8833557986389791,low,high,,ISIC_0058723.JPG,9,ISIC_3736075.JPG,28,26,false,0.15000000000000002,lh,keypress(e),0,false,796471.7000000477,796471.5999999046,788781.483,789032.7000000477,788798.048,796238.792,5,600,28,
break,html.Screen,10_27_1,2024-03-19T19:56:54.096Z,,,,,,,,,,,NaN,,,,,,,,low,high,,,,,,,false,,,,,false,796472.0999999046,796472,,796471.9000000954,,796238.792,5,600,,
break_continue,html.Screen,10_27_2,2024-03-19T19:56:54.096Z,,,,,,,,,,,NaN,,,,,,,,low,high,,,,,,,false,,,,,false,796472.2999999523,796472.2000000477,,796472.2000000477,,796238.792,5,600,,
sequence,flow.Sequence,10_27,2024-03-19T19:56:54.096Z,,,,,,,,,,,7674.152000047732,completion,,,,,,,low,high,,,,,,,false,,,,,false,796472.4000000954,796472.2000000477,788781.483,789032.7000000477,788798.048,796238.792,5,600,,
trial,html.Screen,10_28_0,2024-03-19T19:56:57.392Z,,,,1,-0.0057914759495055,0.018500200317654,,0.04,true,hh,3529.1080000953516,response,0.9490045439645592,1.0233152813187443,-0.8103469445846392,1.21751560785155,1.1035472540314502,-0.8833557986389791,high,high,,ISIC_0058723.JPG,9,ISIC_3779424.JPG,28,31,false,0.13,hh,keypress(i),0,false,799768,799767.9000000954,796222.235,796472.4000000954,796238.792,799525.404,5,600,29,
break,html.Screen,10_28_1,2024-03-19T19:56:57.392Z,,,,,,,,,,,NaN,,,,,,,,high,high,,,,,,,false,,,,,false,799768.4000000954,799768.2999999523,,799768.0999999046,,799525.404,5,600,,
break_continue,html.Screen,10_28_2,2024-03-19T19:56:57.392Z,,,,,,,,,,,NaN,,,,,,,,high,high,,,,,,,false,,,,,false,799768.5,799768.5,,799768.4000000954,,799525.404,5,600,,
sequence,flow.Sequence,10_28,2024-03-19T19:56:57.392Z,,,,,,,,,,,3529.707999999984,completion,,,,,,,high,high,,,,,,,false,,,,,false,799768.5999999046,799768.5,796222.235,796472.4000000954,796238.792,799525.404,5,600,,
trial,html.Screen,10_29_0,2024-03-19T19:57:01.681Z,,,,1,-0.0166849894750452,0.0371614812368835,,0.04,false,hl,4531.59600000002,response,0.931876071706936,1.0233152813187443,-0.8103469445846392,-0.7205780326045168,1.1035472540314502,-0.8833557986389791,high,low,,ISIC_6231450.JPG,10,ISIC_0032426.JPG,28,25,false,0.17000000000000004,lh,keypress(e),0,false,804057.4000000954,804057,799508.749,799768.7000000477,799525.404,803813.084,5,600,30,
break,html.Screen,10_29_1,2024-03-19T19:57:01.682Z,,,,,,,,,,,NaN,,,,,,,,high,low,,,,,,,false,,,,,false,804058.5,804058.2000000477,,804057.7000000477,,803813.084,5,600,,
break_continue,html.Screen,10_29_2,2024-03-19T19:57:01.683Z,,,,,,,,,,,NaN,,,,,,,,high,low,,,,,,,false,,,,,false,804059.2999999523,804059,,804058.7999999523,,803813.084,5,600,,
sequence,flow.Sequence,10_29,2024-03-19T19:57:01.683Z,,,,,,,,,,,4533.59600000002,completion,,,,,,,high,low,,,,,,,false,,,,,false,804059.5999999046,804059,799508.749,799768.7000000477,799525.404,803813.084,5,600,,
trial,html.Screen,10_30_0,2024-03-19T19:57:09.073Z,,,,1,0.0086413421586899,0.0360184993500958,,0.04,false,hl,7636.215999952285,response,1.1343164084491792,1.0233152813187443,-0.8103469445846392,-0.7599392888539781,1.1035472540314502,-0.8833557986389791,high,low,,ISIC_0010767.JPG,9,ISIC_0032265.JPG,28,25,false,0.17000000000000004,ll,keypress(f),0,false,811449.5999999046,811449.2999999523,803796.272,804059.7999999523,803813.084,811221.296,5,600,31,
break,html.Screen,10_30_1,2024-03-19T19:57:09.074Z,,,,,,,,,,,NaN,,,,,,,,high,low,,,,,,,false,,,,,false,811450.7000000477,811450.5,,811450,,811221.296,5,600,,
break_continue,html.Screen,10_30_2,2024-03-19T19:57:09.075Z,,,,,,,,,,,NaN,,,,,,,,high,low,,,,,,,false,,,,,false,811451.2999999523,811451.0999999046,,811450.9000000954,,811221.296,5,600,,
sequence,flow.Sequence,10_30,2024-03-19T19:57:09.075Z,,,,,,,,,,,7638.015999904601,completion,,,,,,,high,low,,,,,,,false,,,,,false,811451.5999999046,811451.0999999046,803796.272,804059.7999999523,803813.084,811221.296,5,600,,
trial,html.Screen,10_31_0,2024-03-19T19:57:14.673Z,,,,1,0.010035581303589,-0.0100711721396864,,0.04,true,lh,5827.904000047711,response,-0.8407642478899736,1.0233152813187443,-0.8103469445846392,0.9542322753334054,1.1035472540314502,-0.8833557986389791,low,high,,ISIC_0030592.JPG,10,ISIC_9090822.JPG,28,26,false,0.15000000000000002,lh,keypress(e),0,false,817049.5,817049.2000000477,811187.147,811451.9000000954,811221.296,816809.305,5,600,32,
break,html.Screen,10_31_1,2024-03-19T19:57:14.674Z,,,,,,,,,,,NaN,,,,,,,,low,high,,,,,,,false,,,,,false,817050.5999999046,817050.4000000954,,817049.9000000954,,816809.305,5,600,,
break_continue,html.Screen,10_31_2,2024-03-19T19:57:14.675Z,,,,,,,,,,,NaN,,,,,,,,low,high,,,,,,,false,,,,,false,817051.2999999523,817051,,817050.7999999523,,816809.305,5,600,,
sequence,flow.Sequence,10_31,2024-03-19T19:57:14.675Z,,,,,,,,,,,5829.704000000027,completion,,,,,,,low,high,,,,,,,false,,,,,false,817051.5999999046,817051,811187.147,811451.7999999523,811221.296,816809.305,5,600,,
trial,html.Screen,10_32_0,2024-03-19T19:57:18.065Z,,,,1,0.0367218428225813,-0.0026956749740767,,0.04,true,hh,3631.7949999045813,response,1.011737552725394,1.0233152813187443,-0.8103469445846392,1.0893360711742854,1.1035472540314502,-0.8833557986389791,high,high,,ISIC_7212271.JPG,9,ISIC_2998367.JPG,28,31,false,0.13,hh,keypress(i),0,false,820441.4000000954,820441.0999999046,816792.825,817051.7999999523,816809.305,820213.722,5,600,33,
break,html.Screen,10_32_1,2024-03-19T19:57:18.066Z,,,,,,,,,,,NaN,,,,,,,,high,high,,,,,,,false,,,,,false,820442.5,820442.4000000954,,820441.7999999523,,820213.722,5,600,,
break_continue,html.Screen,10_32_2,2024-03-19T19:57:18.067Z,,,,,,,,,,,NaN,,,,,,,,high,high,,,,,,,false,,,,,false,820443.2999999523,820443.0999999046,,820442.7999999523,,820213.722,5,600,,
sequence,flow.Sequence,10_32,2024-03-19T19:57:18.067Z,,,,,,,,,,,3633.7949999045813,completion,,,,,,,high,high,,,,,,,false,,,,,false,820443.5999999046,820443.0999999046,816792.825,817051.7999999523,816809.305,820213.722,5,600,,
trial,html.Screen,10_33_0,2024-03-19T19:57:22.193Z,,,,1,0.0127320821962457,-0.0315308940184827,,0.04,false,hl,4355.577999952366,response,1.1343164084491792,1.0233152813187443,-0.8103469445846392,-0.7599392888539781,1.1035472540314502,-0.8833557986389791,high,low,,ISIC_8156101.JPG,9,ISIC_0032265.JPG,28,25,false,0.17000000000000004,ll,keypress(f),0,false,824569.5999999046,824569.2999999523,820179.539,820443.7999999523,820213.722,824333.551,5,600,34,
break,html.Screen,10_33_1,2024-03-19T19:57:22.194Z,,,,,,,,,,,NaN,,,,,,,,high,low,,,,,,,false,,,,,false,824570.7000000477,824570.5,,824570.0999999046,,824333.551,5,600,,
break_continue,html.Screen,10_33_2,2024-03-19T19:57:22.195Z,,,,,,,,,,,NaN,,,,,,,,high,low,,,,,,,false,,,,,false,824571.5,824571.2000000477,,824570.9000000954,,824333.551,5,600,,
sequence,flow.Sequence,10_33,2024-03-19T19:57:22.195Z,,,,,,,,,,,4357.478000047733,completion,,,,,,,high,low,,,,,,,false,,,,,false,824571.7999999523,824571.2000000477,820179.539,820443.7999999523,820213.722,824333.551,5,600,,
trial,html.Screen,10_34_0,2024-03-19T19:57:27.904Z,,,,1,0.0199897690678184,0.0312486875504497,,0.04,true,ll,5946.34900009539,response,-0.8161955089001555,1.0233152813187443,-0.8103469445846392,-0.8163157349016503,1.1035472540314502,-0.8833557986389791,low,low,,ISIC_5482426.JPG,9,ISIC_0030139.JPG,28,56,false,0.1,ll,keypress(f),0,false,830280.0999999046,830279.9000000954,824316.868,824572,824333.551,830039.224,5,600,35,
break,html.Screen,10_34_1,2024-03-19T19:57:27.904Z,,,,,,,,,,,NaN,,,,,,,,low,low,,,,,,,false,,,,,false,830280.5,830280.4000000954,,830280.0999999046,,830039.224,5,600,,
break_continue,html.Screen,10_34_2,2024-03-19T19:57:27.904Z,,,,,,,,,,,NaN,,,,,,,,low,low,,,,,,,false,,,,,false,830280.7000000477,830280.5999999046,,830280.5999999046,,830039.224,5,600,,
sequence,flow.Sequence,10_34,2024-03-19T19:57:27.904Z,,,,,,,,,,,5947.048999904655,completion,,,,,,,low,low,,,,,,,false,,,,,false,830280.7999999523,830280.5999999046,824316.868,824571.9000000954,824333.551,830039.224,5,600,,
trial,html.Screen,10_35_0,2024-03-19T19:57:36.577Z,,,,1,-0.0023664502831079,-0.0252784582169994,,0.04,true,hh,8913.875999904587,response,0.9462198986993904,1.0233152813187443,-0.8103469445846392,1.067111862128132,1.1035472540314502,-0.8833557986389791,high,high,,ISIC_4156010.JPG,9,ISIC_3564461.JPG,28,31,false,0.13,hh,keypress(i),0,false,838953.4000000954,838953.0999999046,830022.729,830280.9000000954,830039.224,838714.489,5,600,36,
break,html.Screen,10_35_1,2024-03-19T19:57:36.578Z,,,,,,,,,,,NaN,,,,,,,,high,high,,,,,,,false,,,,,false,838954.5,838954.2999999523,,838953.7999999523,,838714.489,5,600,,
break_continue,html.Screen,10_35_2,2024-03-19T19:57:36.579Z,,,,,,,,,,,NaN,,,,,,,,high,high,,,,,,,false,,,,,false,838955.2999999523,838955.0999999046,,838954.7999999523,,838714.489,5,600,,
sequence,flow.Sequence,10_35,2024-03-19T19:57:36.579Z,,,,,,,,,,,8915.875999904587,completion,,,,,,,high,high,,,,,,,false,,,,,false,838955.5999999046,838955.0999999046,830022.729,830280.7999999523,830039.224,838714.489,5,600,,
trial,html.Screen,10_36_0,2024-03-19T19:57:52.289Z,,,,1,0.0086413421586899,0.0360184993500958,,0.04,true,hl,15949.21100004774,response,0.9087169856594104,1.0233152813187443,-0.8103469445846392,-0.8835647084207277,1.1035472540314502,-0.8833557986389791,high,low,,ISIC_0010767.JPG,9,ISIC_0000349.JPG,28,25,false,0.17000000000000004,hl,keypress(j),0,false,854663.9000000954,854663.7000000477,838697.899,838955.7999999523,838714.489,854430.432,5,600,37,
break,html.Screen,10_36_1,2024-03-19T19:57:52.289Z,,,,,,,,,,,NaN,,,,,,,,high,low,,,,,,,false,,,,,false,854664.2000000477,854664.2000000477,,854664,,854430.432,5,600,,
break_continue,html.Screen,10_36_2,2024-03-19T19:57:52.289Z,,,,,,,,,,,NaN,,,,,,,,high,low,,,,,,,false,,,,,false,854664.2999999523,854664.2999999523,,854664.2000000477,,854430.432,5,600,,
sequence,flow.Sequence,10_36,2024-03-19T19:57:52.289Z,,,,,,,,,,,15949.810999952373,completion,,,,,,,high,low,,,,,,,false,,,,,false,854664.4000000954,854664.2999999523,838697.899,838955.7000000477,838714.489,854430.432,5,600,,
trial,html.Screen,10_37_0,2024-03-19T19:57:54.642Z,,,,1,0.0361875505619981,-0.0291457404567876,,0.04,false,hl,2586.56799999997,response,1.064425982109969,1.0233152813187443,-0.8103469445846392,-0.958564243697126,1.1035472540314502,-0.8833557986389791,high,low,,ISIC_0027480.JPG,8,ISIC_3203344.JPG,28,25,false,0.17000000000000004,hh,keypress(i),0,false,857017.2000000477,857017,854413.727,854664.5,854430.432,856782.804,5,600,38,
break,html.Screen,10_37_1,2024-03-19T19:57:54.643Z,,,,,,,,,,,NaN,,,,,,,,high,low,,,,,,,false,,,,,false,857017.9000000954,857017.7999999523,,857017.7000000477,,856782.804,5,600,,
