sender,sender_type,sender_id,timestamp,meta,,age,blockNo,c1,c2,condition,control_tolerance,correct,correctResponse,duration,ended_on,f1,f1_high,f1_low,f2,f2_high,f2_low,feature_level1,feature_level2,gender,img_left,img_reveal,img_right,n_control_images,n_target_images,practice,range_tolerance,response,response_action,selection_duration,staircase,time_commit,time_end,time_render,time_run,time_show,time_switch,total_blocks,total_trials,trialNo,url
informed_consent,html.Screen,0,2023-11-27T19:00:11.822Z,"{""labjs_version"":""20.2.4"",""labjs_build"":{""flavor"":""development"",""commit"":""f5b4a49f956347addd546a832a3327688c2c0fef""},""location"":""https://labjs.felixhenninger.com/api/labjs_preview/index.html"",""userAgent"":""Mozilla/5.0 (Windows NT 10.0; Win64; x64) AppleWebKit/537.36 (KHTML, like Gecko) Chrome/119.0.0.0 Safari/537.36"",""platform"":""Win32"",""language"":""en-US"",""locale"":""en-US"",""timeZone"":""America/Chicago"",""timezoneOffset"":360,""screen_width"":1920,""screen_height"":1080,""scroll_width"":945,""scroll_height"":918,""window_innerWidth"":945,""window_innerHeight"":966,""devicePixelRatio"":1}",,,,,,,,,,23476.928999904634,response,,,,,,,,,,,,,,,,,consent,click button,,,24274.39999985695,24273.599999904633,779.911,777.2999999523163,796.671,24279.961,,,,{}
Demography form,html.Form,1,2023-11-27T19:00:18.655Z,,,18,,,,,,,,6826.838999952317,form submission,,,,,,,,,female,,,,,,,,,,,,31107,31106.799999952316,24263.5,24274.699999809265,24279.961,31130.059,,,,
Welcome,html.Screen,2,2023-11-27T19:00:59.871Z,,,,,,,"[""asym"",""col""]",,,,41191.34099985695,response,,,,,,,,,,,,,,,,,continue,click button,,,72322,72321.39999985695,31113.447,31107.099999904633,31130.059,72330.015,,,,
demo_instructions,html.Screen,3,2023-11-27T19:01:52.527Z,,,,,,,,,,,52647.485,response,,,,,,,,,,,,,,,,,continue,click button,,,124978.09999990463,124977.5,72313.459,72322.09999990463,72330.015,124996.734,,,,
trial,html.Screen,4_0_0,2023-11-27T19:02:02.372Z,,,,0,-1.3132505134129506,-1.0949928516457437,,,true,hh,9826.266000000003,response,1.1168199061753437,1.2,-1.2,1.212287319329914,1.2,-1.2,high,high,,ISIC_0066935.JPG,,ISIC_5919355.JPG,,25,true,0.15000000000000002,hh,keypress(i),100,false,134823.29999995232,134823,124963.528,124978.19999980927,124996.734,134846.786,1,16,1,
sequence,flow.Sequence,4_0,2023-11-27T19:02:02.387Z,,,,,,,,,,,9826.266000000003,completion,,,,,,,high,high,,,,,,,true,,,,,false,134837.69999980927,134823,124963.528,124978.19999980927,124996.734,134846.786,1,16,,
trial,html.Screen,4_1_0,2023-11-27T19:02:05.309Z,,,,0,-1.1783311757907324,-1.266840220031473,,,true,hh,2912.613999856956,response,1.053007132776416,1.2,-1.2,1.341217082060068,1.2,-1.2,high,high,,ISIC_8241457.JPG,,ISIC_0024208.JPG,,25,true,0.15000000000000002,hh,keypress(i),100,false,137759.59999990463,137759.39999985695,134830.143,134837.79999995232,134846.786,137780.326,1,16,2,
sequence,flow.Sequence,4_1,2023-11-27T19:02:05.309Z,,,,,,,,,,,2912.613999856956,completion,,,,,,,high,high,,,,,,,true,,,,,false,137759.89999985695,137759.39999985695,134830.143,134837.79999995232,134846.786,137780.326,1,16,,
trial,html.Screen,4_2_0,2023-11-27T19:02:10.853Z,,,,0,-1.2232482867978696,-1.2451219760556858,,,true,hh,5523.473999952315,response,1.0878102877901663,1.2,-1.2,1.3154097543539391,1.2,-1.2,high,high,,ISIC_0030889.JPG,,ISIC_1413242.JPG,,25,true,0.15000000000000002,hh,keypress(i),100,false,143304.09999990463,143303.79999995232,137763.452,137760,137780.326,143330.331,1,16,3,
sequence,flow.Sequence,4_2,2023-11-27T19:02:10.854Z,,,,,,,,,,,5523.473999952315,completion,,,,,,,high,high,,,,,,,true,,,,,false,143304.5,143303.79999995232,137763.452,137760,137780.326,143330.331,1,16,,
trial,html.Screen,4_3_0,2023-11-27T19:02:13.156Z,,,,0,-1.2055236989581275,-1.1960893075698802,,,true,hh,2275.8689998092595,response,1.294521945180264,1.2,-1.2,1.3078626540563885,1.2,-1.2,high,high,,ISIC_0072393.JPG,,ISIC_3601224.JPG,,25,true,0.15000000000000002,hh,keypress(i),100,false,145606.39999985695,145606.19999980927,143313.481,143304.69999980927,143330.331,145630.129,1,16,4,
sequence,flow.Sequence,4_3,2023-11-27T19:02:13.156Z,,,,,,,,,,,2275.8689998092595,completion,,,,,,,high,high,,,,,,,true,,,,,false,145606.79999995232,145606.19999980927,143313.481,143304.69999980927,143330.331,145630.129,1,16,,
trial,html.Screen,4_4_0,2023-11-27T19:02:22.125Z,,,,0,1.1990772227054871,1.1224329926844498,,,true,ll,8945.970999904646,response,-1.2232482867978696,1.2,-1.2,-1.2451219760556858,1.2,-1.2,low,low,,ISIC_3425388.JPG,,ISIC_0030889.JPG,,27,true,0.12,ll,keypress(f),100,false,154576.19999980927,154576.09999990463,145613.464,145606.79999995232,145630.129,154596.983,1,16,5,
sequence,flow.Sequence,4_4,2023-11-27T19:02:22.126Z,,,,,,,,,,,8945.970999904646,completion,,,,,,,low,low,,,,,,,true,,,,,false,154576.5,154576.09999990463,145613.464,145606.79999995232,145630.129,154596.983,1,16,,
trial,html.Screen,4_5_0,2023-11-27T19:02:25.381Z,,,,0,1.1510001454240106,1.132540312667795,,,true,ll,3233.9169998569414,response,-1.152619213055059,1.2,-1.2,-1.2957497771092716,1.2,-1.2,low,low,,ISIC_0009959.JPG,,ISIC_0061915.JPG,,41,true,0.15000000000000002,ll,keypress(f),100,false,157831.39999985695,157830.89999985695,154580.136,154576.5,154596.983,157846.848,1,16,6,
sequence,flow.Sequence,4_5,2023-11-27T19:02:25.381Z,,,,,,,,,,,3233.9169998569414,completion,,,,,,,low,low,,,,,,,true,,,,,false,157832,157830.89999985695,154580.136,154576.5,154596.983,157846.848,1,16,,
trial,html.Screen,4_6_0,2023-11-27T19:02:27.718Z,,,,0,1.212030980680325,1.139863018685685,,,true,ll,2322.2519999046344,response,-1.089914260719518,1.2,-1.2,-1.1695563571046357,1.2,-1.2,low,low,,ISIC_0008510.JPG,,ISIC_0030695.JPG,,41,true,0.15000000000000002,ll,keypress(f),100,false,160169.29999995232,160169.09999990463,157830.369,157832.19999980927,157846.848,160196.795,1,16,7,
sequence,flow.Sequence,4_6,2023-11-27T19:02:27.719Z,,,,,,,,,,,2322.2519999046344,completion,,,,,,,low,low,,,,,,,true,,,,,false,160169.5,160169.09999990463,157830.369,157832.09999990463,157846.848,160196.795,1,16,,
trial,html.Screen,4_7_0,2023-11-27T19:02:31.408Z,,,,0,1.1305948371148624,1.2802709447034604,,,true,ll,3662.0049999523035,response,-1.2435042401134029,1.2,-1.2,-1.2939710463315144,1.2,-1.2,low,low,,ISIC_5648111.JPG,,ISIC_0056119.JPG,,41,true,0.15000000000000002,ll,keypress(f),100,false,163859,163858.79999995232,160180.176,160169.59999990463,160196.795,163896.767,1,16,8,
sequence,flow.Sequence,4_7,2023-11-27T19:02:31.408Z,,,,,,,,,,,3662.0049999523035,completion,,,,,,,low,low,,,,,,,true,,,,,false,163859.09999990463,163858.79999995232,160180.176,160169.5,160196.795,163896.767,1,16,,
trial,html.Screen,4_8_0,2023-11-27T19:02:44.574Z,,,,0,0.8534691366511764,-1.276663727068437,,,true,lh,13127.532999952324,response,-1.2704198237183777,1.2,-1.2,1.138121072015301,1.2,-1.2,low,high,,ISIC_0056788.JPG,,ISIC_0501843.JPG,,26,true,0.3300000000000002,lh,keypress(e),100,false,177024.39999985695,177024.29999995232,163863.465,163859.09999990463,163896.767,177046.832,1,16,9,
sequence,flow.Sequence,4_8,2023-11-27T19:02:44.574Z,,,,,,,,,,,13127.532999952324,completion,,,,,,,low,high,,,,,,,true,,,,,false,177024.59999990463,177024.29999995232,163863.465,163859.09999990463,163896.767,177046.832,1,16,,
trial,html.Screen,4_9_0,2023-11-27T19:02:49.798Z,,,,0,1.4727776799485246,-0.8779113138076752,,,true,lh,5201.567999856954,response,-1.1592423187534993,1.2,-1.2,1.067128884093211,1.2,-1.2,low,high,,ISIC_0033074.JPG,,ISIC_6854940.JPG,,33,true,0.3600000000000002,lh,keypress(e),100,false,182248.59999990463,182248.39999985695,177030.156,177024.69999980927,177046.832,182280.138,1,16,10,
sequence,flow.Sequence,4_9,2023-11-27T19:02:49.798Z,,,,,,,,,,,5201.567999856954,completion,,,,,,,low,high,,,,,,,true,,,,,false,182248.79999995232,182248.39999985695,177030.156,177024.69999980927,177046.832,182280.138,1,16,,
trial,html.Screen,4_10_0,2023-11-27T19:02:54.214Z,,,,0,1.4748095371445096,-0.9579010801034902,,,true,lh,4384.561999809259,response,-1.055319394932912,1.2,-1.2,1.409116680310466,1.2,-1.2,low,high,,ISIC_0033216.JPG,,ISIC_6398669.JPG,,33,true,0.3600000000000002,lh,keypress(e),100,false,186664.79999995232,186664.69999980927,182263.47,182248.79999995232,182280.138,186696.959,1,16,11,
sequence,flow.Sequence,4_10,2023-11-27T19:02:54.214Z,,,,,,,,,,,4384.561999809259,completion,,,,,,,low,high,,,,,,,true,,,,,false,186665,186664.69999980927,182263.47,182248.79999995232,182280.138,186696.959,1,16,,
trial,html.Screen,4_11_0,2023-11-27T19:02:58.252Z,,,,0,1.0143509683988825,-1.0281980567462463,,,true,lh,4005.7409998092626,response,-1.0961318727760048,1.2,-1.2,1.2134960228256146,1.2,-1.2,low,high,,ISIC_0062031.JPG,,ISIC_9768421.JPG,,33,true,0.3600000000000002,lh,keypress(e),100,false,190702.89999985695,190702.69999980927,186680.157,186665.09999990463,186696.959,190730.259,1,16,12,
sequence,flow.Sequence,4_11,2023-11-27T19:02:58.252Z,,,,,,,,,,,4005.7409998092626,completion,,,,,,,low,high,,,,,,,true,,,,,false,190703.09999990463,190702.69999980927,186680.157,186665,186696.959,190730.259,1,16,,
trial,html.Screen,4_12_0,2023-11-27T19:03:07.315Z,,,,0,-1.1547137855907486,1.0185275168641534,,,true,hl,9034.741000000009,response,1.2838089642212804,1.2,-1.2,-0.8550527900640753,1.2,-1.2,high,low,,ISIC_7604870.JPG,,ISIC_0034187.JPG,,29,true,0.3600000000000002,hl,keypress(j),100,false,199765.19999980927,199765,190713.514,190703.19999980927,190730.259,199796.891,1,16,13,
sequence,flow.Sequence,4_12,2023-11-27T19:03:07.315Z,,,,,,,,,,,9034.741000000009,completion,,,,,,,high,low,,,,,,,true,,,,,false,199765.5,199765,190713.514,190703.19999980927,190730.259,199796.891,1,16,,
trial,html.Screen,4_13_0,2023-11-27T19:03:10.238Z,,,,0,-0.9046170303418553,1.0063426986460375,,,true,hl,2890.808999809262,response,1.225025174430573,1.2,-1.2,-0.8422679054456499,1.2,-1.2,high,low,,ISIC_0055759.JPG,,ISIC_7503950.JPG,,29,true,0.3600000000000002,hl,keypress(j),100,false,202687.89999985695,202687.69999980927,199780.2,199765.59999990463,199796.891,202713.536,1,16,14,
sequence,flow.Sequence,4_13,2023-11-27T19:03:10.238Z,,,,,,,,,,,2890.808999809262,completion,,,,,,,high,low,,,,,,,true,,,,,false,202688.09999990463,202687.69999980927,199780.2,199765.59999990463,199796.891,202713.536,1,16,,
trial,html.Screen,4_14_0,2023-11-27T19:03:14.252Z,,,,0,-1.1547137855907486,1.0185275168641534,,,true,hl,3988.06399990464,response,1.2615315960773072,1.2,-1.2,-1.194084675079932,1.2,-1.2,high,low,,ISIC_7604870.JPG,,ISIC_0010044.JPG,,29,true,0.3600000000000002,hl,keypress(j),100,false,206701.69999980927,206701.59999990463,202696.873,202688.19999980927,202713.536,206730.405,1,16,15,
sequence,flow.Sequence,4_14,2023-11-27T19:03:14.252Z,,,,,,,,,,,3988.06399990464,completion,,,,,,,high,low,,,,,,,true,,,,,false,206701.89999985695,206701.59999990463,202696.873,202688.19999980927,202713.536,206730.405,1,16,,
trial,html.Screen,4_15_0,2023-11-27T19:03:18.021Z,,,,0,-0.9873794329144926,0.9500689037516484,,,true,hl,3740.7949998092663,response,1.3411487193830047,1.2,-1.2,-1.198640448317381,1.2,-1.2,high,low,,ISIC_0013498.JPG,,ISIC_3093026.JPG,,29,true,0.3600000000000002,hl,keypress(j),100,false,210471.39999985695,210471.19999980927,206713.539,206702,206730.405,210496.985,1,16,16,
sequence,flow.Sequence,4_15,2023-11-27T19:03:18.022Z,,,,,,,,,,,3740.7949998092663,completion,,,,,,,high,low,,,,,,,true,,,,,false,210471.59999990463,210471.19999980927,206713.539,206702,206730.405,210496.985,1,16,,
demonstration_loop,flow.Loop,4,2023-11-27T19:03:18.022Z,,,,,,,,,,,85474.46599980927,completion,,,,,,,,,,,,,,,true,,,,,false,210471.59999990463,210471.19999980927,124963.528,124978.19999980927,124996.734,210496.985,1,16,,
practice_instructions,html.Screen,5,2023-11-27T19:03:30.103Z,,,,,,,,,,,12048.31499995233,response,,,,,,,,,,,,,,,,,continue,click button,,,222553.29999995232,222545.29999995232,210480.213,210471.69999980927,210496.985,222580.204,,,,
trial,html.Screen,6_0_0,2023-11-27T19:03:46.121Z,,,,1,1.1224745971429997,-0.8423270217438888,,,,,16016.67300000001,timeout,-0.9448560599810628,1.2,-1.2,0.9099421612683488,1.2,-1.2,low,high,,ISIC_0057032.JPG,,ISIC_9684318.JPG,,26,true,0.3300000000000002,,,0,false,238571.39999985695,238571.09999990463,222530.213,222553.5,222580.204,238596.877,1,40,1,
sequence,flow.Sequence,6_0,2023-11-27T19:03:46.121Z,,,,,,,,,,,15990.895999904635,completion,,,,,,,low,high,,,,,,,true,,,,,false,238571.5,238571.09999990463,222530.213,222553.5,222580.204,238596.877,1,40,,
trial,html.Screen,6_1_0,2023-11-27T19:03:54.254Z,,,,1,0.8779374983479176,-0.9745548032823428,,,true,lh,8106.622999999992,response,-1.2463522959513311,1.2,-1.2,0.8691422647859491,1.2,-1.2,low,high,,ISIC_2991354.JPG,,ISIC_0057192.JPG,,33,true,0.3600000000000002,lh,keypress(e),0,false,246703.69999980927,246703.5,238580.238,238571.5,238596.877,246730.267,1,40,2,
sequence,flow.Sequence,6_1,2023-11-27T19:03:54.254Z,,,,,,,,,,,8106.622999999992,completion,,,,,,,low,high,,,,,,,true,,,,,false,246703.79999995232,246703.5,238580.238,238571.5,238596.877,246730.267,1,40,,
trial,html.Screen,6_2_0,2023-11-27T19:04:01.346Z,,,,1,1.212030980680325,1.139863018685685,,,true,ll,7064.132999856956,response,-1.320382426640536,1.2,-1.2,-1.010460601525102,1.2,-1.2,low,low,,ISIC_0008510.JPG,,ISIC_0010746.JPG,,249,true,0.3600000000000002,ll,keypress(f),0,false,253794.59999990463,253794.39999985695,246713.622,246703.79999995232,246730.267,253830.251,1,40,3,
sequence,flow.Sequence,6_2,2023-11-27T19:04:01.346Z,,,,,,,,,,,7064.132999856956,completion,,,,,,,low,low,,,,,,,true,,,,,false,253794.79999995232,253794.39999985695,246713.622,246703.79999995232,246730.267,253830.251,1,40,,
trial,html.Screen,6_3_0,2023-11-27T19:04:07.251Z,,,,1,1.4748095371445096,-0.9579010801034902,,,true,lh,5868.848999904643,response,-1.0961318727760048,1.2,-1.2,1.2134960228256146,1.2,-1.2,low,high,,ISIC_0033216.JPG,,ISIC_9768421.JPG,,26,true,0.3300000000000002,lh,keypress(e),0,false,259699.39999985695,259699.09999990463,253780.152,253794.89999985695,253830.251,259713.587,1,40,4,
sequence,flow.Sequence,6_3,2023-11-27T19:04:07.252Z,,,,,,,,,,,5868.848999904643,completion,,,,,,,low,high,,,,,,,true,,,,,false,259699.89999985695,259699.09999990463,253780.152,253794.79999995232,253830.251,259713.587,1,40,,
trial,html.Screen,6_4_0,2023-11-27T19:04:10.338Z,,,,1,-1.2872758518949912,-1.313723254903214,,,true,hh,3072.8129998569493,response,1.415411781259296,1.2,-1.2,1.085289936617366,1.2,-1.2,high,high,,ISIC_0064376.JPG,,ISIC_4277207.JPG,,157,true,0.3600000000000002,hh,keypress(i),0,false,262786.5,262786.39999985695,259697.02,259700.09999990463,259713.587,262796.935,1,40,5,
sequence,flow.Sequence,6_4,2023-11-27T19:04:10.338Z,,,,,,,,,,,3072.8129998569493,completion,,,,,,,high,high,,,,,,,true,,,,,false,262786.69999980927,262786.39999985695,259697.02,259700.09999990463,259713.587,262796.935,1,40,,
trial,html.Screen,6_5_0,2023-11-27T19:04:13.067Z,,,,1,-1.3034518282811869,-1.0897657776277234,,,true,hh,2717.8649999523186,response,1.0885984639975343,1.2,-1.2,1.2042618719491294,1.2,-1.2,high,high,,ISIC_0071988.JPG,,ISIC_0012740.JPG,,25,true,0.15000000000000002,hh,keypress(i),0,false,265515.09999990463,265514.7999999523,262780.212,262786.7999999523,262796.935,265546.942,1,40,6,
sequence,flow.Sequence,6_5,2023-11-27T19:04:13.067Z,,,,,,,,,,,2717.8649999523186,completion,,,,,,,high,high,,,,,,,true,,,,,false,265515.5,265514.7999999523,262780.212,262786.7999999523,262796.935,265546.942,1,40,,
trial,html.Screen,6_6_0,2023-11-27T19:04:17.330Z,,,,1,-0.8787496315223856,1.3680901203013998,,,true,hl,4231.058000000019,response,1.3411487193830047,1.2,-1.2,-1.198640448317381,1.2,-1.2,high,low,,ISIC_0023811.JPG,,ISIC_3093026.JPG,,29,true,0.3600000000000002,hl,keypress(j),0,false,269778.09999990463,269778,265513.783,265515.69999980927,265546.942,269780.279,1,40,7,
sequence,flow.Sequence,6_6,2023-11-27T19:04:17.330Z,,,,,,,,,,,4231.058000000019,completion,,,,,,,high,low,,,,,,,true,,,,,false,269778.2999999523,269778,265513.783,265515.69999980927,265546.942,269780.279,1,40,,
trial,html.Screen,6_7_0,2023-11-27T19:04:19.914Z,,,,1,-1.2974483548597415,-1.2071506593281005,,,true,hh,2581.820999904652,response,1.2965630265970134,1.2,-1.2,0.8791441061179197,1.2,-1.2,high,high,,ISIC_0011007.JPG,,ISIC_0004455.JPG,,127,true,0.3300000000000002,hh,keypress(i),0,false,272362.2999999523,272362.09999990463,269763.624,269778.2999999523,269780.279,272381.632,1,40,8,
sequence,flow.Sequence,6_7,2023-11-27T19:04:19.914Z,,,,,,,,,,,2581.820999904652,completion,,,,,,,high,high,,,,,,,true,,,,,false,272362.5,272362.09999990463,269763.624,269778.2999999523,269780.279,272381.632,1,40,,
trial,html.Screen,6_8_0,2023-11-27T19:04:22.818Z,,,,1,-1.1407514641016443,-1.280017651202714,,,true,hh,2884.2679998569656,response,1.1217390688497193,1.2,-1.2,1.2276600934505035,1.2,-1.2,high,high,,ISIC_0072507.JPG,,ISIC_0026344.JPG,,25,true,0.15000000000000002,hh,keypress(i),0,false,275266,275265.89999985695,272347.078,272362.5,272381.632,275280.365,1,40,9,
sequence,flow.Sequence,6_8,2023-11-27T19:04:22.818Z,,,,,,,,,,,2884.2679998569656,completion,,,,,,,high,high,,,,,,,true,,,,,false,275266.19999980927,275265.89999985695,272347.078,272362.5,272381.632,275280.365,1,40,,
trial,html.Screen,6_9_0,2023-11-27T19:04:27.274Z,,,,1,1.3471772753257971,1.055978100098093,,,true,ll,4441.534999856958,response,-1.3034518282811869,1.2,-1.2,-1.0897657776277234,1.2,-1.2,low,low,,ISIC_2077116.JPG,,ISIC_0071988.JPG,,27,true,0.12,ll,keypress(f),0,false,279722.09999990463,279721.89999985695,275263.784,275266.2999999523,275280.365,279746.965,1,40,10,
sequence,flow.Sequence,6_9,2023-11-27T19:04:27.274Z,,,,,,,,,,,4441.534999856958,completion,,,,,,,low,low,,,,,,,true,,,,,false,279722.19999980927,279721.89999985695,275263.784,275266.19999980927,275280.365,279746.965,1,40,,
trial,html.Screen,6_10_0,2023-11-27T19:04:32.626Z,,,,1,-1.0345332538240786,1.4719115945084815,,,true,hl,5327.634999904607,response,1.1235224875125256,1.2,-1.2,-0.8641223012137988,1.2,-1.2,high,low,,ISIC_0192490.JPG,,ISIC_0033901.JPG,,29,true,0.3600000000000002,hl,keypress(j),0,false,285074.7999999523,285074.59999990463,279713.637,279722.2999999523,279746.965,285096.966,1,40,11,
sequence,flow.Sequence,6_10,2023-11-27T19:04:32.627Z,,,,,,,,,,,5327.634999904607,completion,,,,,,,high,low,,,,,,,true,,,,,false,285075,285074.59999990463,279713.637,279722.2999999523,279746.965,285096.966,1,40,,
trial,html.Screen,6_11_0,2023-11-27T19:04:37.251Z,,,,1,-0.9212323139676136,0.9882196642247332,,,true,hl,4602.033999999985,response,1.3559315773956395,1.2,-1.2,-0.924768326187701,1.2,-1.2,high,low,,ISIC_0014255.JPG,,ISIC_5101111.JPG,,29,true,0.3600000000000002,hl,keypress(j),0,false,289699.19999980927,289699,285063.553,285075.2999999523,285096.966,289713.741,1,40,12,
sequence,flow.Sequence,6_11,2023-11-27T19:04:37.251Z,,,,,,,,,,,4602.033999999985,completion,,,,,,,high,low,,,,,,,true,,,,,false,289699.59999990463,289699,285063.553,285075.19999980927,285096.966,289713.741,1,40,,
trial,html.Screen,6_12_0,2023-11-27T19:04:41.594Z,,,,1,-1.2872758518949912,-1.313723254903214,,,true,hh,4328.458999809285,response,0.9116506478817816,1.2,-1.2,1.0416072379908032,1.2,-1.2,high,high,,ISIC_0064376.JPG,,ISIC_3273370.JPG,,127,true,0.3300000000000002,hh,keypress(i),0,false,294042.39999985695,294042.19999980927,289696.842,289699.7999999523,289713.741,294080.329,1,40,13,
sequence,flow.Sequence,6_12,2023-11-27T19:04:41.594Z,,,,,,,,,,,4328.458999809285,completion,,,,,,,high,high,,,,,,,true,,,,,false,294042.5,294042.19999980927,289696.842,289699.7999999523,289713.741,294080.329,1,40,,
trial,html.Screen,6_13_0,2023-11-27T19:04:47.051Z,,,,1,1.2615315960773072,-1.194084675079932,,,true,lh,5418.670999999973,response,-0.887838744955182,1.2,-1.2,1.3716210719758812,1.2,-1.2,low,high,,ISIC_0010044.JPG,,ISIC_1488727.JPG,,26,true,0.3300000000000002,lh,keypress(e),0,false,299499.2999999523,299499,294030.291,294042.69999980927,294080.329,299513.822,1,40,14,
sequence,flow.Sequence,6_13,2023-11-27T19:04:47.051Z,,,,,,,,,,,5418.670999999973,completion,,,,,,,low,high,,,,,,,true,,,,,false,299499.59999990463,299499,294030.291,294042.59999990463,294080.329,299513.822,1,40,,
trial,html.Screen,6_14_0,2023-11-27T19:04:49.579Z,,,,1,-1.1474466950560966,-1.173734476257662,,,true,hh,2513.0779998569633,response,1.212030980680325,1.2,-1.2,1.139863018685685,1.2,-1.2,high,high,,ISIC_5216586.JPG,,ISIC_0008510.JPG,,157,true,0.3600000000000002,hh,keypress(i),0,false,302027.09999990463,302026.89999985695,299496.882,299499.7999999523,299513.822,302063.61,1,40,15,
sequence,flow.Sequence,6_14,2023-11-27T19:04:49.579Z,,,,,,,,,,,2513.0779998569633,completion,,,,,,,high,high,,,,,,,true,,,,,false,302027.39999985695,302026.89999985695,299496.882,299499.69999980927,299513.822,302063.61,1,40,,
trial,html.Screen,6_15_0,2023-11-27T19:04:57.010Z,,,,1,-0.9566823908868002,0.9602125665128364,,,true,hl,7394.9899999046465,response,1.0143509683988825,1.2,-1.2,-1.0281980567462463,1.2,-1.2,high,low,,ISIC_0056784.JPG,,ISIC_0062031.JPG,,29,true,0.3600000000000002,hl,keypress(j),0,false,309458.7999999523,309458.59999990463,302013.594,302027.69999980927,302063.61,309496.97,1,40,16,
sequence,flow.Sequence,6_15,2023-11-27T19:04:57.011Z,,,,,,,,,,,7394.9899999046465,completion,,,,,,,high,low,,,,,,,true,,,,,false,309459,309458.59999990463,302013.594,302027.59999990463,302063.61,309496.97,1,40,,
trial,html.Screen,6_16_0,2023-11-27T19:05:00.211Z,,,,1,-0.8709576717420565,1.2795156779072283,,,true,hl,3160.929999856977,response,0.9385447468573198,1.2,-1.2,-1.2289860846064424,1.2,-1.2,high,low,,ISIC_1925632.JPG,,ISIC_0032780.JPG,,29,true,0.3600000000000002,hl,keypress(j),0,false,312658.09999990463,312657.89999985695,309446.841,309459.19999980927,309496.97,312663.666,1,40,17,
sequence,flow.Sequence,6_16,2023-11-27T19:05:00.211Z,,,,,,,,,,,3160.929999856977,completion,,,,,,,high,low,,,,,,,true,,,,,false,312658.19999980927,312657.89999985695,309446.841,309459.09999990463,309496.97,312663.666,1,40,,
trial,html.Screen,6_17_0,2023-11-27T19:05:03.530Z,,,,1,1.1727618800748076,1.0636787813411093,,,true,ll,3314.0339998092386,response,-1.0667480038665316,1.2,-1.2,-0.9195011628288464,1.2,-1.2,low,low,,ISIC_9690371.JPG,,ISIC_0062517.JPG,,211,true,0.3300000000000002,ll,keypress(f),0,false,315977.7999999523,315977.69999980927,312647.058,312658.2999999523,312663.666,315996.986,1,40,18,
sequence,flow.Sequence,6_17,2023-11-27T19:05:03.530Z,,,,,,,,,,,3314.0339998092386,completion,,,,,,,low,low,,,,,,,true,,,,,false,315978,315977.69999980927,312647.058,312658.2999999523,312663.666,315996.986,1,40,,
trial,html.Screen,6_18_0,2023-11-27T19:05:09.891Z,,,,1,1.3559315773956395,-0.924768326187701,,,true,lh,6341.014000000025,response,-0.9448560599810628,1.2,-1.2,0.9099421612683488,1.2,-1.2,low,high,,ISIC_5101111.JPG,,ISIC_9684318.JPG,,26,true,0.3300000000000002,lh,keypress(e),0,false,322338,322338,315963.737,315978,315996.986,322347.018,1,40,19,
sequence,flow.Sequence,6_18,2023-11-27T19:05:09.891Z,,,,,,,,,,,6341.014000000025,completion,,,,,,,low,high,,,,,,,true,,,,,false,322338.19999980927,322338,315963.737,315978,315996.986,322347.018,1,40,,
trial,html.Screen,6_19_0,2023-11-27T19:05:13.339Z,,,,1,1.1604734171556077,1.0789312625280616,,,true,ll,3439.0819999046507,response,-1.0710981257723884,1.2,-1.2,-0.9983143500894516,1.2,-1.2,low,low,,ISIC_3950753.JPG,,ISIC_0026652.JPG,,249,true,0.3600000000000002,ll,keypress(f),0,false,325786.19999980927,325786.09999990463,322330.153,322338.2999999523,322347.018,325813.692,1,40,20,
sequence,flow.Sequence,6_19,2023-11-27T19:05:13.339Z,,,,,,,,,,,3439.0819999046507,completion,,,,,,,low,low,,,,,,,true,,,,,false,325786.39999985695,325786.09999990463,322330.153,322338.2999999523,322347.018,325813.692,1,40,,
trial,html.Screen,6_20_0,2023-11-27T19:05:17.283Z,,,,1,-1.082730232773217,0.8833175387485132,,,true,hl,3916.207999856968,response,1.2838089642212804,1.2,-1.2,-0.8550527900640753,1.2,-1.2,high,low,,ISIC_0011933.JPG,,ISIC_0034187.JPG,,29,true,0.3600000000000002,hl,keypress(j),0,false,329730,329729.89999985695,325780.375,325786.5,325813.692,329747.105,1,40,21,
sequence,flow.Sequence,6_20,2023-11-27T19:05:17.283Z,,,,,,,,,,,3916.207999856968,completion,,,,,,,high,low,,,,,,,true,,,,,false,329730.09999990463,329729.89999985695,325780.375,325786.5,325813.692,329747.105,1,40,,
trial,html.Screen,6_21_0,2023-11-27T19:05:20.051Z,,,,1,-1.238264833797662,-1.176099940770289,,,true,hh,2751.694999952335,response,1.0275060871969903,1.2,-1.2,0.9101747326852082,1.2,-1.2,high,high,,ISIC_0032861.JPG,,ISIC_9155028.JPG,,127,true,0.3300000000000002,hh,keypress(i),0,false,332499,332498.7999999523,329713.81,329730.19999980927,329747.105,332530.353,1,40,22,
sequence,flow.Sequence,6_21,2023-11-27T19:05:20.052Z,,,,,,,,,,,2751.694999952335,completion,,,,,,,high,high,,,,,,,true,,,,,false,332499.2999999523,332498.7999999523,329713.81,329730.19999980927,329747.105,332530.353,1,40,,
trial,html.Screen,6_22_0,2023-11-27T19:05:23.347Z,,,,1,-0.887838744955182,1.3716210719758812,,,true,hl,3263.646999999997,response,1.225025174430573,1.2,-1.2,-0.8422679054456499,1.2,-1.2,high,low,,ISIC_1488727.JPG,,ISIC_7503950.JPG,,29,true,0.3600000000000002,hl,keypress(j),0,false,335794.19999980927,335794,332497.07,332499.5,332530.353,335797.028,1,40,23,
sequence,flow.Sequence,6_22,2023-11-27T19:05:23.347Z,,,,,,,,,,,3263.646999999997,completion,,,,,,,high,low,,,,,,,true,,,,,false,335794.2999999523,335794,332497.07,332499.39999985695,332530.353,335797.028,1,40,,
trial,html.Screen,6_23_0,2023-11-27T19:05:25.819Z,,,,1,1.2714351764931109,1.0785174776187512,,,true,ll,2468.972000000009,response,-1.3829859918989194,1.2,-1.2,-1.364176458580734,1.2,-1.2,low,low,,ISIC_2454898.JPG,,ISIC_0058022.JPG,,211,true,0.3300000000000002,ll,keypress(f),0,false,338266.19999980927,338266,335780.341,335794.39999985695,335797.028,338297.022,1,40,24,
sequence,flow.Sequence,6_23,2023-11-27T19:05:25.819Z,,,,,,,,,,,2468.972000000009,completion,,,,,,,low,low,,,,,,,true,,,,,false,338266.2999999523,338266,335780.341,335794.39999985695,335797.028,338297.022,1,40,,
trial,html.Screen,6_24_0,2023-11-27T19:05:30.508Z,,,,1,1.11329866545753,-1.2155631217348757,,,true,lh,4657.777999952319,response,-1.155796217969438,1.2,-1.2,1.1646564121743912,1.2,-1.2,low,high,,ISIC_0032610.JPG,,ISIC_2685523.JPG,,26,true,0.3300000000000002,lh,keypress(e),0,false,342955,342954.7999999523,338263.8,338266.39999985695,338297.022,342963.758,1,40,25,
sequence,flow.Sequence,6_24,2023-11-27T19:05:30.508Z,,,,,,,,,,,4657.777999952319,completion,,,,,,,low,high,,,,,,,true,,,,,false,342955.2999999523,342954.7999999523,338263.8,338266.39999985695,338297.022,342963.758,1,40,,
trial,html.Screen,6_25_0,2023-11-27T19:05:33.547Z,,,,1,1.204229955025689,1.0874249761617445,,,true,ll,3030.34199990466,response,-1.0322039773226626,1.2,-1.2,-0.864695074153971,1.2,-1.2,low,low,,ISIC_0056930.JPG,,ISIC_0013707.JPG,,249,true,0.3600000000000002,ll,keypress(f),0,false,345994.19999980927,345994.09999990463,342947.137,342955.5,342963.758,346013.717,1,40,26,
sequence,flow.Sequence,6_25,2023-11-27T19:05:33.547Z,,,,,,,,,,,3030.34199990466,completion,,,,,,,low,low,,,,,,,true,,,,,false,345994.5,345994.09999990463,342947.137,342955.39999985695,342963.758,346013.717,1,40,,
trial,html.Screen,6_26_0,2023-11-27T19:05:37.427Z,,,,1,0.9087169856594104,-0.8835647084207277,,,true,lh,3860.3829999046284,response,-0.887838744955182,1.2,-1.2,1.3716210719758812,1.2,-1.2,low,high,,ISIC_0000349.JPG,,ISIC_1488727.JPG,,26,true,0.3300000000000002,lh,keypress(e),0,false,349874.19999980927,349874.09999990463,345980.409,345994.5,346013.717,349880.373,1,40,27,
sequence,flow.Sequence,6_26,2023-11-27T19:05:37.427Z,,,,,,,,,,,3860.3829999046284,completion,,,,,,,low,high,,,,,,,true,,,,,false,349874.2999999523,349874.09999990463,345980.409,345994.5,346013.717,349880.373,1,40,,
trial,html.Screen,6_27_0,2023-11-27T19:05:42.987Z,,,,1,-1.0345332538240786,1.4719115945084815,,,true,hl,5553.626999999979,response,0.8479396253253069,1.2,-1.2,-1.011054319516718,1.2,-1.2,high,low,,ISIC_0192490.JPG,,ISIC_0063521.JPG,,29,true,0.3600000000000002,hl,keypress(j),0,false,355434,355434,349863.626,349874.39999985695,349880.373,355447.114,1,40,28,
sequence,flow.Sequence,6_27,2023-11-27T19:05:42.987Z,,,,,,,,,,,5553.626999999979,completion,,,,,,,high,low,,,,,,,true,,,,,false,355434.09999990463,355434,349863.626,349874.2999999523,349880.373,355447.114,1,40,,
trial,html.Screen,6_28_0,2023-11-27T19:05:45.762Z,,,,1,1.0959058628476686,1.2921331918483707,,,true,ll,2762.685999952315,response,-1.0491289899026992,1.2,-1.2,-1.5215061912609664,1.2,-1.2,low,low,,ISIC_5920470.JPG,,ISIC_0010866.JPG,,211,true,0.3300000000000002,ll,keypress(f),0,false,358209.89999985695,358209.7999999523,355430.446,355434.19999980927,355447.114,358230.377,1,40,29,
sequence,flow.Sequence,6_28,2023-11-27T19:05:45.763Z,,,,,,,,,,,2762.685999952315,completion,,,,,,,low,low,,,,,,,true,,,,,false,358210,358209.7999999523,355430.446,355434.19999980927,355447.114,358230.377,1,40,,
trial,html.Screen,6_29_0,2023-11-27T19:05:50.620Z,,,,1,1.3559315773956395,-0.924768326187701,,,true,lh,4836.922999952338,response,-0.887838744955182,1.2,-1.2,1.3716210719758812,1.2,-1.2,low,high,,ISIC_5101111.JPG,,ISIC_1488727.JPG,,26,true,0.3300000000000002,lh,keypress(e),0,false,363067.5,363067.2999999523,358197.1,358210.09999990463,358230.377,363080.43,1,40,30,
sequence,flow.Sequence,6_29,2023-11-27T19:05:50.620Z,,,,,,,,,,,4836.922999952338,completion,,,,,,,low,high,,,,,,,true,,,,,false,363067.89999985695,363067.2999999523,358197.1,358210.09999990463,358230.377,363080.43,1,40,,
trial,html.Screen,6_30_0,2023-11-27T19:05:53.219Z,,,,1,1.2200968917423711,1.3183466064109373,,,true,ll,2585.469999856956,response,-1.2383563585964383,1.2,-1.2,-1.0364354388740975,1.2,-1.2,low,low,,ISIC_3624318.JPG,,ISIC_0027622.JPG,,249,true,0.3600000000000002,ll,keypress(f),0,false,365666,365665.89999985695,363063.573,363068.09999990463,363080.43,365697.033,1,40,31,
sequence,flow.Sequence,6_30,2023-11-27T19:05:53.219Z,,,,,,,,,,,2585.469999856956,completion,,,,,,,low,low,,,,,,,true,,,,,false,365666.19999980927,365665.89999985695,363063.573,363068.09999990463,363080.43,365697.033,1,40,,
trial,html.Screen,6_31_0,2023-11-27T19:05:56.475Z,,,,1,1.3559315773956395,-0.924768326187701,,,true,lh,3225.467000000004,response,-1.055319394932912,1.2,-1.2,1.409116680310466,1.2,-1.2,low,high,,ISIC_5101111.JPG,,ISIC_6398669.JPG,,26,true,0.3300000000000002,lh,keypress(e),0,false,368922.59999990463,368922.5,365663.924,365666.19999980927,365697.033,368947.094,1,40,32,
sequence,flow.Sequence,6_31,2023-11-27T19:05:56.475Z,,,,,,,,,,,3225.467000000004,completion,,,,,,,low,high,,,,,,,true,,,,,false,368922.89999985695,368922.5,365663.924,365666.19999980927,365697.033,368947.094,1,40,,
trial,html.Screen,6_32_0,2023-11-27T19:05:58.940Z,,,,1,1.1224745971429997,-0.8423270217438888,,,true,lh,2439.7059999523335,response,-1.0748728054622358,1.2,-1.2,1.2840853987892311,1.2,-1.2,low,high,,ISIC_0057032.JPG,,ISIC_0059219.JPG,,33,true,0.3600000000000002,lh,keypress(e),0,false,371387.09999990463,371386.7999999523,368913.668,368923,368947.094,371397.062,1,40,33,
sequence,flow.Sequence,6_32,2023-11-27T19:05:58.940Z,,,,,,,,,,,2439.7059999523335,completion,,,,,,,low,high,,,,,,,true,,,,,false,371387.5,371386.7999999523,368913.668,368922.89999985695,368947.094,371397.062,1,40,,
trial,html.Screen,6_33_0,2023-11-27T19:06:04.237Z,,,,1,-0.8787496315223856,1.3680901203013998,,,true,hl,5285.837999856973,response,0.9385447468573198,1.2,-1.2,-1.2289860846064424,1.2,-1.2,high,low,,ISIC_0023811.JPG,,ISIC_0032780.JPG,,29,true,0.3600000000000002,hl,keypress(j),0,false,376683.09999990463,376682.89999985695,371380.447,371387.69999980927,371397.062,376697.058,1,40,34,
sequence,flow.Sequence,6_33,2023-11-27T19:06:04.237Z,,,,,,,,,,,5285.837999856973,completion,,,,,,,high,low,,,,,,,true,,,,,false,376683.39999985695,376682.89999985695,371380.447,371387.69999980927,371397.062,376697.058,1,40,,
trial,html.Screen,6_34_0,2023-11-27T19:06:07.572Z,,,,1,-1.082730232773217,0.8833175387485132,,,true,hl,3321.5419999046135,response,0.9385447468573198,1.2,-1.2,-1.2289860846064424,1.2,-1.2,high,low,,ISIC_0011933.JPG,,ISIC_0032780.JPG,,29,true,0.3600000000000002,hl,keypress(j),0,false,380018.89999985695,380018.59999990463,376680.4,376683.59999990463,376697.058,380030.471,1,40,35,
sequence,flow.Sequence,6_34,2023-11-27T19:06:07.573Z,,,,,,,,,,,3321.5419999046135,completion,,,,,,,high,low,,,,,,,true,,,,,false,380019.19999980927,380018.59999990463,376680.4,376683.59999990463,376697.058,380030.471,1,40,,
trial,html.Screen,6_35_0,2023-11-27T19:06:11.252Z,,,,1,1.0959058628476686,1.2921331918483707,,,true,ll,3667.5289999999804,response,-1.033120591224746,1.2,-1.2,-0.9169816067930722,1.2,-1.2,low,low,,ISIC_5920470.JPG,,ISIC_0033027.JPG,,211,true,0.3300000000000002,ll,keypress(f),0,false,383698.19999980927,383698,380013.779,380019.2999999523,380030.471,383713.828,1,40,36,
sequence,flow.Sequence,6_35,2023-11-27T19:06:11.252Z,,,,,,,,,,,3667.5289999999804,completion,,,,,,,low,low,,,,,,,true,,,,,false,383698.19999980927,383698,380013.779,380019.2999999523,380030.471,383713.828,1,40,,
trial,html.Screen,6_36_0,2023-11-27T19:06:13.420Z,,,,1,1.2200968917423711,1.3183466064109373,,,true,ll,2152.8719998092856,response,-1.3132505134129506,1.2,-1.2,-1.0949928516457437,1.2,-1.2,low,low,,ISIC_3624318.JPG,,ISIC_0066935.JPG,,41,true,0.15000000000000002,ll,keypress(f),0,false,385867,385866.69999980927,383697.227,383698.39999985695,383713.828,385880.414,1,40,37,
sequence,flow.Sequence,6_36,2023-11-27T19:06:13.421Z,,,,,,,,,,,2152.8719998092856,completion,,,,,,,low,low,,,,,,,true,,,,,false,385867.5,385866.69999980927,383697.227,383698.39999985695,383713.828,385880.414,1,40,,
trial,html.Screen,6_37_0,2023-11-27T19:06:15.860Z,,,,1,-1.250220052739973,-1.2967258992731714,,,true,hh,2425.7859998092754,response,1.3471772753257971,1.2,-1.2,1.055978100098093,1.2,-1.2,high,high,,ISIC_0031368.JPG,,ISIC_2077116.JPG,,25,true,0.15000000000000002,hh,keypress(i),0,false,388306.2999999523,388306.19999980927,385863.793,385867.69999980927,385880.414,388313.773,1,40,38,
sequence,flow.Sequence,6_37,2023-11-27T19:06:15.860Z,,,,,,,,,,,2425.7859998092754,completion,,,,,,,high,high,,,,,,,true,,,,,false,388306.5,388306.19999980927,385863.793,385867.69999980927,385880.414,388313.773,1,40,,
trial,html.Screen,6_38_0,2023-11-27T19:06:17.892Z,,,,1,-1.1407514641016443,-1.280017651202714,,,true,hh,2024.6269998569624,response,1.1510001454240106,1.2,-1.2,1.132540312667795,1.2,-1.2,high,high,,ISIC_0072507.JPG,,ISIC_0009959.JPG,,25,true,0.15000000000000002,hh,keypress(i),0,false,390338.5,390338.39999985695,388297.117,388306.59999990463,388313.773,390347.082,1,40,39,
sequence,flow.Sequence,6_38,2023-11-27T19:06:17.892Z,,,,,,,,,,,2024.6269998569624,completion,,,,,,,high,high,,,,,,,true,,,,,false,390338.89999985695,390338.39999985695,388297.117,388306.59999990463,388313.773,390347.082,1,40,,
trial,html.Screen,6_39_0,2023-11-27T19:06:20.044Z,,,,1,-1.3132505134129506,-1.0949928516457437,,,true,hh,2143.5179999046377,response,1.053007132776416,1.2,-1.2,1.341217082060068,1.2,-1.2,high,high,,ISIC_0066935.JPG,,ISIC_0024208.JPG,,25,true,0.15000000000000002,hh,keypress(i),0,false,392490.7999999523,392490.59999990463,390330.57,390339,390347.082,392497.107,1,40,40,
sequence,flow.Sequence,6_39,2023-11-27T19:06:20.044Z,,,,,,,,,,,2143.5179999046377,completion,,,,,,,high,high,,,,,,,true,,,,,false,392491,392490.59999990463,390330.57,390339,390347.082,392497.107,1,40,,
practice_loop,flow.Loop,6,2023-11-27T19:06:20.045Z,,,,,,,,,,,169910.39599990463,completion,,,,,,,,,,,,,,,true,,,,,false,392491.19999980927,392490.59999990463,222530.213,222553.5,222580.204,392497.107,1,40,,
stair_instructions,html.Screen,7,2023-11-27T19:06:51.548Z,,,,,,,,,,,31496.492999904614,response,,,,,,,,,,,,,,,,,continue,click button,,,423994.09999990463,423993.59999990463,392480.631,392491.2999999523,392497.107,423997.15,,,,
trial,html.Screen,8_0_0,2023-11-27T19:06:56.408Z,,,,2,-0.0071892445601978,0.0246015408628738,,0.04,true,ll,4857.649999952293,response,-1.1392234684115472,1.2,-1.2,-1.3198277407683998,1.2,-1.2,low,low,,ISIC_0014133.JPG,,ISIC_0071875.JPG,28,27,false,0.12,ll,keypress(f),0,true,428854.89999985695,428854.7999999523,423980.464,423994.2999999523,423997.15,428880.495,1,40,1,
sequence,flow.Sequence,8_0,2023-11-27T19:06:56.409Z,,,,,,,,,,,4857.649999952293,completion,,,,,,,low,low,,,,,,,false,,,,,true,428855.09999990463,428854.7999999523,423980.464,423994.2999999523,423997.15,428880.495,1,40,,
trial,html.Screen,8_1_0,2023-11-27T19:07:02.676Z,,,,2,-0.0158987717472563,-0.0292472192292015,,0.04,true,hh,6241.304999952321,response,1.1990772227054871,1.15,-1.15,1.1224329926844498,1.15,-1.15,high,high,,ISIC_1366765.JPG,,ISIC_3425388.JPG,28,26,false,0.14,hh,keypress(i),0,true,435122,435121.7999999523,428863.946,428855.19999980927,428880.495,435130.452,1,40,2,
sequence,flow.Sequence,8_1,2023-11-27T19:07:02.676Z,,,,,,,,,,,6241.304999952321,completion,,,,,,,high,high,,,,,,,false,,,,,true,435122.09999990463,435121.7999999523,428863.946,428855.19999980927,428880.495,435130.452,1,40,,
trial,html.Screen,8_2_0,2023-11-27T19:07:06.683Z,,,,2,-0.0158987717472563,-0.0292472192292015,,0.04,true,hh,3997.747999809275,response,1.0730492496332733,1.15,-1.15,1.0252626598876022,1.15,-1.15,high,high,,ISIC_1366765.JPG,,ISIC_0007029.JPG,28,26,false,0.14,hh,keypress(i),0,true,439128.2999999523,439128.19999980927,435113.725,435122.09999990463,435130.452,439130.524,1,40,3,
sequence,flow.Sequence,8_2,2023-11-27T19:07:06.683Z,,,,,,,,,,,3997.747999809275,completion,,,,,,,high,high,,,,,,,false,,,,,true,439128.5,439128.19999980927,435113.725,435122.09999990463,435130.452,439130.524,1,40,,
trial,html.Screen,8_3_0,2023-11-27T19:07:09.349Z,,,,2,0.0051046740562181,-0.0178832721027728,,0.04,true,ll,2663.575999904657,response,-1.094624209823328,1.023847826286026,-1.15,-1.0544499428769605,1.023847826286026,-1.15,low,low,,ISIC_9545819.JPG,,ISIC_0055526.JPG,28,25,false,0.11,ll,keypress(f),0,true,441794.2999999523,441794.09999990463,439113.849,439128.59999990463,439130.524,441797.168,1,40,4,
sequence,flow.Sequence,8_3,2023-11-27T19:07:09.349Z,,,,,,,,,,,2663.575999904657,completion,,,,,,,low,low,,,,,,,false,,,,,true,441794.39999985695,441794.09999990463,439113.849,439128.59999990463,439130.524,441797.168,1,40,,
trial,html.Screen,8_4_0,2023-11-27T19:07:11.701Z,,,,2,-0.0158987717472563,-0.0292472192292015,,0.04,true,ll,2349.7319998569437,response,-1.2055236989581275,1.023847826286026,-1.0999999999999999,-1.1960893075698802,1.023847826286026,-1.0999999999999999,low,low,,ISIC_1366765.JPG,,ISIC_0072393.JPG,28,32,false,0.11,ll,keypress(f),0,true,444147.19999980927,444146.89999985695,441780.456,441794.39999985695,441797.168,444163.887,1,40,5,
sequence,flow.Sequence,8_4,2023-11-27T19:07:11.702Z,,,,,,,,,,,2349.7319998569437,completion,,,,,,,low,low,,,,,,,false,,,,,true,444147.5,444146.89999985695,441780.456,441794.39999985695,441797.168,444163.887,1,40,,
trial,html.Screen,8_5_0,2023-11-27T19:07:15.845Z,,,,2,0.0189295602385628,0.0128812415435153,,0.04,true,hh,4126.512999856961,response,1.0831477774866454,1.023847826286026,-1.0999999999999999,1.0347343776726454,1.023847826286026,-1.0999999999999999,high,high,,ISIC_0010372.JPG,,ISIC_9475559.JPG,28,29,false,0.12,hh,keypress(i),0,true,448290.5,448290.39999985695,444147.35,444147.59999990463,444163.887,448313.858,1,40,6,
sequence,flow.Sequence,8_5,2023-11-27T19:07:15.845Z,,,,,,,,,,,4126.512999856961,completion,,,,,,,high,high,,,,,,,false,,,,,true,448290.69999980927,448290.39999985695,444147.35,444147.59999990463,444163.887,448313.858,1,40,,
trial,html.Screen,8_6_0,2023-11-27T19:07:18.942Z,,,,2,0.0199897690678184,0.0312486875504497,,0.04,false,lh,3073.3419998092577,response,-0.9046170303418553,1.023847826286026,-1.0999999999999999,1.0063426986460375,1.023847826286026,-1.0999999999999999,low,high,,ISIC_5482426.JPG,,ISIC_0055759.JPG,28,26,false,0.2400000000000001,ll,keypress(f),0,true,451387.39999985695,451387.19999980927,448280.425,448290.7999999523,448313.858,451413.861,1,40,7,
sequence,flow.Sequence,8_6,2023-11-27T19:07:18.942Z,,,,,,,,,,,3073.3419998092577,completion,,,,,,,low,high,,,,,,,false,,,,,true,451387.7999999523,451387.19999980927,448280.425,448290.69999980927,448313.858,451413.861,1,40,,
trial,html.Screen,8_7_0,2023-11-27T19:07:25.357Z,,,,2,0.0051046740562181,-0.0178832721027728,,0.04,false,hl,6388.33899980929,response,0.8479396253253069,1.023847826286026,-1.0499999999999998,-1.011054319516718,1.073847826286026,-1.0999999999999999,high,low,,ISIC_9545819.JPG,,ISIC_0063521.JPG,28,25,false,0.2500000000000001,hh,keypress(i),0,true,457802.39999985695,457802.19999980927,451380.654,451388,451413.861,457813.859,1,40,8,
sequence,flow.Sequence,8_7,2023-11-27T19:07:25.357Z,,,,,,,,,,,6388.33899980929,completion,,,,,,,high,low,,,,,,,false,,,,,true,457802.39999985695,457802.19999980927,451380.654,451388,451413.861,457813.859,1,40,,
trial,html.Screen,8_8_0,2023-11-27T19:07:31.557Z,,,,2,-0.0023664502831079,-0.0252784582169994,,0.04,false,lh,6189.040999856952,response,-1.2609895831255231,0.8913370014989761,-1.0499999999999998,1.0687377724194886,1.073847826286026,-1.15,low,high,,ISIC_4156010.JPG,,ISIC_1367610.JPG,28,25,false,0.22000000000000008,hl,keypress(j),0,true,464003.09999990463,464002.89999985695,457797.118,457802.5,457813.859,464013.914,1,40,9,
sequence,flow.Sequence,8_8,2023-11-27T19:07:31.558Z,,,,,,,,,,,6189.040999856952,completion,,,,,,,low,high,,,,,,,false,,,,,true,464003.39999985695,464002.89999985695,457797.118,457802.5,457813.859,464013.914,1,40,,
trial,html.Screen,8_9_0,2023-11-27T19:07:34.605Z,,,,2,0.010035581303589,-0.0100711721396864,,0.04,true,hh,3036.985999856959,response,0.8619122137969323,0.8913370014989761,-1.0999999999999999,1.2189749655812585,1.123847826286026,-1.15,high,high,,ISIC_0030592.JPG,,ISIC_3737487.JPG,28,30,false,0.1,hh,keypress(i),0,true,467051.09999990463,467050.89999985695,463997.136,464003.59999990463,464013.914,467063.92,1,40,10,
sequence,flow.Sequence,8_9,2023-11-27T19:07:34.606Z,,,,,,,,,,,3036.985999856959,completion,,,,,,,high,high,,,,,,,false,,,,,true,467051.5,467050.89999985695,463997.136,464003.59999990463,464013.914,467063.92,1,40,,
trial,html.Screen,8_10_0,2023-11-27T19:07:39.733Z,,,,2,0.0365981355399771,0.0162670920008846,,0.04,true,hl,5114.279999809281,response,0.6520931304746582,0.8913370014989761,-1.0999999999999999,-0.9955601482749408,1.123847826286026,-1.15,high,low,,ISIC_0982855.JPG,,ISIC_0034294.JPG,28,26,false,0.2400000000000001,hl,keypress(j),0,true,472178.2999999523,472178.19999980927,467047.274,467051.59999990463,467063.92,472180.55,1,40,11,
sequence,flow.Sequence,8_10,2023-11-27T19:07:39.733Z,,,,,,,,,,,5114.279999809281,completion,,,,,,,high,low,,,,,,,false,,,,,true,472178.39999985695,472178.19999980927,467047.274,467051.59999990463,467063.92,472180.55,1,40,,
trial,html.Screen,8_11_0,2023-11-27T19:07:46.390Z,,,,2,0.0189295602385628,0.0128812415435153,,0.04,true,hl,6655.049999904644,response,0.6520931304746582,0.8413370014989761,-1.0999999999999999,-0.9955601482749408,1.123847826286026,-1.15,high,low,,ISIC_0010372.JPG,,ISIC_0034294.JPG,28,28,false,0.22000000000000008,hl,keypress(j),0,true,478835.89999985695,478835.59999990463,472163.749,472178.5,472180.55,478847.208,1,40,12,
sequence,flow.Sequence,8_11,2023-11-27T19:07:46.390Z,,,,,,,,,,,6655.049999904644,completion,,,,,,,high,low,,,,,,,false,,,,,true,478836.19999980927,478835.59999990463,472163.749,472178.5,472180.55,478847.208,1,40,,
trial,html.Screen,8_12_0,2023-11-27T19:07:49.750Z,,,,2,0.0127320821962457,-0.0315308940184827,,0.04,false,lh,3347.8919999046484,response,-1.2704198237183777,0.8413370014989761,-1.0999999999999999,1.138121072015301,1.123847826286026,-1.0999999999999999,low,high,,ISIC_8156101.JPG,,ISIC_0501843.JPG,28,27,false,0.2500000000000001,hh,keypress(i),0,true,482195.2999999523,482195.09999990463,478830.38,478836.39999985695,478847.208,482214.513,1,40,13,
sequence,flow.Sequence,8_12,2023-11-27T19:07:49.750Z,,,,,,,,,,,3347.8919999046484,completion,,,,,,,low,high,,,,,,,false,,,,,true,482195.69999980927,482195.09999990463,478830.38,478836.39999985695,478847.208,482214.513,1,40,,
trial,html.Screen,8_13_0,2023-11-27T19:07:52.502Z,,,,2,-0.0060934073440827,-0.0279108145883031,,0.04,true,ll,2732.786999952339,response,-1.094624209823328,0.8413370014989761,-1.15,-1.0544499428769605,0.8451071012449796,-1.0999999999999999,low,low,,ISIC_0032604.JPG,,ISIC_0055526.JPG,28,27,false,0.11,ll,keypress(f),0,true,484947.7999999523,484947.2999999523,482180.608,482195.7999999523,482214.513,484963.94,1,40,14,
sequence,flow.Sequence,8_13,2023-11-27T19:07:52.502Z,,,,,,,,,,,2732.786999952339,completion,,,,,,,low,low,,,,,,,false,,,,,true,484948.19999980927,484947.2999999523,482180.608,482195.69999980927,482214.513,484963.94,1,40,,
trial,html.Screen,8_14_0,2023-11-27T19:07:59.060Z,,,,2,-0.012020985739544,0.0126097407389903,,0.04,true,hh,6542.059999999998,response,0.8839757968937295,0.8413370014989761,-1.15,0.9422051867002986,0.8451071012449796,-1.0999999999999999,high,high,,ISIC_0069379.JPG,,ISIC_6739241.JPG,28,57,false,0.1,hh,keypress(i),0,true,491506.09999990463,491506,484947.268,484948.39999985695,484963.94,491513.92,1,40,15,
sequence,flow.Sequence,8_14,2023-11-27T19:07:59.060Z,,,,,,,,,,,6542.059999999998,completion,,,,,,,high,high,,,,,,,false,,,,,true,491506.19999980927,491506,484947.268,484948.39999985695,484963.94,491513.92,1,40,,
trial,html.Screen,8_15_0,2023-11-27T19:08:03.421Z,,,,2,-0.0077673378094614,-0.0021810768579373,,0.04,true,ll,4351.979999856965,response,-1.2359980588867217,0.863090491797014,-1.15,-1.0529964469124329,0.8451071012449796,-1.0999999999999999,low,low,,ISIC_0067621.JPG,,ISIC_0032840.JPG,28,27,false,0.11,ll,keypress(f),0,true,495866.09999990463,495865.89999985695,491497.185,491506.2999999523,491513.92,495880.711,1,40,16,
sequence,flow.Sequence,8_15,2023-11-27T19:08:03.421Z,,,,,,,,,,,4351.979999856965,completion,,,,,,,low,low,,,,,,,false,,,,,true,495866.19999980927,495865.89999985695,491497.185,491506.2999999523,491513.92,495880.711,1,40,,
trial,html.Screen,8_16_0,2023-11-27T19:08:06.142Z,,,,2,-0.0071892445601978,0.0246015408628738,,0.04,true,ll,2705.588999952306,response,-1.185875658992962,0.863090491797014,-1.0999999999999999,-0.9985976786538492,0.8451071012449796,-1.0499999999999998,low,low,,ISIC_0014133.JPG,,ISIC_0011703.JPG,28,28,false,0.1,ll,keypress(f),0,true,498586.39999985695,498586.2999999523,495863.788,495866.2999999523,495880.711,498597.347,1,40,17,
sequence,flow.Sequence,8_16,2023-11-27T19:08:06.142Z,,,,,,,,,,,2705.588999952306,completion,,,,,,,low,low,,,,,,,false,,,,,true,498586.59999990463,498586.2999999523,495863.788,495866.2999999523,495880.711,498597.347,1,40,,
trial,html.Screen,8_17_0,2023-11-27T19:08:16.438Z,,,,2,0.0086413421586899,0.0360184993500958,,0.04,true,hh,10285.352999809256,response,0.8579451262594331,0.863090491797014,-1.0999999999999999,0.8472659344792351,0.8451071012449796,-1.0499999999999998,high,high,,ISIC_0010767.JPG,,ISIC_0067172.JPG,28,56,false,0.1,hh,keypress(i),0,true,508882.89999985695,508882.69999980927,498580.589,498586.69999980927,498597.347,508897.298,1,40,18,
sequence,flow.Sequence,8_17,2023-11-27T19:08:16.438Z,,,,,,,,,,,10285.352999809256,completion,,,,,,,high,high,,,,,,,false,,,,,true,508883.19999980927,508882.69999980927,498580.589,498586.69999980927,498597.347,508897.298,1,40,,
trial,html.Screen,8_18_0,2023-11-27T19:08:23.022Z,,,,2,0.0365981355399771,0.0162670920008846,,0.04,false,lh,6569.5019999523065,response,-0.9448560599810628,0.863090491797014,-1.0999999999999999,0.9099421612683488,0.802605530369334,-1.0499999999999998,low,high,,ISIC_0982855.JPG,,ISIC_9684318.JPG,28,29,false,0.18000000000000005,hl,keypress(j),0,true,515467,515466.7999999523,508880.446,508883.2999999523,508897.298,515480.65,1,40,19,
sequence,flow.Sequence,8_18,2023-11-27T19:08:23.023Z,,,,,,,,,,,6569.5019999523065,completion,,,,,,,low,high,,,,,,,false,,,,,true,515467.39999985695,515466.7999999523,508880.446,508883.2999999523,508897.298,515480.65,1,40,,
trial,html.Screen,8_19_0,2023-11-27T19:08:27.134Z,,,,2,-0.00126575685933,-0.0325046559638838,,0.04,true,hl,4098.449999904609,response,0.6899115458415905,0.863090491797014,-1.15,-1.1859040095641875,0.8526055303693341,-1.0499999999999998,high,low,,ISIC_5682259.JPG,,ISIC_0028967.JPG,28,27,false,0.19000000000000006,hl,keypress(j),0,true,519579.39999985695,519579.09999990463,515463.86,515467.59999990463,515480.65,519598.389,1,40,20,
sequence,flow.Sequence,8_19,2023-11-27T19:08:27.135Z,,,,,,,,,,,4098.449999904609,completion,,,,,,,high,low,,,,,,,false,,,,,true,519579.69999980927,519579.09999990463,515463.86,515467.59999990463,515480.65,519598.389,1,40,,
trial,html.Screen,8_20_0,2023-11-27T19:08:34.686Z,,,,2,-0.0050679133050021,-0.0174815595031679,,0.04,false,ll,7532.610999999975,response,-1.109729032348591,0.813090491797014,-1.15,-0.9587230726994566,0.8526055303693341,-0.9999999999999998,low,low,,ISIC_9848743.JPG,,ISIC_0055289.JPG,28,29,false,0.11,hl,keypress(j),0,true,527131.1999998093,527131,519563.991,519579.7999999523,519598.389,527147.301,1,40,21,
sequence,flow.Sequence,8_20,2023-11-27T19:08:34.687Z,,,,,,,,,,,7532.610999999975,completion,,,,,,,low,low,,,,,,,false,,,,,true,527131.5999999046,527131,519563.991,519579.7999999523,519598.389,527147.301,1,40,,
trial,html.Screen,8_21_0,2023-11-27T19:08:38.990Z,,,,2,0.0361875505619981,-0.0291457404567876,,0.04,false,hl,4287.298999904655,response,0.8152354890677903,0.813090491797014,-1.15,-1.10470584815077,0.8526055303693341,-0.9999999999999998,high,low,,ISIC_0027480.JPG,,ISIC_0010283.JPG,28,27,false,0.16000000000000003,ll,keypress(f),0,true,531434.7999999523,531434.5999999046,527130.625,527131.6999998093,527147.301,531447.425,1,40,22,
sequence,flow.Sequence,8_21,2023-11-27T19:08:38.990Z,,,,,,,,,,,4287.298999904655,completion,,,,,,,high,low,,,,,,,false,,,,,true,531434.899999857,531434.5999999046,527130.625,527131.6999998093,527147.301,531447.425,1,40,,
trial,html.Screen,8_22_0,2023-11-27T19:08:42.254Z,,,,2,-0.0077673378094614,-0.0021810768579373,,0.04,true,ll,3250.8749999522697,response,-1.0710981257723884,0.863090491797014,-1.15,-0.9983143500894516,0.8526055303693341,-0.9817144604251133,low,low,,ISIC_0067621.JPG,,ISIC_0026652.JPG,28,26,false,0.1,ll,keypress(f),0,true,534698.5,534698.2999999523,531430.507,531435.0999999046,531447.425,534714.085,1,40,23,
sequence,flow.Sequence,8_22,2023-11-27T19:08:42.254Z,,,,,,,,,,,3250.8749999522697,completion,,,,,,,low,low,,,,,,,false,,,,,true,534698.5999999046,534698.2999999523,531430.507,531435,531447.425,534714.085,1,40,,
trial,html.Screen,8_23_0,2023-11-27T19:08:46.054Z,,,,2,0.0127320821962457,-0.0315308940184827,,0.04,false,hl,3784.9150000000373,response,1.0003671514840182,0.863090491797014,-1.15,-0.8992716557663581,0.8526055303693341,-0.9817144604251133,high,low,,ISIC_8156101.JPG,,ISIC_0061749.JPG,28,25,false,0.15000000000000002,ll,keypress(f),0,true,538499.1999998093,538499,534697.274,534698.6999998093,534714.085,538514.039,1,40,24,
sequence,flow.Sequence,8_23,2023-11-27T19:08:46.055Z,,,,,,,,,,,3784.9150000000373,completion,,,,,,,high,low,,,,,,,false,,,,,true,538499.5999999046,538499,534697.274,534698.6999998093,534714.085,538514.039,1,40,,
trial,html.Screen,8_24_0,2023-11-27T19:08:49.494Z,,,,2,0.0199897690678184,0.0312486875504497,,0.04,true,hh,3424.6609998092754,response,0.8140661970625187,0.9130904917970141,-1.15,0.9400174940212648,0.8526055303693341,-0.8987930029279048,high,high,,ISIC_5482426.JPG,,ISIC_0000957.JPG,28,41,false,0.1,hh,keypress(i),0,true,541938.7999999523,541938.6999998093,538497.335,538499.7999999523,538514.039,541947.286,1,40,25,
sequence,flow.Sequence,8_24,2023-11-27T19:08:49.494Z,,,,,,,,,,,3424.6609998092754,completion,,,,,,,high,high,,,,,,,false,,,,,true,541938.899999857,541938.6999998093,538497.335,538499.6999998093,538514.039,541947.286,1,40,,
trial,html.Screen,8_25_0,2023-11-27T19:08:51.870Z,,,,2,0.0361875505619981,-0.0291457404567876,,0.04,false,lh,2367.313999904669,response,-1.082730232773217,0.9130904917970141,-1.15,0.8833175387485132,0.8526055303693341,-0.8987930029279048,low,high,,ISIC_0027480.JPG,,ISIC_0011933.JPG,28,27,false,0.22000000000000008,ll,keypress(f),0,true,544314.899999857,544314.5999999046,541930.676,541939,541947.286,544330.65,1,40,26,
sequence,flow.Sequence,8_25,2023-11-27T19:08:51.870Z,,,,,,,,,,,2367.313999904669,completion,,,,,,,low,high,,,,,,,false,,,,,true,544315.0999999046,544314.5999999046,541930.676,541939,541947.286,544330.65,1,40,,
trial,html.Screen,8_26_0,2023-11-27T19:08:57.733Z,,,,2,0.0365981355399771,0.0162670920008846,,0.04,false,lh,5847.249999856926,response,-0.9128554359750156,0.9130904917970141,-1.0999999999999999,0.739303798149096,0.9026055303693341,-0.8987930029279048,low,high,,ISIC_0982855.JPG,,ISIC_0030985.JPG,28,28,false,0.21000000000000008,ll,keypress(f),0,true,550178.0999999046,550177.899999857,544314.086,544315.1999998093,544330.65,550180.645,1,40,27,
sequence,flow.Sequence,8_26,2023-11-27T19:08:57.733Z,,,,,,,,,,,5847.249999856926,completion,,,,,,,low,high,,,,,,,false,,,,,true,550178.1999998093,550177.899999857,544314.086,544315.1999998093,544330.65,550180.645,1,40,,
trial,html.Screen,8_27_0,2023-11-27T19:08:59.685Z,,,,2,-0.012810673904807,0.00400964452501,,0.04,true,ll,1949.5549998092465,response,-1.0007734170042946,0.9130904917970141,-1.0999999999999999,-0.9394007494897862,0.9526055303693342,-0.8987930029279048,low,low,,ISIC_0064656.JPG,,ISIC_0053791.JPG,28,45,false,0.1,ll,keypress(f),0,true,552130.2999999523,552130.1999998093,550164.022,550178.2999999523,550180.645,552164.172,1,40,28,
sequence,flow.Sequence,8_27,2023-11-27T19:08:59.686Z,,,,,,,,,,,1949.5549998092465,completion,,,,,,,low,low,,,,,,,false,,,,,true,552130.399999857,552130.1999998093,550164.022,550178.1999998093,550180.645,552164.172,1,40,,
trial,html.Screen,8_28_0,2023-11-27T19:09:10.256Z,,,,2,-0.0023664502831079,-0.0252784582169994,,0.04,false,hh,10535.127999952296,response,0.9597587651037712,0.9130904917970141,-0.9200870832470404,0.8860066980618031,0.9526055303693342,-0.8987930029279048,high,high,,ISIC_4156010.JPG,,ISIC_7534592.JPG,28,33,false,0.1,ll,keypress(f),0,true,562699.5999999046,562699.2999999523,552147.413,552130.399999857,552164.172,562714.04,1,40,29,
sequence,flow.Sequence,8_28,2023-11-27T19:09:10.256Z,,,,,,,,,,,10535.127999952296,completion,,,,,,,high,high,,,,,,,false,,,,,true,562700,562699.2999999523,552147.413,552130.399999857,552164.172,562714.04,1,40,,
trial,html.Screen,8_29_0,2023-11-27T19:09:14.326Z,,,,2,0.0327772618698018,-0.0056908372048728,,0.04,true,hh,4056.159999809228,response,0.894033318100927,0.9630904917970141,-0.9200870832470404,0.9842451068179496,1.0026055303693342,-0.8987930029279048,high,high,,ISIC_7897925.JPG,,ISIC_0015298.JPG,28,27,false,0.1,hh,keypress(i),0,true,566770.2999999523,566770.1999998093,562696.996,562700.1999998093,562714.04,566780.67,1,40,30,
sequence,flow.Sequence,8_29,2023-11-27T19:09:14.326Z,,,,,,,,,,,4056.159999809228,completion,,,,,,,high,high,,,,,,,false,,,,,true,566770.399999857,566770.1999998093,562696.996,562700.1999998093,562714.04,566780.67,1,40,,
trial,html.Screen,8_30_0,2023-11-27T19:09:17.367Z,,,,2,-0.0071892445601978,0.0246015408628738,,0.04,false,lh,3029.9299999045907,response,-0.7770090828713646,0.9630904917970141,-0.9200870832470404,0.8312841515328998,1.0026055303693342,-0.8987930029279048,low,high,,ISIC_0014133.JPG,,ISIC_9072034.JPG,28,30,false,0.18000000000000005,hh,keypress(i),0,true,569810.7999999523,569810.5999999046,566763.981,566770.5,566780.67,569814.011,1,40,31,
sequence,flow.Sequence,8_30,2023-11-27T19:09:17.367Z,,,,,,,,,,,3029.9299999045907,completion,,,,,,,low,high,,,,,,,false,,,,,true,569811.0999999046,569810.5999999046,566763.981,566770.5,566780.67,569814.011,1,40,,
trial,html.Screen,8_31_0,2023-11-27T19:09:22.111Z,,,,2,-0.0350697500805515,-0.0166617848231997,,0.04,true,hl,4741.188999809208,response,0.8644465729542988,0.9630904917970141,-0.9700870832470404,-0.8679598285079457,0.8577646291754246,-0.8987930029279048,high,low,,ISIC_0024423.JPG,,ISIC_6718969.JPG,28,27,false,0.17000000000000004,hl,keypress(j),0,true,574555.399999857,574555.1999998093,569797.42,569811.1999998093,569814.011,574564.044,1,40,32,
sequence,flow.Sequence,8_31,2023-11-27T19:09:22.112Z,,,,,,,,,,,4741.188999809208,completion,,,,,,,high,low,,,,,,,false,,,,,true,574555.7999999523,574555.1999998093,569797.42,569811.1999998093,569814.011,574564.044,1,40,,
trial,html.Screen,8_32_0,2023-11-27T19:09:32.006Z,,,,2,-0.0350697500805515,-0.0166617848231997,,0.04,false,hl,9886.255999952322,response,0.7622914383475332,0.9130904917970141,-0.9700870832470404,-0.8883896910883083,0.8577646291754246,-0.8487930029279047,high,low,,ISIC_0024423.JPG,,ISIC_0032005.JPG,28,29,false,0.16000000000000003,ll,keypress(f),0,true,584450.399999857,584450.2999999523,574547.315,574556,574564.044,584464.016,1,40,33,
sequence,flow.Sequence,8_32,2023-11-27T19:09:32.007Z,,,,,,,,,,,9886.255999952322,completion,,,,,,,high,low,,,,,,,false,,,,,true,584450.5999999046,584450.2999999523,574547.315,574556,574564.044,584464.016,1,40,,
trial,html.Screen,8_33_0,2023-11-27T19:09:37.288Z,,,,2,-0.0118555311043871,-0.0087774532070196,,0.04,false,lh,5267.283999952371,response,-1.085089185942698,0.9630904917970141,-0.9700870832470404,0.7657798385266591,0.8577646291754246,-0.8487930029279047,low,high,,ISIC_6488658.JPG,,ISIC_2283628.JPG,28,26,false,0.16000000000000003,ll,keypress(f),0,true,589731.5999999046,589731.2999999523,584447.152,584450.6999998093,584464.016,589747.378,1,40,34,
sequence,flow.Sequence,8_33,2023-11-27T19:09:37.288Z,,,,,,,,,,,5267.283999952371,completion,,,,,,,low,high,,,,,,,false,,,,,true,589732,589731.2999999523,584447.152,584450.6999998093,584464.016,589747.378,1,40,,
trial,html.Screen,8_34_0,2023-11-27T19:09:44.071Z,,,,2,-0.0158987717472563,-0.0292472192292015,,0.04,false,lh,6767.321999809239,response,-1.085089185942698,0.9630904917970141,-0.9700870832470404,0.7657798385266591,0.9077646291754247,-0.8487930029279047,low,high,,ISIC_1366765.JPG,,ISIC_2283628.JPG,28,26,false,0.18000000000000005,ll,keypress(f),0,true,596514.899999857,596514.6999998093,589730.746,589732.0999999046,589747.378,596530.722,1,40,35,
sequence,flow.Sequence,8_34,2023-11-27T19:09:44.071Z,,,,,,,,,,,6767.321999809239,completion,,,,,,,low,high,,,,,,,false,,,,,true,596515.0999999046,596514.6999998093,589730.746,589732.0999999046,589747.378,596530.722,1,40,,
trial,html.Screen,8_35_0,2023-11-27T19:09:54.367Z,,,,2,0.0063515208248796,0.0194177605767913,,0.04,true,hl,10279.977999809314,response,0.9394943755829636,0.9630904917970141,-1.035089185942698,-0.7928025019302636,0.9577646291754247,-0.8487930029279047,high,low,,ISIC_5281908.JPG,,ISIC_0071550.JPG,28,28,false,0.16000000000000003,hl,keypress(j),0,true,606811,606810.6999998093,596513.882,596515.1999998093,596530.722,606830.741,1,40,36,
sequence,flow.Sequence,8_35,2023-11-27T19:09:54.368Z,,,,,,,,,,,10279.977999809314,completion,,,,,,,high,low,,,,,,,false,,,,,true,606811.5,606810.6999998093,596513.882,596515.1999998093,596530.722,606830.741,1,40,,
trial,html.Screen,8_36_0,2023-11-27T19:10:06.488Z,,,,2,0.0199897690678184,0.0312486875504497,,0.04,false,lh,12099.858999904594,response,-1.155796217969438,0.9630904917970141,-1.035089185942698,1.1646564121743912,0.9577646291754247,-0.7987930029279047,low,high,,ISIC_5482426.JPG,,ISIC_2685523.JPG,28,26,false,0.21000000000000008,ll,keypress(f),0,true,618930.899999857,618930.5999999046,606797.271,606811.6999998093,606830.741,618947.376,1,40,37,
sequence,flow.Sequence,8_36,2023-11-27T19:10:06.488Z,,,,,,,,,,,12099.858999904594,completion,,,,,,,low,high,,,,,,,false,,,,,true,618931,618930.5999999046,606797.271,606811.6999998093,606830.741,618947.376,1,40,,
trial,html.Screen,8_37_0,2023-11-27T19:10:09.447Z,,,,2,-0.00126575685933,-0.0325046559638838,,0.04,false,hl,2942.923999952269,response,0.8070820195894357,0.9630904917970141,-1.035089185942698,-0.8958120092147633,1.0077646291754248,-0.7987930029279047,high,low,,ISIC_5682259.JPG,,ISIC_0060585.JPG,28,32,false,0.16000000000000003,ll,keypress(f),0,true,621890.5,621890.2999999523,618930.436,618931.0999999046,618947.376,621897.432,1,40,38,
sequence,flow.Sequence,8_37,2023-11-27T19:10:09.448Z,,,,,,,,,,,2942.923999952269,completion,,,,,,,high,low,,,,,,,false,,,,,true,621890.6999998093,621890.2999999523,618930.436,618931.0999999046,618947.376,621897.432,1,40,,
trial,html.Screen,8_38_0,2023-11-27T19:10:15.287Z,,,,2,-0.0377791839943904,0.0227626648172468,,0.04,true,hh,5832.667999904603,response,1.0668742262335038,1.013090491797014,-1.035089185942698,0.9013677148468237,1.0077646291754248,-0.7987930029279047,high,high,,ISIC_7167479.JPG,,ISIC_1658623.JPG,28,26,false,0.11,hh,keypress(i),0,true,627730.1999998093,627730.0999999046,621880.898,621890.7999999523,621897.432,627747.483,1,40,39,
sequence,flow.Sequence,8_38,2023-11-27T19:10:15.287Z,,,,,,,,,,,5832.667999904603,completion,,,,,,,high,high,,,,,,,false,,,,,true,627730.399999857,627730.0999999046,621880.898,621890.7999999523,621897.432,627747.483,1,40,,
trial,html.Screen,8_39_0,2023-11-27T19:10:19.944Z,,,,2,-0.0060918352854008,0.029032683404407,,0.04,true,ll,4639.716999809258,response,-1.008094916937765,1.013090491797014,-1.035089185942698,-0.8318935997015064,1.0077646291754248,-0.7987930029279047,low,low,,ISIC_8436194.JPG,,ISIC_0032751.JPG,28,39,false,0.1,ll,keypress(f),0,true,632387.399999857,632387.1999998093,627730.601,627730.399999857,627747.483,632397.433,1,40,40,
sequence,flow.Sequence,8_39,2023-11-27T19:10:19.945Z,,,,,,,,,,,4639.716999809258,completion,,,,,,,low,low,,,,,,,false,,,,,true,632387.7999999523,632387.1999998093,627730.601,627730.399999857,627747.483,632397.433,1,40,,
stair_loop,flow.Loop,8,2023-11-27T19:10:19.945Z,,,,,,,,,,,208390.04999980924,completion,,,,,,,,,,,,,,,false,,,,,true,632388,632387.1999998093,423980.464,423994.2999999523,423997.15,632397.433,1,40,,
exp_instructions,html.Screen,9,2023-11-27T19:10:36.328Z,,,,,,,,,,,16372.866999952355,response,,,,,,,,,,,,,,,,,continue,keypress(Space),,,648771.0999999046,648770.2999999523,632380.87,632388,632397.433,648780.765,,,,
trial,html.Screen,10_0_0,2023-11-27T19:10:40.056Z,,,,1,-0.0166849894750452,0.0371614812368835,,0.04,false,lh,3718.234999999986,response,-0.8561946552009824,0.9280904917970145,-1.0458027756221386,0.9282171889213044,0.9174271248320751,-0.8872058483848353,low,high,,ISIC_6231450.JPG,9,ISIC_3065032.JPG,28,25,false,0.19000000000000006,hh,keypress(i),0,false,652499.2999999523,652499,648763.677,648771.399999857,648780.765,652514.182,5,600,1,
break,html.Screen,10_0_1,2023-11-27T19:10:40.057Z,,,,,,,,,,,NaN,,,,,,,,low,high,,,,,,,false,,,,,false,652500.5,652500.0999999046,,652499.5999999046,,652514.182,5,600,,
break_continue,html.Screen,10_0_2,2023-11-27T19:10:40.058Z,,,,,,,,,,,NaN,,,,,,,,low,high,,,,,,,false,,,,,false,652501.399999857,652501,,652500.6999998093,,652514.182,5,600,,
sequence,flow.Sequence,10_0,2023-11-27T19:10:40.058Z,,,,,,,,,,,3720.234999999986,completion,,,,,,,low,high,,,,,,,false,,,,,false,652501.5999999046,652501,648763.677,648771.399999857,648780.765,652514.182,5,600,,
trial,html.Screen,10_1_0,2023-11-27T19:10:50.256Z,,,,1,-0.0060934073440827,-0.0279108145883031,,0.04,false,hl,10184.617999952286,response,0.7898684912324617,0.9280904917970145,-1.0458027756221386,-0.8342581908806269,0.9174271248320751,-0.8872058483848353,high,low,,ISIC_0032604.JPG,8,ISIC_0046537.JPG,28,26,false,0.17000000000000004,hh,keypress(i),0,false,662698.899999857,662698.7999999523,652497.462,652501.6999998093,652514.182,662714.194,5,600,2,
break,html.Screen,10_1_1,2023-11-27T19:10:50.257Z,,,,,,,,,,,NaN,,,,,,,,high,low,,,,,,,false,,,,,false,662699.899999857,662699.5,,662699.1999998093,,662714.194,5,600,,
break_continue,html.Screen,10_1_2,2023-11-27T19:10:50.257Z,,,,,,,,,,,NaN,,,,,,,,high,low,,,,,,,false,,,,,false,662700.5,662700.399999857,,662700.0999999046,,662714.194,5,600,,
sequence,flow.Sequence,10_1,2023-11-27T19:10:50.258Z,,,,,,,,,,,10186.217999856919,completion,,,,,,,high,low,,,,,,,false,,,,,false,662700.6999998093,662700.399999857,652497.462,652501.6999998093,652514.182,662714.194,5,600,,
trial,html.Screen,10_2_0,2023-11-27T19:10:57.015Z,,,,1,-0.0057914759495055,0.018500200317654,,0.04,true,hh,6743.905999904615,response,0.9487751044258608,0.9280904917970145,-1.0458027756221386,0.9230722071334148,0.9174271248320751,-0.8872058483848353,high,high,,ISIC_0058723.JPG,10,ISIC_4568084.JPG,28,33,false,0.1,hh,keypress(i),0,false,669458.2999999523,669458.0999999046,662697.442,662700.899999857,662714.194,669464.147,5,600,3,
break,html.Screen,10_2_1,2023-11-27T19:10:57.016Z,,,,,,,,,,,NaN,,,,,,,,high,high,,,,,,,false,,,,,false,669458.6999998093,669458.5999999046,,669458.399999857,,669464.147,5,600,,
break_continue,html.Screen,10_2_2,2023-11-27T19:10:57.016Z,,,,,,,,,,,NaN,,,,,,,,high,high,,,,,,,false,,,,,false,669459,669458.899999857,,669458.7999999523,,669464.147,5,600,,
sequence,flow.Sequence,10_2,2023-11-27T19:10:57.016Z,,,,,,,,,,,6744.705999856931,completion,,,,,,,high,high,,,,,,,false,,,,,false,669459,669458.899999857,662697.442,662700.7999999523,662714.194,669464.147,5,600,,
trial,html.Screen,10_3_0,2023-11-27T19:11:05.674Z,,,,1,-0.0060918352854008,0.029032683404407,,0.04,false,hl,8651.353000000003,response,0.8591294258188253,0.9280904917970145,-1.0458027756221386,-0.870797302150167,0.9174271248320751,-0.8872058483848353,high,low,,ISIC_8436194.JPG,9,ISIC_0055841.JPG,28,26,false,0.17000000000000004,hh,keypress(i),0,false,678115.7999999523,678115.5,669447.348,669459.1999998093,669464.147,678130.859,5,600,4,
break,html.Screen,10_3_1,2023-11-27T19:11:05.675Z,,,,,,,,,,,NaN,,,,,,,,high,low,,,,,,,false,,,,,false,678116.7999999523,678116.399999857,,678116.0999999046,,678130.859,5,600,,
break_continue,html.Screen,10_3_2,2023-11-27T19:11:05.675Z,,,,,,,,,,,NaN,,,,,,,,high,low,,,,,,,false,,,,,false,678117.399999857,678117.0999999046,,678116.899999857,,678130.859,5,600,,
sequence,flow.Sequence,10_3,2023-11-27T19:11:05.675Z,,,,,,,,,,,8652.952999904635,completion,,,,,,,high,low,,,,,,,false,,,,,false,678117.5999999046,678117.0999999046,669447.348,669459.0999999046,669464.147,678130.859,5,600,,
trial,html.Screen,10_4_0,2023-11-27T19:11:16.305Z,,,,1,-0.0023664502831079,-0.0252784582169994,,0.04,false,ll,10616.240999904578,response,-1.1399925754091549,0.9280904917970145,-1.0458027756221386,-0.92577667404992,0.9174271248320751,-0.8872058483848353,low,low,,ISIC_4156010.JPG,10,ISIC_7331345.JPG,28,45,false,0.1,lh,keypress(e),0,false,688747.399999857,688747.0999999046,678114.172,678117.6999998093,678130.859,688764.132,5,600,5,
break,html.Screen,10_4_1,2023-11-27T19:11:16.306Z,,,,,,,,,,,NaN,,,,,,,,low,low,,,,,,,false,,,,,false,688748.5,688748.0999999046,,688747.7999999523,,688764.132,5,600,,
break_continue,html.Screen,10_4_2,2023-11-27T19:11:16.307Z,,,,,,,,,,,NaN,,,,,,,,low,low,,,,,,,false,,,,,false,688749,688748.7999999523,,688748.5999999046,,688764.132,5,600,,
sequence,flow.Sequence,10_4,2023-11-27T19:11:16.307Z,,,,,,,,,,,10617.940999952261,completion,,,,,,,low,low,,,,,,,false,,,,,false,688749.1999998093,688748.7999999523,678114.172,678117.6999998093,678130.859,688764.132,5,600,,
trial,html.Screen,10_5_0,2023-11-27T19:11:18.769Z,,,,1,0.0361875505619981,-0.0291457404567876,,0.04,true,hh,2447.067999809282,response,0.8285454085852607,0.9280904917970145,-1.0458027756221386,0.8539676082936701,0.9174271248320751,-0.8872058483848353,high,high,,ISIC_0027480.JPG,9,ISIC_2131707.JPG,28,33,false,0.1,hh,keypress(i),0,false,691211.5,691211.1999998093,688747.628,688749.399999857,688764.132,691230.858,5,600,6,
break,html.Screen,10_5_1,2023-11-27T19:11:18.770Z,,,,,,,,,,,NaN,,,,,,,,high,high,,,,,,,false,,,,,false,691212.399999857,691212.0999999046,,691211.6999998093,,691230.858,5,600,,
break_continue,html.Screen,10_5_2,2023-11-27T19:11:18.771Z,,,,,,,,,,,NaN,,,,,,,,high,high,,,,,,,false,,,,,false,691212.899999857,691212.5999999046,,691212.5,,691230.858,5,600,,
sequence,flow.Sequence,10_5,2023-11-27T19:11:18.771Z,,,,,,,,,,,2448.4679999046493,completion,,,,,,,high,high,,,,,,,false,,,,,false,691213.0999999046,691212.5999999046,688747.628,688749.399999857,688764.132,691230.858,5,600,,
trial,html.Screen,10_6_0,2023-11-27T19:11:25.217Z,,,,1,-0.0158987717472563,-0.0292472192292015,,0.04,false,lh,6428.341999809258,response,-0.9873794329144926,0.9280904917970145,-1.0458027756221386,0.9500689037516484,0.9174271248320751,-0.8872058483848353,low,high,,ISIC_1366765.JPG,8,ISIC_0013498.JPG,28,25,false,0.19000000000000006,hl,keypress(j),0,false,697659.399999857,697659.1999998093,691197.451,691213.1999998093,691230.858,697664.222,5,600,7,
break,html.Screen,10_6_1,2023-11-27T19:11:25.218Z,,,,,,,,,,,NaN,,,,,,,,low,high,,,,,,,false,,,,,false,697660.399999857,697660.0999999046,,697659.6999998093,,697664.222,5,600,,
break_continue,html.Screen,10_6_2,2023-11-27T19:11:25.219Z,,,,,,,,,,,NaN,,,,,,,,low,high,,,,,,,false,,,,,false,697661,697660.7999999523,,697660.5999999046,,697664.222,5,600,,
sequence,flow.Sequence,10_6,2023-11-27T19:11:25.219Z,,,,,,,,,,,6429.941999952309,completion,,,,,,,low,high,,,,,,,false,,,,,false,697661.1999998093,697660.7999999523,691197.451,691213.1999998093,691230.858,697664.222,5,600,,
trial,html.Screen,10_7_0,2023-11-27T19:11:32.064Z,,,,1,-0.0118555311043871,-0.0087774532070196,,0.04,true,lh,6841.9779998093145,response,-0.8688859182707874,0.9280904917970145,-1.0458027756221386,0.9566733172438716,0.9174271248320751,-0.8872058483848353,low,high,,ISIC_6488658.JPG,9,ISIC_0640770.JPG,28,25,false,0.19000000000000006,lh,keypress(e),0,false,704506.2999999523,704506.1999998093,697647.427,697661.399999857,697664.222,704514.199,5,600,8,
break,html.Screen,10_7_1,2023-11-27T19:11:32.065Z,,,,,,,,,,,NaN,,,,,,,,low,high,,,,,,,false,,,,,false,704506.7999999523,704506.6999998093,,704506.5,,704514.199,5,600,,
break_continue,html.Screen,10_7_2,2023-11-27T19:11:32.065Z,,,,,,,,,,,NaN,,,,,,,,low,high,,,,,,,false,,,,,false,704507.0999999046,704507,,704507,,704514.199,5,600,,
sequence,flow.Sequence,10_7,2023-11-27T19:11:32.065Z,,,,,,,,,,,6842.778000000049,completion,,,,,,,low,high,,,,,,,false,,,,,false,704507.1999998093,704507,697647.427,697661.2999999523,697664.222,704514.199,5,600,,
trial,html.Screen,10_8_0,2023-11-27T19:11:35.177Z,,,,1,-0.012020985739544,0.0126097407389903,,0.04,false,lh,3104.600999952294,response,-0.9566823908868002,0.9280904917970145,-1.0458027756221386,0.9602125665128364,0.9174271248320751,-0.8872058483848353,low,high,,ISIC_0069379.JPG,8,ISIC_0056784.JPG,28,25,false,0.19000000000000006,ll,keypress(f),0,false,707618.899999857,707618.7999999523,704497.432,704507.2999999523,704514.199,707647.599,5,600,9,
break,html.Screen,10_8_1,2023-11-27T19:11:35.178Z,,,,,,,,,,,NaN,,,,,,,,low,high,,,,,,,false,,,,,false,707619.7999999523,707619.5,,707619.1999998093,,707647.599,5,600,,
break_continue,html.Screen,10_8_2,2023-11-27T19:11:35.178Z,,,,,,,,,,,NaN,,,,,,,,low,high,,,,,,,false,,,,,false,707620.1999998093,707620,,707619.899999857,,707647.599,5,600,,
sequence,flow.Sequence,10_8,2023-11-27T19:11:35.178Z,,,,,,,,,,,3105.8009999999776,completion,,,,,,,low,high,,,,,,,false,,,,,false,707620.5,707620,704497.432,704507.2999999523,704514.199,707647.599,5,600,,
trial,html.Screen,10_9_0,2023-11-27T19:11:37.353Z,,,,1,0.0127320821962457,-0.0315308940184827,,0.04,false,lh,2146.9009999999544,response,-1.2313629723857695,0.9280904917970145,-1.0458027756221386,0.8233104214456342,0.9174271248320751,-0.8872058483848353,low,high,,ISIC_8156101.JPG,9,ISIC_3475660.JPG,28,25,false,0.19000000000000006,ll,keypress(f),0,false,709794.6999998093,709794.5,707630.855,707620.5999999046,707647.599,709797.535,5,600,10,
break,html.Screen,10_9_1,2023-11-27T19:11:37.353Z,,,,,,,,,,,NaN,,,,,,,,low,high,,,,,,,false,,,,,false,709795.2999999523,709795.1999998093,,709794.899999857,,709797.535,5,600,,
break_continue,html.Screen,10_9_2,2023-11-27T19:11:37.354Z,,,,,,,,,,,NaN,,,,,,,,low,high,,,,,,,false,,,,,false,709795.6999998093,709795.5999999046,,709795.5,,709797.535,5,600,,
sequence,flow.Sequence,10_9,2023-11-27T19:11:37.354Z,,,,,,,,,,,2148.000999904587,completion,,,,,,,low,high,,,,,,,false,,,,,false,709795.899999857,709795.5999999046,707630.855,707620.5,707647.599,709797.535,5,600,,
trial,html.Screen,10_10_0,2023-11-27T19:11:40.456Z,,,,1,0.0086413421586899,0.0360184993500958,,0.04,true,ll,3100.2649999522837,response,-1.0322039773226626,0.9280904917970145,-1.0458027756221386,-0.864695074153971,0.9174271248320751,-0.8872058483848353,low,low,,ISIC_0010767.JPG,10,ISIC_0013707.JPG,28,45,false,0.1,ll,keypress(f),0,false,712897.899999857,712897.7999999523,709780.825,709796,709797.535,712914.198,5,600,11,
break,html.Screen,10_10_1,2023-11-27T19:11:40.456Z,,,,,,,,,,,NaN,,,,,,,,low,low,,,,,,,false,,,,,false,712898.1999998093,712898.0999999046,,712898,,712914.198,5,600,,
break_continue,html.Screen,10_10_2,2023-11-27T19:11:40.456Z,,,,,,,,,,,NaN,,,,,,,,low,low,,,,,,,false,,,,,false,712898.5,712898.399999857,,712898.2999999523,,712914.198,5,600,,
sequence,flow.Sequence,10_10,2023-11-27T19:11:40.456Z,,,,,,,,,,,3100.8649998569163,completion,,,,,,,low,low,,,,,,,false,,,,,false,712898.5,712898.399999857,709780.825,709795.899999857,709797.535,712914.198,5,600,,
trial,html.Screen,10_11_0,2023-11-27T19:11:44.072Z,,,,1,-0.0050679133050021,-0.0174815595031679,,0.04,true,hh,3600.1019999523414,response,1.0275060871969903,0.9280904917970145,-1.0458027756221386,0.9101747326852082,0.9174271248320751,-0.8872058483848353,high,high,,ISIC_9848743.JPG,9,ISIC_9155028.JPG,28,33,false,0.1,hh,keypress(i),0,false,716514.399999857,716514.2999999523,712897.44,712898.5,712914.198,716530.928,5,600,12,
break,html.Screen,10_11_1,2023-11-27T19:11:44.073Z,,,,,,,,,,,NaN,,,,,,,,high,high,,,,,,,false,,,,,false,716514.899999857,716514.6999998093,,716514.5999999046,,716530.928,5,600,,
break_continue,html.Screen,10_11_2,2023-11-27T19:11:44.073Z,,,,,,,,,,,NaN,,,,,,,,high,high,,,,,,,false,,,,,false,716515.0999999046,716515,,716514.899999857,,716530.928,5,600,,
sequence,flow.Sequence,10_11,2023-11-27T19:11:44.073Z,,,,,,,,,,,3600.802000000025,completion,,,,,,,high,high,,,,,,,false,,,,,false,716515.0999999046,716515,712897.44,712898.5,712914.198,716530.928,5,600,,
trial,html.Screen,10_12_0,2023-11-27T19:11:47.625Z,,,,1,0.0189295602385628,0.0128812415435153,,0.04,false,hl,3536.271999809309,response,0.8069690440362255,0.9280904917970145,-1.0458027756221386,-0.8262727717500657,0.9174271248320751,-0.8872058483848353,high,low,,ISIC_0010372.JPG,8,ISIC_0028469.JPG,28,26,false,0.17000000000000004,hh,keypress(i),0,false,720067.5,720067.1999998093,716514.25,716515.1999998093,716530.928,720080.88,5,600,13,
break,html.Screen,10_12_1,2023-11-27T19:11:47.626Z,,,,,,,,,,,NaN,,,,,,,,high,low,,,,,,,false,,,,,false,720068.5999999046,720068.2999999523,,720067.899999857,,720080.88,5,600,,
break_continue,html.Screen,10_12_2,2023-11-27T19:11:47.627Z,,,,,,,,,,,NaN,,,,,,,,high,low,,,,,,,false,,,,,false,720069.2999999523,720069,,720068.6999998093,,720080.88,5,600,,
sequence,flow.Sequence,10_12,2023-11-27T19:11:47.627Z,,,,,,,,,,,3538.0720000000438,completion,,,,,,,high,low,,,,,,,false,,,,,false,720069.5,720069,716514.25,716515.1999998093,716530.928,720080.88,5,600,,
trial,html.Screen,10_13_0,2023-11-27T19:11:51.481Z,,,,1,-0.0118555311043871,-0.0087774532070196,,0.04,true,hh,3841.6199999999953,response,1.0236565951660872,0.9280904917970145,-1.0458027756221386,0.9220772824737548,0.9174271248320751,-0.8872058483848353,high,high,,ISIC_6488658.JPG,9,ISIC_3209501.JPG,28,33,false,0.1,hh,keypress(i),0,false,723922.6999998093,723922.5,720064.31,720069.5999999046,720080.88,723930.909,5,600,14,
break,html.Screen,10_13_1,2023-11-27T19:11:51.481Z,,,,,,,,,,,NaN,,,,,,,,high,high,,,,,,,false,,,,,false,723923.1999998093,723923.0999999046,,723922.7999999523,,723930.909,5,600,,
break_continue,html.Screen,10_13_2,2023-11-27T19:11:51.481Z,,,,,,,,,,,NaN,,,,,,,,high,high,,,,,,,false,,,,,false,723923.5,723923.5,,723923.2999999523,,723930.909,5,600,,
sequence,flow.Sequence,10_13,2023-11-27T19:11:51.481Z,,,,,,,,,,,3842.6199999999953,completion,,,,,,,high,high,,,,,,,false,,,,,false,723923.6999998093,723923.5,720064.31,720069.5999999046,720080.88,723930.909,5,600,,
trial,html.Screen,10_14_0,2023-11-27T19:11:55.016Z,,,,1,-0.0399381815506136,-0.0177751789152893,,0.04,true,hh,3527.29099980928,response,0.8285454085852607,0.9280904917970145,-1.0458027756221386,0.8539676082936701,0.9174271248320751,-0.8872058483848353,high,high,,ISIC_3981425.JPG,10,ISIC_2131707.JPG,28,33,false,0.1,hh,keypress(i),0,false,727458.2999999523,727458.1999998093,723914.148,723923.6999998093,723930.909,727464.22,5,600,15,
break,html.Screen,10_14_1,2023-11-27T19:11:55.017Z,,,,,,,,,,,NaN,,,,,,,,high,high,,,,,,,false,,,,,false,727458.6999998093,727458.5999999046,,727458.5,,727464.22,5,600,,
break_continue,html.Screen,10_14_2,2023-11-27T19:11:55.017Z,,,,,,,,,,,NaN,,,,,,,,high,high,,,,,,,false,,,,,false,727458.899999857,727458.899999857,,727458.7999999523,,727464.22,5,600,,
sequence,flow.Sequence,10_14,2023-11-27T19:11:55.017Z,,,,,,,,,,,3527.9909998569638,completion,,,,,,,high,high,,,,,,,false,,,,,false,727459,727458.899999857,723914.148,723923.6999998093,723930.909,727464.22,5,600,,
trial,html.Screen,10_15_0,2023-11-27T19:12:05.386Z,,,,1,-0.0350697500805515,-0.0166617848231997,,0.04,false,hh,10363.079999952344,response,0.8867858784567559,0.9280904917970145,-1.0458027756221386,0.8318206308101198,0.9174271248320751,-0.8872058483848353,high,high,,ISIC_0024423.JPG,10,ISIC_0032494.JPG,28,33,false,0.1,lh,keypress(e),0,false,737827.5999999046,737827.2999999523,727447.64,727459,727464.22,737830.953,5,600,16,
break,html.Screen,10_15_1,2023-11-27T19:12:05.387Z,,,,,,,,,,,NaN,,,,,,,,high,high,,,,,,,false,,,,,false,737828.5,737828.2999999523,,737827.899999857,,737830.953,5,600,,
break_continue,html.Screen,10_15_2,2023-11-27T19:12:05.388Z,,,,,,,,,,,NaN,,,,,,,,high,high,,,,,,,false,,,,,false,737829,737828.7999999523,,737828.6999998093,,737830.953,5,600,,
sequence,flow.Sequence,10_15,2023-11-27T19:12:05.388Z,,,,,,,,,,,10364.579999952344,completion,,,,,,,high,high,,,,,,,false,,,,,false,737829.1999998093,737828.7999999523,727447.64,727459,727464.22,737830.953,5,600,,
trial,html.Screen,10_16_0,2023-11-27T19:12:08.161Z,,,,1,0.0189295602385628,0.0128812415435153,,0.04,true,hh,2771.146999904653,response,1.003694288339796,0.9280904917970145,-1.0458027756221386,0.8462905128253329,0.9174271248320751,-0.8872058483848353,high,high,,ISIC_0010372.JPG,9,ISIC_2876073.JPG,28,33,false,0.1,hh,keypress(i),0,false,740602.1999998093,740602.0999999046,737814.327,737829.399999857,737830.953,740614.25,5,600,17,
break,html.Screen,10_16_1,2023-11-27T19:12:08.161Z,,,,,,,,,,,NaN,,,,,,,,high,high,,,,,,,false,,,,,false,740602.6999998093,740602.5,,740602.399999857,,740614.25,5,600,,
break_continue,html.Screen,10_16_2,2023-11-27T19:12:08.162Z,,,,,,,,,,,NaN,,,,,,,,high,high,,,,,,,false,,,,,false,740602.899999857,740602.7999999523,,740602.6999998093,,740614.25,5,600,,
sequence,flow.Sequence,10_16,2023-11-27T19:12:08.162Z,,,,,,,,,,,2771.846999952337,completion,,,,,,,high,high,,,,,,,false,,,,,false,740603,740602.7999999523,737814.327,737829.399999857,737830.953,740614.25,5,600,,
trial,html.Screen,10_17_0,2023-11-27T19:12:16.785Z,,,,1,-0.0399381815506136,-0.0177751789152893,,0.04,false,hl,8612.449999809265,response,0.9039158082670506,0.9280904917970145,-1.0458027756221386,-1.0517562064343149,0.9174271248320751,-0.8872058483848353,high,low,,ISIC_3981425.JPG,9,ISIC_0015411.JPG,28,26,false,0.17000000000000004,lh,keypress(e),0,false,749226.899999857,749226.6999998093,740597.504,740603.0999999046,740614.25,749230.936,5,600,18,
break,html.Screen,10_17_1,2023-11-27T19:12:16.786Z,,,,,,,,,,,NaN,,,,,,,,high,low,,,,,,,false,,,,,false,749227.399999857,749227.1999998093,,749227,,749230.936,5,600,,
break_continue,html.Screen,10_17_2,2023-11-27T19:12:16.786Z,,,,,,,,,,,NaN,,,,,,,,high,low,,,,,,,false,,,,,false,749227.7999999523,749227.6999998093,,749227.5,,749230.936,5,600,,
sequence,flow.Sequence,10_17,2023-11-27T19:12:16.787Z,,,,,,,,,,,8613.449999809265,completion,,,,,,,high,low,,,,,,,false,,,,,false,749227.899999857,749227.6999998093,740597.504,740603.0999999046,740614.25,749230.936,5,600,,
trial,html.Screen,10_18_0,2023-11-27T19:12:23.953Z,,,,1,-0.0060934073440827,-0.0279108145883031,,0.04,false,hl,7163.363999952329,response,0.7898684912324617,0.9280904917970145,-1.0458027756221386,-0.8342581908806269,0.9174271248320751,-0.8872058483848353,high,low,,ISIC_0032604.JPG,8,ISIC_0046537.JPG,28,26,false,0.17000000000000004,hh,keypress(i),0,false,756394.399999857,756394.2999999523,749214.164,749228,749230.936,756397.597,5,600,19,
break,html.Screen,10_18_1,2023-11-27T19:12:23.953Z,,,,,,,,,,,NaN,,,,,,,,high,low,,,,,,,false,,,,,false,756394.7999999523,756394.6999998093,,756394.5999999046,,756397.597,5,600,,
break_continue,html.Screen,10_18_2,2023-11-27T19:12:23.954Z,,,,,,,,,,,NaN,,,,,,,,high,low,,,,,,,false,,,,,false,756395.0999999046,756395,,756394.899999857,,756397.597,5,600,,
sequence,flow.Sequence,10_18,2023-11-27T19:12:23.954Z,,,,,,,,,,,7164.064000000013,completion,,,,,,,high,low,,,,,,,false,,,,,false,756395.1999998093,756395,749214.164,749227.899999857,749230.936,756397.597,5,600,,
trial,html.Screen,10_19_0,2023-11-27T19:12:27.458Z,,,,1,-0.0057914759495055,0.018500200317654,,0.04,true,ll,3501.7029999523656,response,-1.0215600067367807,0.9280904917970145,-1.0458027756221386,-0.8053078030017172,0.9174271248320751,-0.8872058483848353,low,low,,ISIC_0058723.JPG,8,ISIC_0000173.JPG,28,45,false,0.1,ll,keypress(f),0,false,759899.399999857,759899.2999999523,756380.852,756395.2999999523,756397.597,759914.353,5,600,20,
break,html.Screen,10_19_1,2023-11-27T19:12:27.459Z,,,,,,,,,,,NaN,,,,,,,,low,low,,,,,,,false,,,,,false,759900.2999999523,759900.1999998093,,759899.7999999523,,759914.353,5,600,,
break_continue,html.Screen,10_19_2,2023-11-27T19:12:27.460Z,,,,,,,,,,,NaN,,,,,,,,low,low,,,,,,,false,,,,,false,759901,759900.7999999523,,759900.5999999046,,759914.353,5,600,,
sequence,flow.Sequence,10_19,2023-11-27T19:12:27.460Z,,,,,,,,,,,3503.2029999523656,completion,,,,,,,low,low,,,,,,,false,,,,,false,759901.2999999523,759900.7999999523,756380.852,756395.1999998093,756397.597,759914.353,5,600,,
trial,html.Screen,10_20_0,2023-11-27T19:12:30.897Z,,,,1,-0.0071892445601978,0.0246015408628738,,0.04,true,hh,3423.74699990463,response,0.8997449990565672,0.9280904917970145,-1.0458027756221386,0.9792890899144426,0.9174271248320751,-0.8872058483848353,high,high,,ISIC_0014133.JPG,9,ISIC_0469314.JPG,28,33,false,0.1,hh,keypress(i),0,false,763338.1999998093,763338.0999999046,759897.712,759901.399999857,759914.353,763347.598,5,600,21,
break,html.Screen,10_20_1,2023-11-27T19:12:30.897Z,,,,,,,,,,,NaN,,,,,,,,high,high,,,,,,,false,,,,,false,763338.5,763338.399999857,,763338.2999999523,,763347.598,5,600,,
break_continue,html.Screen,10_20_2,2023-11-27T19:12:30.897Z,,,,,,,,,,,NaN,,,,,,,,high,high,,,,,,,false,,,,,false,763338.6999998093,763338.5999999046,,763338.5999999046,,763347.598,5,600,,
sequence,flow.Sequence,10_20,2023-11-27T19:12:30.897Z,,,,,,,,,,,3424.24699990463,completion,,,,,,,high,high,,,,,,,false,,,,,false,763338.6999998093,763338.5999999046,759897.712,759901.2999999523,759914.353,763347.598,5,600,,
trial,html.Screen,10_21_0,2023-11-27T19:12:35.562Z,,,,1,-0.0350697500805515,-0.0166617848231997,,0.04,false,lh,4655.402000000002,response,-0.8588347582642082,0.9280904917970145,-1.0458027756221386,0.8899503828496784,0.9174271248320751,-0.8872058483848353,low,high,,ISIC_0024423.JPG,9,ISIC_0174983.JPG,28,25,false,0.19000000000000006,hh,keypress(i),0,false,768003.2999999523,768003,763330.991,763338.7999999523,763347.598,768014.343,5,600,22,
break,html.Screen,10_21_1,2023-11-27T19:12:35.563Z,,,,,,,,,,,NaN,,,,,,,,low,high,,,,,,,false,,,,,false,768004.0999999046,768003.899999857,,768003.5,,768014.343,5,600,,
break_continue,html.Screen,10_21_2,2023-11-27T19:12:35.563Z,,,,,,,,,,,NaN,,,,,,,,low,high,,,,,,,false,,,,,false,768004.5999999046,768004.5,,768004.1999998093,,768014.343,5,600,,
sequence,flow.Sequence,10_21,2023-11-27T19:12:35.564Z,,,,,,,,,,,4656.902000000002,completion,,,,,,,low,high,,,,,,,false,,,,,false,768004.899999857,768004.5,763330.991,763338.7999999523,763347.598,768014.343,5,600,,
trial,html.Screen,10_22_0,2023-11-27T19:12:44.202Z,,,,1,-0.00126575685933,-0.0325046559638838,,0.04,false,hl,8628.756999904639,response,0.7785184841253222,0.9280904917970145,-1.0458027756221386,-0.8564302235174217,0.9174271248320751,-0.8872058483848353,high,low,,ISIC_5682259.JPG,8,ISIC_6529073.JPG,28,26,false,0.17000000000000004,lh,keypress(e),0,false,776643.2999999523,776643.0999999046,767997.803,768005,768014.343,776664.3,5,600,23,
break,html.Screen,10_22_1,2023-11-27T19:12:44.203Z,,,,,,,,,,,NaN,,,,,,,,high,low,,,,,,,false,,,,,false,776644.1999998093,776644,,776643.5999999046,,776664.3,5,600,,
break_continue,html.Screen,10_22_2,2023-11-27T19:12:44.203Z,,,,,,,,,,,NaN,,,,,,,,high,low,,,,,,,false,,,,,false,776644.7999999523,776644.5999999046,,776644.399999857,,776664.3,5,600,,
sequence,flow.Sequence,10_22,2023-11-27T19:12:44.204Z,,,,,,,,,,,8630.256999904639,completion,,,,,,,high,low,,,,,,,false,,,,,false,776645,776644.5999999046,767997.803,768005,768014.343,776664.3,5,600,,
trial,html.Screen,10_23_0,2023-11-27T19:12:56.297Z,,,,1,-0.0060934073440827,-0.0279108145883031,,0.04,true,hl,12073.799999904586,response,0.7622914383475332,0.9280904917970145,-1.0458027756221386,-0.8883896910883083,0.9174271248320751,-0.8872058483848353,high,low,,ISIC_0032604.JPG,9,ISIC_0032005.JPG,28,26,false,0.17000000000000004,hl,keypress(j),0,false,788738.1999998093,788738.0999999046,776630.852,776645.1999998093,776664.3,788747.699,5,600,24,
break,html.Screen,10_23_1,2023-11-27T19:12:56.297Z,,,,,,,,,,,NaN,,,,,,,,high,low,,,,,,,false,,,,,false,788738.5,788738.5,,788738.2999999523,,788747.699,5,600,,
break_continue,html.Screen,10_23_2,2023-11-27T19:12:56.297Z,,,,,,,,,,,NaN,,,,,,,,high,low,,,,,,,false,,,,,false,788738.7999999523,788738.6999998093,,788738.5999999046,,788747.699,5,600,,
sequence,flow.Sequence,10_23,2023-11-27T19:12:56.297Z,,,,,,,,,,,12074.399999809219,completion,,,,,,,high,low,,,,,,,false,,,,,false,788738.7999999523,788738.6999998093,776630.852,776645.0999999046,776664.3,788747.699,5,600,,
trial,html.Screen,10_24_0,2023-11-27T19:13:03.322Z,,,,1,0.0189295602385628,0.0128812415435153,,0.04,true,ll,7014.2009998569265,response,-0.985420189652684,0.9280904917970145,-1.0458027756221386,-0.8921028806662099,0.9174271248320751,-0.8872058483848353,low,low,,ISIC_0010372.JPG,9,ISIC_0014982.JPG,28,45,false,0.1,ll,keypress(f),0,false,795762.0999999046,795761.899999857,788730.893,788738.899999857,788747.699,795764.299,5,600,25,
break,html.Screen,10_24_1,2023-11-27T19:13:03.322Z,,,,,,,,,,,NaN,,,,,,,,low,low,,,,,,,false,,,,,false,795762.399999857,795762.2999999523,,795762.1999998093,,795764.299,5,600,,
break_continue,html.Screen,10_24_2,2023-11-27T19:13:03.322Z,,,,,,,,,,,NaN,,,,,,,,low,low,,,,,,,false,,,,,false,795762.5,795762.5,,795762.399999857,,795764.299,5,600,,
sequence,flow.Sequence,10_24,2023-11-27T19:13:03.322Z,,,,,,,,,,,7014.800999999978,completion,,,,,,,low,low,,,,,,,false,,,,,false,795762.5999999046,795762.5,788730.893,788738.899999857,788747.699,795764.299,5,600,,
trial,html.Screen,10_25_0,2023-11-27T19:13:11.106Z,,,,1,0.0321039635696159,0.020496766286318,,0.04,true,lh,7782.400999809266,response,-0.9225524349657857,0.9280904917970145,-1.0458027756221386,0.929746784178986,0.9174271248320751,-0.8872058483848353,low,high,,ISIC_0058063.JPG,10,ISIC_0011077.JPG,28,25,false,0.19000000000000006,lh,keypress(e),0,false,803547,803546.6999998093,795747.647,795762.5999999046,795764.299,803565.528,5,600,26,
break,html.Screen,10_25_1,2023-11-27T19:13:11.107Z,,,,,,,,,,,NaN,,,,,,,,low,high,,,,,,,false,,,,,false,803547.5,803547.2999999523,,803547.0999999046,,803565.528,5,600,,
break_continue,html.Screen,10_25_2,2023-11-27T19:13:11.107Z,,,,,,,,,,,NaN,,,,,,,,low,high,,,,,,,false,,,,,false,803547.7999999523,803547.7999999523,,803547.5999999046,,803565.528,5,600,,
sequence,flow.Sequence,10_25,2023-11-27T19:13:11.108Z,,,,,,,,,,,7783.500999952317,completion,,,,,,,low,high,,,,,,,false,,,,,false,803548.0999999046,803547.7999999523,795747.647,795762.5999999046,795764.299,803565.528,5,600,,
trial,html.Screen,10_26_0,2023-11-27T19:13:23.426Z,,,,1,-0.0077673378094614,-0.0021810768579373,,0.04,false,ll,12300.771999952267,response,-0.9654682925870932,0.9280904917970145,-1.0458027756221386,-0.82001873969981,0.9174271248320751,-0.8872058483848353,low,low,,ISIC_0067621.JPG,9,ISIC_5737704.JPG,28,45,false,0.1,hh,keypress(i),0,false,815866.5,815866.2999999523,803530.958,803548.1999998093,803565.528,815881.063,5,600,27,
break,html.Screen,10_26_1,2023-11-27T19:13:23.426Z,,,,,,,,,,,NaN,,,,,,,,low,low,,,,,,,false,,,,,false,815866.899999857,815866.7999999523,,815866.5999999046,,815881.063,5,600,,
break_continue,html.Screen,10_26_2,2023-11-27T19:13:23.427Z,,,,,,,,,,,NaN,,,,,,,,low,low,,,,,,,false,,,,,false,815867.0999999046,815867,,815867,,815881.063,5,600,,
sequence,flow.Sequence,10_26,2023-11-27T19:13:23.427Z,,,,,,,,,,,12301.47199999995,completion,,,,,,,low,low,,,,,,,false,,,,,false,815867.1999998093,815867,803530.958,803548.0999999046,803565.528,815881.063,5,600,,
trial,html.Screen,10_27_0,2023-11-27T19:13:26.851Z,,,,1,0.0063515208248796,0.0194177605767913,,0.04,false,hl,3409.9370000000345,response,0.7785184841253222,0.9280904917970145,-1.0458027756221386,-0.8564302235174217,0.9174271248320751,-0.8872058483848353,high,low,,ISIC_5281908.JPG,9,ISIC_6529073.JPG,28,26,false,0.17000000000000004,hh,keypress(i),0,false,819291.1999998093,819291,815864.369,815867.2999999523,815881.063,819297.674,5,600,28,
break,html.Screen,10_27_1,2023-11-27T19:13:26.852Z,,,,,,,,,,,NaN,,,,,,,,high,low,,,,,,,false,,,,,false,819292.0999999046,819291.899999857,,819291.5,,819297.674,5,600,,
break_continue,html.Screen,10_27_2,2023-11-27T19:13:26.852Z,,,,,,,,,,,NaN,,,,,,,,high,low,,,,,,,false,,,,,false,819292.5999999046,819292.399999857,,819292.2999999523,,819297.674,5,600,,
sequence,flow.Sequence,10_27,2023-11-27T19:13:26.852Z,,,,,,,,,,,3411.3369998569833,completion,,,,,,,high,low,,,,,,,false,,,,,false,819292.7999999523,819292.399999857,815864.369,815867.2999999523,815881.063,819297.674,5,600,,
trial,html.Screen,10_28_0,2023-11-27T19:13:34.923Z,,,,1,-0.0158987717472563,-0.0292472192292015,,0.04,false,lh,8065.625999952317,response,-1.0700930503975157,0.9280904917970145,-1.0458027756221386,0.923753102263735,0.9174271248320751,-0.8872058483848353,low,high,,ISIC_1366765.JPG,9,ISIC_0000022.JPG,28,25,false,0.19000000000000006,ll,keypress(f),0,false,827363.5,827363.2999999523,819281.175,819293,819297.674,827381.163,5,600,29,
break,html.Screen,10_28_1,2023-11-27T19:13:34.924Z,,,,,,,,,,,NaN,,,,,,,,low,high,,,,,,,false,,,,,false,827364.2999999523,827364.1999998093,,827363.7999999523,,827381.163,5,600,,
break_continue,html.Screen,10_28_2,2023-11-27T19:13:34.925Z,,,,,,,,,,,NaN,,,,,,,,low,high,,,,,,,false,,,,,false,827365,827364.7999999523,,827364.5999999046,,827381.163,5,600,,
sequence,flow.Sequence,10_28,2023-11-27T19:13:34.925Z,,,,,,,,,,,8067.125999952317,completion,,,,,,,low,high,,,,,,,false,,,,,false,827365.1999998093,827364.7999999523,819281.175,819293,819297.674,827381.163,5,600,,
trial,html.Screen,10_29_0,2023-11-27T19:13:39.266Z,,,,1,-0.0077673378094614,-0.0021810768579373,,0.04,false,lh,4324.837000000058,response,-0.9142125020682068,0.9280904917970145,-1.0458027756221386,0.7276522964385869,0.9174271248320751,-0.8872058483848353,low,high,,ISIC_0067621.JPG,9,ISIC_9566964.JPG,28,25,false,0.19000000000000006,hh,keypress(i),0,false,831706.1999998093,831706,827347.812,827365.399999857,827381.163,831714.332,5,600,30,
break,html.Screen,10_29_1,2023-11-27T19:13:39.266Z,,,,,,,,,,,NaN,,,,,,,,low,high,,,,,,,false,,,,,false,831706.5,831706.2999999523,,831706.1999998093,,831714.332,5,600,,
break_continue,html.Screen,10_29_2,2023-11-27T19:13:39.266Z,,,,,,,,,,,NaN,,,,,,,,low,high,,,,,,,false,,,,,false,831706.6999998093,831706.6999998093,,831706.5999999046,,831714.332,5,600,,
sequence,flow.Sequence,10_29,2023-11-27T19:13:39.266Z,,,,,,,,,,,4325.536999809323,completion,,,,,,,low,high,,,,,,,false,,,,,false,831706.7999999523,831706.6999998093,827347.812,827365.2999999523,827381.163,831714.332,5,600,,
trial,html.Screen,10_30_0,2023-11-27T19:13:44.027Z,,,,1,-0.0050679133050021,-0.0174815595031679,,0.04,false,hl,4753.167999999947,response,0.8479396253253069,0.9280904917970145,-1.0458027756221386,-1.011054319516718,0.9174271248320751,-0.8872058483848353,high,low,,ISIC_9848743.JPG,9,ISIC_0063521.JPG,28,26,false,0.17000000000000004,hh,keypress(i),0,false,836467.6999998093,836467.5,831697.575,831706.899999857,831714.332,836481.045,5,600,31,
break,html.Screen,10_30_1,2023-11-27T19:13:44.028Z,,,,,,,,,,,NaN,,,,,,,,high,low,,,,,,,false,,,,,false,836468.6999998093,836468.5,,836468,,836481.045,5,600,,
break_continue,html.Screen,10_30_2,2023-11-27T19:13:44.029Z,,,,,,,,,,,NaN,,,,,,,,high,low,,,,,,,false,,,,,false,836469.399999857,836469.0999999046,,836468.899999857,,836481.045,5,600,,
sequence,flow.Sequence,10_30,2023-11-27T19:13:44.029Z,,,,,,,,,,,4754.7679999045795,completion,,,,,,,high,low,,,,,,,false,,,,,false,836469.5999999046,836469.0999999046,831697.575,831706.899999857,831714.332,836481.045,5,600,,
trial,html.Screen,10_31_0,2023-11-27T19:13:51.290Z,,,,1,0.0361875505619981,-0.0291457404567876,,0.04,false,hl,7249.154999809223,response,0.7622914383475332,0.9280904917970145,-1.0458027756221386,-0.8883896910883083,0.9174271248320751,-0.8872058483848353,high,low,,ISIC_0027480.JPG,9,ISIC_0032005.JPG,28,26,false,0.17000000000000004,lh,keypress(e),0,false,843730.2999999523,843730.1999998093,836464.244,836469.6999998093,836481.045,843748.252,5,600,32,
break,html.Screen,10_31_1,2023-11-27T19:13:51.290Z,,,,,,,,,,,NaN,,,,,,,,high,low,,,,,,,false,,,,,false,843730.5999999046,843730.5,,843730.399999857,,843748.252,5,600,,
break_continue,html.Screen,10_31_2,2023-11-27T19:13:51.290Z,,,,,,,,,,,NaN,,,,,,,,high,low,,,,,,,false,,,,,false,843730.7999999523,843730.7999999523,,843730.6999998093,,843748.252,5,600,,
sequence,flow.Sequence,10_31,2023-11-27T19:13:51.290Z,,,,,,,,,,,7249.754999952274,completion,,,,,,,high,low,,,,,,,false,,,,,false,843730.899999857,843730.7999999523,836464.244,836469.6999998093,836481.045,843748.252,5,600,,
trial,html.Screen,10_32_0,2023-11-27T19:13:55.602Z,,,,1,-0.0118555311043871,-0.0087774532070196,,0.04,false,hl,4294.14799985697,response,0.8069562753553525,0.9280904917970145,-1.0458027756221386,-0.9101764190105358,0.9174271248320751,-0.8872058483848353,high,low,,ISIC_6488658.JPG,10,ISIC_0046596.JPG,28,26,false,0.17000000000000004,ll,keypress(f),0,false,848042.399999857,848042.399999857,843714.303,843730.899999857,843748.252,848047.689,5,600,33,
break,html.Screen,10_32_1,2023-11-27T19:13:55.602Z,,,,,,,,,,,NaN,,,,,,,,high,low,,,,,,,false,,,,,false,848042.7999999523,848042.6999998093,,848042.5999999046,,848047.689,5,600,,
break_continue,html.Screen,10_32_2,2023-11-27T19:13:55.602Z,,,,,,,,,,,NaN,,,,,,,,high,low,,,,,,,false,,,,,false,848042.899999857,848042.899999857,,848042.899999857,,848047.689,5,600,,
sequence,flow.Sequence,10_32,2023-11-27T19:13:55.603Z,,,,,,,,,,,4294.64799985697,completion,,,,,,,high,low,,,,,,,false,,,,,false,848043,848042.899999857,843714.303,843730.899999857,843748.252,848047.689,5,600,,
trial,html.Screen,10_33_0,2023-11-27T19:13:58.810Z,,,,1,-0.0118555311043871,-0.0087774532070196,,0.04,true,hh,3202.710999856936,response,1.003694288339796,0.9280904917970145,-1.0458027756221386,0.8462905128253329,0.9174271248320751,-0.8872058483848353,high,high,,ISIC_6488658.JPG,8,ISIC_2876073.JPG,28,33,false,0.1,hh,keypress(i),0,false,851250.5999999046,851250.399999857,848031.039,848043,848047.689,851264.397,5,600,34,
break,html.Screen,10_33_1,2023-11-27T19:13:58.811Z,,,,,,,,,,,NaN,,,,,,,,high,high,,,,,,,false,,,,,false,851251.1999998093,851251.0999999046,,851250.7999999523,,851264.397,5,600,,
break_continue,html.Screen,10_33_2,2023-11-27T19:13:58.811Z,,,,,,,,,,,NaN,,,,,,,,high,high,,,,,,,false,,,,,false,851251.5,851251.399999857,,851251.2999999523,,851264.397,5,600,,
sequence,flow.Sequence,10_33,2023-11-27T19:13:58.811Z,,,,,,,,,,,3203.710999856936,completion,,,,,,,high,high,,,,,,,false,,,,,false,851251.6999998093,851251.399999857,848031.039,848043,848047.689,851264.397,5,600,,
trial,html.Screen,10_34_0,2023-11-27T19:14:05.460Z,,,,1,0.0127320821962457,-0.0315308940184827,,0.04,false,lh,6634.902999952319,response,-0.9873794329144926,0.9280904917970145,-1.0458027756221386,0.9500689037516484,0.9174271248320751,-0.8872058483848353,low,high,,ISIC_8156101.JPG,9,ISIC_0013498.JPG,28,25,false,0.19000000000000006,hl,keypress(j),0,false,857899.5,857899.2999999523,851247.875,851251.7999999523,851264.397,857931.077,5,600,35,
break,html.Screen,10_34_1,2023-11-27T19:14:05.461Z,,,,,,,,,,,NaN,,,,,,,,low,high,,,,,,,false,,,,,false,857900.399999857,857900.2999999523,,857899.899999857,,857931.077,5,600,,
break_continue,html.Screen,10_34_2,2023-11-27T19:14:05.461Z,,,,,,,,,,,NaN,,,,,,,,low,high,,,,,,,false,,,,,false,857901,857900.7999999523,,857900.5999999046,,857931.077,5,600,,
sequence,flow.Sequence,10_34,2023-11-27T19:14:05.462Z,,,,,,,,,,,6636.402999952319,completion,,,,,,,low,high,,,,,,,false,,,,,false,857901.1999998093,857900.7999999523,851247.875,851251.7999999523,851264.397,857931.077,5,600,,
trial,html.Screen,10_35_0,2023-11-27T19:14:08.675Z,,,,1,0.010035581303589,-0.0100711721396864,,0.04,true,ll,3183.022999904584,response,-1.0193735734252425,0.9280904917970145,-1.0458027756221386,-0.9365358249762208,0.9174271248320751,-0.8872058483848353,low,low,,ISIC_0030592.JPG,9,ISIC_0071951.JPG,28,45,false,0.1,ll,keypress(f),0,false,861114.2999999523,861114.0999999046,857914.477,857901.2999999523,857931.077,861131.3,5,600,36,
break,html.Screen,10_35_1,2023-11-27T19:14:08.675Z,,,,,,,,,,,NaN,,,,,,,,low,low,,,,,,,false,,,,,false,861114.6999998093,861114.6999998093,,861114.5,,861131.3,5,600,,
break_continue,html.Screen,10_35_2,2023-11-27T19:14:08.675Z,,,,,,,,,,,NaN,,,,,,,,low,low,,,,,,,false,,,,,false,861114.7999999523,861114.7999999523,,861114.6999998093,,861131.3,5,600,,
sequence,flow.Sequence,10_35,2023-11-27T19:14:08.675Z,,,,,,,,,,,3183.722999952268,completion,,,,,,,low,low,,,,,,,false,,,,,false,861114.899999857,861114.7999999523,857914.477,857901.2999999523,857931.077,861131.3,5,600,,
trial,html.Screen,10_36_0,2023-11-27T19:14:11.611Z,,,,1,0.0367218428225813,-0.0026956749740767,,0.04,true,hh,2918.799999904586,response,0.9371720357162444,0.9280904917970145,-1.0458027756221386,0.9507421943628228,0.9174271248320751,-0.8872058483848353,high,high,,ISIC_7212271.JPG,9,ISIC_3730327.JPG,28,33,false,0.1,hh,keypress(i),0,false,864050.2999999523,864050.0999999046,861114.391,861115,861131.3,864064.538,5,600,37,
break,html.Screen,10_36_1,2023-11-27T19:14:11.611Z,,,,,,,,,,,NaN,,,,,,,,high,high,,,,,,,false,,,,,false,864050.5999999046,864050.5,,864050.2999999523,,864064.538,5,600,,
break_continue,html.Screen,10_36_2,2023-11-27T19:14:11.611Z,,,,,,,,,,,NaN,,,,,,,,high,high,,,,,,,false,,,,,false,864050.6999998093,864050.6999998093,,864050.5999999046,,864064.538,5,600,,
sequence,flow.Sequence,10_36,2023-11-27T19:14:11.611Z,,,,,,,,,,,2919.3999998092186,completion,,,,,,,high,high,,,,,,,false,,,,,false,864050.7999999523,864050.6999998093,861114.391,861115,861131.3,864064.538,5,600,,
trial,html.Screen,10_37_0,2023-11-27T19:14:15.597Z,,,,1,0.0199897690678184,0.0312486875504497,,0.04,true,ll,3971.661999809323,response,-0.9585938767259125,0.9280904917970145,-1.0458027756221386,-0.8493445183566039,0.9174271248320751,-0.8872058483848353,low,low,,ISIC_5482426.JPG,9,ISIC_0055003.JPG,28,45,false,0.1,ll,keypress(f),0,false,868036.5999999046,868036.1999998093,864047.834,864050.899999857,864064.538,868047.791,5,600,38,
break,html.Screen,10_37_1,2023-11-27T19:14:15.599Z,,,,,,,,,,,NaN,,,,,,,,low,low,,,,,,,false,,,,,false,868038.1999998093,868037.6999998093,,868037.0999999046,,868047.791,5,600,,
break_continue,html.Screen,10_37_2,2023-11-27T19:14:15.599Z,,,,,,,,,,,NaN,,,,,,,,low,low,,,,,,,false,,,,,false,868038.899999857,868038.5999999046,,868038.399999857,,868047.791,5,600,,
