sender,sender_type,sender_id,timestamp,meta,,age,blockNo,c1,c2,condition,control_tolerance,correct,correctResponse,duration,ended_on,f1,f1_high,f1_low,f2,f2_high,f2_low,feature_level1,feature_level2,gender,img_left,img_reveal,img_right,n_control_images,n_target_images,practice,range_tolerance,response,response_action,selection_duration,staircase,time_commit,time_end,time_render,time_run,time_show,time_switch,total_blocks,total_trials,trialNo,url
informed_consent,html.Screen,0,2023-11-20T20:34:54.051Z,"{""labjs_version"":""20.2.4"",""labjs_build"":{""flavor"":""development"",""commit"":""f5b4a49f956347addd546a832a3327688c2c0fef""},""location"":""https://labjs.felixhenninger.com/api/labjs_preview/index.html"",""userAgent"":""Mozilla/5.0 (Windows NT 10.0; Win64; x64) AppleWebKit/537.36 (KHTML, like Gecko) Chrome/119.0.0.0 Safari/537.36"",""platform"":""Win32"",""language"":""en-US"",""locale"":""en-US"",""timeZone"":""America/Chicago"",""timezoneOffset"":360,""screen_width"":1920,""screen_height"":1080,""scroll_width"":945,""scroll_height"":918,""window_innerWidth"":945,""window_innerHeight"":966,""devicePixelRatio"":1}",,,,,,,,,,34900.087,response,,,,,,,,,,,,,,,,,consent,click button,,,35531.89999997616,35523,606.252,841.1000000238419,622.913,35307.668,,,,{}
Demography form,html.Form,1,2023-11-20T20:35:07.372Z,,,22,,,,,,,,13544.23199997616,form submission,,,,,,,,,male,,,,,,,,,,,,48852,48851.89999997616,35291.01,35532.199999928474,35307.668,48637.676,,,,
Welcome,html.Screen,2,2023-11-20T20:35:28.660Z,,,,,,,"[""asym"",""col""]",,,,21501.023999928475,response,,,,,,,,,,,,,,,,,continue,click button,,,70139.29999995232,70138.69999992847,48621.011,48852.10000002384,48637.676,69925.702,,,,
demo_instructions,html.Screen,3,2023-11-20T20:35:45.924Z,,,,,,,,,,,17476.99799992847,response,,,,,,,,,,,,,,,,,continue,click button,,,87403.39999997616,87402.69999992847,69908.912,70139.39999997616,69925.702,87192.932,,,,
trial,html.Screen,4_0_0,2023-11-20T20:35:51.654Z,,,,0,-1.2289750544294995,-1.3003764624334877,,,false,hh,5940.967999976157,response,1.073296525451802,1.2,-1.2,1.3454282740421717,1.2,-1.2,high,high,,ISIC_0054167.JPG,,ISIC_5787312.JPG,,25,true,0.15000000000000002,ll,keypress(f),100,false,93134.10000002384,93133.89999997616,87176.35,87403.5,87192.932,92932.041,1,16,1,
sequence,flow.Sequence,4_0,2023-11-20T20:35:51.664Z,,,,,,,,,,,5940.967999976157,completion,,,,,,,high,high,,,,,,,true,,,,,false,93143.60000002384,93133.89999997616,87176.35,87403.5,87192.932,92932.041,1,16,,
trial,html.Screen,4_1_0,2023-11-20T20:35:59.048Z,,,,0,-1.194799101954455,-1.2071632388858642,,,true,hh,7595.158999928477,response,1.1638334638021437,1.2,-1.2,1.0846635401396965,1.2,-1.2,high,high,,ISIC_4347535.JPG,,ISIC_4718313.JPG,,25,true,0.15000000000000002,hh,keypress(i),100,false,100527.39999997616,100527.19999992847,92915.349,93143.69999992847,92932.041,100322.873,1,16,2,
sequence,flow.Sequence,4_1,2023-11-20T20:35:59.048Z,,,,,,,,,,,7595.158999928477,completion,,,,,,,high,high,,,,,,,true,,,,,false,100527.69999992847,100527.19999992847,92915.349,93143.69999992847,92932.041,100322.873,1,16,,
trial,html.Screen,4_2_0,2023-11-20T20:36:06.686Z,,,,0,-1.2974483548597415,-1.2071506593281005,,,true,hh,7842.826999928468,response,1.1990772227054871,1.2,-1.2,1.1224329926844498,1.2,-1.2,high,high,,ISIC_0011007.JPG,,ISIC_3425388.JPG,,25,true,0.15000000000000002,hh,keypress(i),100,false,108166,108165.69999992847,100306.078,100527.79999995232,100322.873,107963.868,1,16,3,
sequence,flow.Sequence,4_2,2023-11-20T20:36:06.687Z,,,,,,,,,,,7842.826999928468,completion,,,,,,,high,high,,,,,,,true,,,,,false,108166.39999997616,108165.69999992847,100306.078,100527.69999992847,100322.873,107963.868,1,16,,
trial,html.Screen,4_3_0,2023-11-20T20:36:11.287Z,,,,0,-1.2232482867978696,-1.2451219760556858,,,true,hh,4802.931999952314,response,1.1363600109870835,1.2,-1.2,1.295816345369928,1.2,-1.2,high,high,,ISIC_0030889.JPG,,ISIC_0026141.JPG,,25,true,0.15000000000000002,hh,keypress(i),100,false,112767,112766.79999995232,107947.073,108166.60000002384,107963.868,112568.352,1,16,4,
sequence,flow.Sequence,4_3,2023-11-20T20:36:11.288Z,,,,,,,,,,,4802.931999952314,completion,,,,,,,high,high,,,,,,,true,,,,,false,112767.19999992847,112766.79999995232,107947.073,108166.5,107963.868,112568.352,1,16,,
trial,html.Screen,4_4_0,2023-11-20T20:36:16.446Z,,,,0,1.2200968917423711,1.3183466064109373,,,true,ll,5356.748000023843,response,-1.1474466950560966,1.2,-1.2,-1.173734476257662,1.2,-1.2,low,low,,ISIC_3624318.JPG,,ISIC_5216586.JPG,,27,true,0.12,ll,keypress(f),100,false,117925.29999995232,117925.10000002384,112551.639,112767.39999997616,112568.352,117723.476,1,16,5,
sequence,flow.Sequence,4_4,2023-11-20T20:36:16.447Z,,,,,,,,,,,5356.748000023843,completion,,,,,,,low,low,,,,,,,true,,,,,false,117925.60000002384,117925.10000002384,112551.639,112767.29999995232,112568.352,117723.476,1,16,,
trial,html.Screen,4_5_0,2023-11-20T20:36:23.173Z,,,,0,1.3045229691102764,1.1781544075681951,,,true,ll,6928.024000000005,response,-1.078286816527963,1.2,-1.2,-1.1255116193013075,1.2,-1.2,low,low,,ISIC_6148533.JPG,,ISIC_0066213.JPG,,41,true,0.15000000000000002,ll,keypress(f),100,false,124651.79999995232,124651.5,117706.886,117925.69999992847,117723.476,124447.135,1,16,6,
sequence,flow.Sequence,4_5,2023-11-20T20:36:23.173Z,,,,,,,,,,,6928.024000000005,completion,,,,,,,low,low,,,,,,,true,,,,,false,124652,124651.5,117706.886,117925.69999992847,117723.476,124447.135,1,16,,
trial,html.Screen,4_6_0,2023-11-20T20:36:29.789Z,,,,0,1.073296525451802,1.3454282740421717,,,true,ll,6820.965000023847,response,-1.2289750544294995,1.2,-1.2,-1.3003764624334877,1.2,-1.2,low,low,,ISIC_5787312.JPG,,ISIC_0054167.JPG,,41,true,0.15000000000000002,ll,keypress(f),100,false,131268.29999995232,131268.10000002384,124430.183,124652.19999992847,124447.135,131070.197,1,16,7,
sequence,flow.Sequence,4_6,2023-11-20T20:36:29.789Z,,,,,,,,,,,6820.965000023847,completion,,,,,,,low,low,,,,,,,true,,,,,false,131268.5,131268.10000002384,124430.183,124652.10000002384,124447.135,131070.197,1,16,,
trial,html.Screen,4_7_0,2023-11-20T20:36:33.223Z,,,,0,1.1604734171556077,1.0789312625280616,,,true,ll,3631.702999976158,response,-1.1227373144244253,1.2,-1.2,-1.1886610799377713,1.2,-1.2,low,low,,ISIC_3950753.JPG,,ISIC_0059506.JPG,,41,true,0.15000000000000002,ll,keypress(f),100,false,134702.10000002384,134701.89999997616,131053.643,131268.69999992847,131070.197,134506.92,1,16,8,
sequence,flow.Sequence,4_7,2023-11-20T20:36:33.223Z,,,,,,,,,,,3631.702999976158,completion,,,,,,,low,low,,,,,,,true,,,,,false,134702.39999997616,134701.89999997616,131053.643,131268.69999992847,131070.197,134506.92,1,16,,
trial,html.Screen,4_8_0,2023-11-20T20:36:45.617Z,,,,0,0.8644465729542988,-0.8679598285079457,,,true,lh,12589.180000023829,response,-0.8709576717420565,1.2,-1.2,1.2795156779072283,1.2,-1.2,low,high,,ISIC_6718969.JPG,,ISIC_1925632.JPG,,26,true,0.3300000000000002,lh,keypress(e),100,false,147096.5,147096.10000002384,134490.3,134702.39999997616,134506.92,146902.712,1,16,9,
sequence,flow.Sequence,4_8,2023-11-20T20:36:45.618Z,,,,,,,,,,,12589.180000023829,completion,,,,,,,low,high,,,,,,,true,,,,,false,147097.10000002384,147096.10000002384,134490.3,134702.39999997616,134506.92,146902.712,1,16,,
trial,html.Screen,4_9_0,2023-11-20T20:36:56.016Z,,,,0,1.0003671514840182,-0.8992716557663581,,,true,lh,10592.187999976159,response,-0.9225524349657857,1.2,-1.2,0.929746784178986,1.2,-1.2,low,high,,ISIC_0061749.JPG,,ISIC_0011077.JPG,,33,true,0.3600000000000002,lh,keypress(e),100,false,157495.10000002384,157494.89999997616,146886.058,147097.5,146902.712,157296.448,1,16,10,
sequence,flow.Sequence,4_9,2023-11-20T20:36:56.016Z,,,,,,,,,,,10592.187999976159,completion,,,,,,,low,high,,,,,,,true,,,,,false,157495.60000002384,157494.89999997616,146886.058,147097.39999997616,146902.712,157296.448,1,16,,
trial,html.Screen,4_10_0,2023-11-20T20:37:02.795Z,,,,0,0.9013888878932071,-0.9328095253308732,,,true,lh,6977.851999952312,response,-0.8688859182707874,1.2,-1.2,0.9566733172438716,1.2,-1.2,low,high,,ISIC_0068259.JPG,,ISIC_0640770.JPG,,33,true,0.3600000000000002,lh,keypress(e),100,false,164274.5,164274.29999995232,157279.807,157495.69999992847,157296.448,164070.104,1,16,11,
sequence,flow.Sequence,4_10,2023-11-20T20:37:02.796Z,,,,,,,,,,,6977.851999952312,completion,,,,,,,low,high,,,,,,,true,,,,,false,164274.60000002384,164274.29999995232,157279.807,157495.69999992847,157296.448,164070.104,1,16,,
trial,html.Screen,4_11_0,2023-11-20T20:37:09.945Z,,,,0,0.9445114955578736,-1.0054210059625863,,,true,lh,7353.896000000008,response,-0.9448560599810628,1.2,-1.2,0.9099421612683488,1.2,-1.2,low,high,,ISIC_0033807.JPG,,ISIC_9684318.JPG,,33,true,0.3600000000000002,lh,keypress(e),100,false,171424.10000002384,171424,164053.227,164274.69999992847,164070.104,171227.192,1,16,12,
sequence,flow.Sequence,4_11,2023-11-20T20:37:09.945Z,,,,,,,,,,,7353.896000000008,completion,,,,,,,low,high,,,,,,,true,,,,,false,171424.5,171424,164053.227,164274.69999992847,164070.104,171227.192,1,16,,
trial,html.Screen,4_12_0,2023-11-20T20:37:15.072Z,,,,0,-1.052305774554686,1.3940181224717798,,,true,hl,5323.707999976148,response,1.1890109863264902,1.2,-1.2,-0.8867825318561365,1.2,-1.2,high,low,,ISIC_4175400.JPG,,ISIC_0072576.JPG,,29,true,0.3600000000000002,hl,keypress(j),100,false,176551.19999992847,176550.89999997616,171210.4,171424.60000002384,171227.192,176348.837,1,16,13,
sequence,flow.Sequence,4_12,2023-11-20T20:37:15.073Z,,,,,,,,,,,5323.707999976148,completion,,,,,,,high,low,,,,,,,true,,,,,false,176551.5,176550.89999997616,171210.4,171424.5,171227.192,176348.837,1,16,,
trial,html.Screen,4_13_0,2023-11-20T20:37:21.401Z,,,,0,-0.8709576717420565,1.2795156779072283,,,true,hl,6530.763000023842,response,0.8534691366511764,1.2,-1.2,-1.276663727068437,1.2,-1.2,high,low,,ISIC_1925632.JPG,,ISIC_0056788.JPG,,29,true,0.3600000000000002,hl,keypress(j),100,false,182879.89999997616,182879.60000002384,176332.158,176551.60000002384,176348.837,182671.786,1,16,14,
sequence,flow.Sequence,4_13,2023-11-20T20:37:21.401Z,,,,,,,,,,,6530.763000023842,completion,,,,,,,high,low,,,,,,,true,,,,,false,182880.19999992847,182879.60000002384,176332.158,176551.60000002384,176348.837,182671.786,1,16,,
trial,html.Screen,4_14_0,2023-11-20T20:37:28.843Z,,,,0,-0.9873794329144926,0.9500689037516484,,,true,hl,7649.5139999523235,response,0.849847885203758,1.2,-1.2,-0.973447384095442,1.2,-1.2,high,low,,ISIC_0013498.JPG,,ISIC_9612228.JPG,,29,true,0.3600000000000002,hl,keypress(j),100,false,190321.60000002384,190321.29999995232,182655.213,182880.39999997616,182671.786,190112.661,1,16,15,
sequence,flow.Sequence,4_14,2023-11-20T20:37:28.843Z,,,,,,,,,,,7649.5139999523235,completion,,,,,,,high,low,,,,,,,true,,,,,false,190322.10000002384,190321.29999995232,182655.213,182880.39999997616,182671.786,190112.661,1,16,,
trial,html.Screen,4_15_0,2023-11-20T20:37:32.504Z,,,,0,-0.9046170303418553,1.0063426986460375,,,true,hl,3870.0389999284816,response,1.2615315960773072,1.2,-1.2,-1.194084675079932,1.2,-1.2,high,low,,ISIC_0055759.JPG,,ISIC_0010044.JPG,,29,true,0.3600000000000002,hl,keypress(j),100,false,193982.79999995232,193982.69999992847,190095.986,190322.29999995232,190112.661,193782.944,1,16,16,
sequence,flow.Sequence,4_15,2023-11-20T20:37:32.504Z,,,,,,,,,,,3870.0389999284816,completion,,,,,,,high,low,,,,,,,true,,,,,false,193983,193982.69999992847,190095.986,190322.19999992847,190112.661,193782.944,1,16,,
demonstration_loop,flow.Loop,4,2023-11-20T20:37:32.504Z,,,,,,,,,,,106789.76799992847,completion,,,,,,,,,,,,,,,true,,,,,false,193983.10000002384,193982.69999992847,87176.35,87403.5,87192.932,193782.944,1,16,,
practice_instructions,html.Screen,5,2023-11-20T20:37:36.678Z,,,,,,,,,,,4363.855999952328,response,,,,,,,,,,,,,,,,,continue,click button,,,198156.39999997616,198146.79999995232,193766.3,193983.19999992847,193782.944,197953.974,,,,
trial,html.Screen,6_0_0,2023-11-20T20:37:45.120Z,,,,1,1.1727618800748076,1.0636787813411093,,,true,ll,8628.126000023854,response,-1.189469386514313,1.2,-1.2,-1.3008582067137853,1.2,-1.2,low,low,,ISIC_9690371.JPG,,ISIC_0010644.JPG,,27,true,0.12,ll,keypress(f),0,false,206599.10000002384,206582.10000002384,197937.126,198156.60000002384,197953.974,206378.879,1,40,1,
sequence,flow.Sequence,6_0,2023-11-20T20:37:45.120Z,,,,,,,,,,,8628.126000023854,completion,,,,,,,low,low,,,,,,,true,,,,,false,206599.29999995232,206582.10000002384,197937.126,198156.5,197953.974,206378.879,1,40,,
trial,html.Screen,6_1_0,2023-11-20T20:37:51.253Z,,,,1,-1.1711612520017805,-1.191169949562454,,,true,hh,6352.820999928488,response,1.1305948371148624,1.2,-1.2,1.2802709447034604,1.2,-1.2,high,high,,ISIC_0061936.JPG,,ISIC_5648111.JPG,,25,true,0.15000000000000002,hh,keypress(i),0,false,212731.89999997616,212731.69999992847,206362.279,206599.29999995232,206378.879,212518.444,1,40,2,
sequence,flow.Sequence,6_1,2023-11-20T20:37:51.253Z,,,,,,,,,,,6352.820999928488,completion,,,,,,,high,high,,,,,,,true,,,,,false,212732.10000002384,212731.69999992847,206362.279,206599.29999995232,206378.879,212518.444,1,40,,
trial,html.Screen,6_2_0,2023-11-20T20:38:01.621Z,,,,1,-1.2055236989581275,-1.1960893075698802,,,true,hh,10581.556000000011,response,1.1217390688497193,1.2,-1.2,1.2276600934505035,1.2,-1.2,high,high,,ISIC_0072393.JPG,,ISIC_0026344.JPG,,25,true,0.15000000000000002,hh,keypress(i),0,false,223100.19999992847,223100,212501.83,212732.10000002384,212518.444,222895.408,1,40,3,
sequence,flow.Sequence,6_2,2023-11-20T20:38:01.622Z,,,,,,,,,,,10581.556000000011,completion,,,,,,,high,high,,,,,,,true,,,,,false,223100.29999995232,223100,212501.83,212732.10000002384,212518.444,222895.408,1,40,,
trial,html.Screen,6_3_0,2023-11-20T20:38:10.358Z,,,,1,1.1224745971429997,-0.8423270217438888,,,false,lh,8940.791999928479,response,-1.155796217969438,1.2,-1.2,1.1646564121743912,1.2,-1.2,low,high,,ISIC_0057032.JPG,,ISIC_2685523.JPG,,26,true,0.3300000000000002,hl,keypress(j),0,false,231836.39999997616,231836.19999992847,222861.873,223100.5,222895.408,231620.834,1,40,4,
sequence,flow.Sequence,6_3,2023-11-20T20:38:10.358Z,,,,,,,,,,,8940.791999928479,completion,,,,,,,low,high,,,,,,,true,,,,,false,231836.89999997616,231836.19999992847,222861.873,223100.39999997616,222895.408,231620.834,1,40,,
trial,html.Screen,6_4_0,2023-11-20T20:38:17.598Z,,,,1,-1.052305774554686,1.3940181224717798,,,true,hl,7455.266000023839,response,1.4727776799485246,1.2,-1.2,-0.8779113138076752,1.2,-1.2,high,low,,ISIC_4175400.JPG,,ISIC_0033074.JPG,,29,true,0.3600000000000002,hl,keypress(j),0,false,239076.19999992847,239076.10000002384,231604.202,231836.89999997616,231620.834,238861.448,1,40,5,
sequence,flow.Sequence,6_4,2023-11-20T20:38:17.598Z,,,,,,,,,,,7455.266000023839,completion,,,,,,,high,low,,,,,,,true,,,,,false,239076.5,239076.10000002384,231604.202,231836.89999997616,231620.834,238861.448,1,40,,
trial,html.Screen,6_5_0,2023-11-20T20:38:21.805Z,,,,1,-1.3132505134129506,-1.0949928516457437,,,true,hh,4422.2519999284705,response,1.0437497612294713,1.2,-1.2,0.93059645456522,1.2,-1.2,high,high,,ISIC_0066935.JPG,,ISIC_0032357.JPG,,127,true,0.3300000000000002,hh,keypress(i),0,false,243283.89999997616,243283.69999992847,238844.769,239076.60000002384,238861.448,243065.618,1,40,6,
sequence,flow.Sequence,6_5,2023-11-20T20:38:21.805Z,,,,,,,,,,,4422.2519999284705,completion,,,,,,,high,high,,,,,,,true,,,,,false,243284.10000002384,243283.69999992847,238844.769,239076.60000002384,238861.448,243065.618,1,40,,
trial,html.Screen,6_6_0,2023-11-20T20:38:27.037Z,,,,1,-1.1715181192107684,-1.2251845559044463,,,false,hh,5450.081999928487,response,1.073296525451802,1.2,-1.2,1.3454282740421717,1.2,-1.2,high,high,,ISIC_0011957.JPG,,ISIC_5787312.JPG,,25,true,0.15000000000000002,ll,keypress(f),0,false,248515.89999997616,248515.69999992847,243048.978,243284.10000002384,243065.618,248304.165,1,40,7,
sequence,flow.Sequence,6_6,2023-11-20T20:38:27.038Z,,,,,,,,,,,5450.081999928487,completion,,,,,,,high,high,,,,,,,true,,,,,false,248516,248515.69999992847,243048.978,243284.10000002384,243065.618,248304.165,1,40,,
trial,html.Screen,6_7_0,2023-11-20T20:38:33.110Z,,,,1,1.1890109863264902,-0.8867825318561365,,,false,lh,6283.73499997615,response,-1.155796217969438,1.2,-1.2,1.1646564121743912,1.2,-1.2,low,high,,ISIC_0072576.JPG,,ISIC_2685523.JPG,,26,true,0.3300000000000002,ll,keypress(f),0,false,254588.10000002384,254587.89999997616,248287.592,248516.19999992847,248304.165,254376.967,1,40,8,
sequence,flow.Sequence,6_7,2023-11-20T20:38:33.110Z,,,,,,,,,,,6283.73499997615,completion,,,,,,,low,high,,,,,,,true,,,,,false,254588.5,254587.89999997616,248287.592,248516.19999992847,248304.165,254376.967,1,40,,
trial,html.Screen,6_8_0,2023-11-20T20:38:39.237Z,,,,1,-1.238264833797662,-1.176099940770289,,,true,hh,6338.432999976154,response,1.1305948371148624,1.2,-1.2,1.2802709447034604,1.2,-1.2,high,high,,ISIC_0032861.JPG,,ISIC_5648111.JPG,,157,true,0.3600000000000002,hh,keypress(i),0,false,260715.60000002384,260715.39999997616,254360.265,254588.60000002384,254376.967,260499.738,1,40,9,
sequence,flow.Sequence,6_8,2023-11-20T20:38:39.237Z,,,,,,,,,,,6338.432999976154,completion,,,,,,,high,high,,,,,,,true,,,,,false,260715.69999992847,260715.39999997616,254360.265,254588.60000002384,254376.967,260499.738,1,40,,
trial,html.Screen,6_9_0,2023-11-20T20:38:45.469Z,,,,1,-1.2609895831255231,1.0687377724194886,,,true,hl,6447.961999928462,response,0.8779374983479176,1.2,-1.2,-0.9745548032823428,1.2,-1.2,high,low,,ISIC_1367610.JPG,,ISIC_2991354.JPG,,29,true,0.3600000000000002,hl,keypress(j),0,false,266947.7999999523,266947.6999999285,260482.979,260715.69999992847,260499.738,266739.363,1,40,10,
sequence,flow.Sequence,6_9,2023-11-20T20:38:45.469Z,,,,,,,,,,,6447.961999928462,completion,,,,,,,high,low,,,,,,,true,,,,,false,266948,266947.6999999285,260482.979,260715.69999992847,260499.738,266739.363,1,40,,
trial,html.Screen,6_10_0,2023-11-20T20:38:49.710Z,,,,1,0.9385447468573198,-1.2289860846064424,,,false,lh,4448.936999952304,response,-1.1547137855907486,1.2,-1.2,1.0185275168641534,1.2,-1.2,low,high,,ISIC_0032780.JPG,,ISIC_7604870.JPG,,26,true,0.3300000000000002,ll,keypress(f),0,false,271188.5,271188.2999999523,266722.64,266948,266739.363,270976.921,1,40,11,
sequence,flow.Sequence,6_10,2023-11-20T20:38:49.710Z,,,,,,,,,,,4448.936999952304,completion,,,,,,,low,high,,,,,,,true,,,,,false,271189,271188.2999999523,266722.64,266948,266739.363,270976.921,1,40,,
trial,html.Screen,6_11_0,2023-11-20T20:38:52.870Z,,,,1,-1.2289750544294995,-1.3003764624334877,,,true,hh,3370.8789999523433,response,1.259754707860904,1.2,-1.2,0.8912280834232634,1.2,-1.2,high,high,,ISIC_0054167.JPG,,ISIC_4443373.JPG,,157,true,0.3600000000000002,hh,keypress(i),0,false,274348,274347.7999999523,270960.279,271189.10000002384,270976.921,274146.739,1,40,12,
sequence,flow.Sequence,6_11,2023-11-20T20:38:52.870Z,,,,,,,,,,,3370.8789999523433,completion,,,,,,,high,high,,,,,,,true,,,,,false,274348.2999999523,274347.7999999523,270960.279,271189,270976.921,274146.739,1,40,,
trial,html.Screen,6_12_0,2023-11-20T20:38:58.333Z,,,,1,-1.0822170028935367,1.1654796154432183,,,true,hl,5665.160999976157,response,0.8534691366511764,1.2,-1.2,-1.276663727068437,1.2,-1.2,high,low,,ISIC_7288818.JPG,,ISIC_0056788.JPG,,29,true,0.3600000000000002,hl,keypress(j),0,false,279812,279811.89999997616,274113.277,274348.5,274146.739,279602.21,1,40,13,
sequence,flow.Sequence,6_12,2023-11-20T20:38:58.334Z,,,,,,,,,,,5665.160999976157,completion,,,,,,,high,low,,,,,,,true,,,,,false,279812.2999999523,279811.89999997616,274113.277,274348.39999997616,274146.739,279602.21,1,40,,
trial,html.Screen,6_13_0,2023-11-20T20:39:02.422Z,,,,1,1.0581281450494728,1.133169116569424,,,true,ll,4298.089999952295,response,-1.3132505134129506,1.2,-1.2,-1.0949928516457437,1.2,-1.2,low,low,,ISIC_5490352.JPG,,ISIC_0066935.JPG,,211,true,0.3300000000000002,ll,keypress(f),0,false,283900.5,283900.2999999523,279585.412,279812.39999997616,279602.21,283689.77,1,40,14,
sequence,flow.Sequence,6_13,2023-11-20T20:39:02.422Z,,,,,,,,,,,4298.089999952295,completion,,,,,,,low,low,,,,,,,true,,,,,false,283901,283900.2999999523,279585.412,279812.2999999523,279602.21,283689.77,1,40,,
trial,html.Screen,6_14_0,2023-11-20T20:39:06.518Z,,,,1,1.0959058628476686,1.2921331918483707,,,true,ll,4306.330000023823,response,-1.2839527450318475,1.2,-1.2,-1.342019616565807,1.2,-1.2,low,low,,ISIC_5920470.JPG,,ISIC_0070210.JPG,,41,true,0.15000000000000002,ll,keypress(f),0,false,287996.2999999523,287996.10000002384,283672.872,283901.10000002384,283689.77,287793.723,1,40,15,
sequence,flow.Sequence,6_14,2023-11-20T20:39:06.518Z,,,,,,,,,,,4306.330000023823,completion,,,,,,,low,low,,,,,,,true,,,,,false,287996.60000002384,287996.10000002384,283672.872,283901.10000002384,283689.77,287793.723,1,40,,
trial,html.Screen,6_15_0,2023-11-20T20:39:16.190Z,,,,1,-0.9670240379618178,1.1806404773220665,,,false,hl,9874.777000000002,response,1.11329866545753,1.2,-1.2,-1.2155631217348757,1.2,-1.2,high,low,,ISIC_0002288.JPG,,ISIC_0032610.JPG,,29,true,0.3600000000000002,hh,keypress(i),0,false,297668.6999999285,297668.5,287760.288,287996.7999999523,287793.723,297453.444,1,40,16,
sequence,flow.Sequence,6_15,2023-11-20T20:39:16.191Z,,,,,,,,,,,9874.777000000002,completion,,,,,,,high,low,,,,,,,true,,,,,false,297669.10000002384,297668.5,287760.288,287996.6999999285,287793.723,297453.444,1,40,,
trial,html.Screen,6_16_0,2023-11-20T20:39:26.310Z,,,,1,-1.194799101954455,-1.2071632388858642,,,true,hh,10334.255999928457,response,1.1217390688497193,1.2,-1.2,1.2276600934505035,1.2,-1.2,high,high,,ISIC_4347535.JPG,,ISIC_0026344.JPG,,127,true,0.3300000000000002,hh,keypress(i),0,false,307787.7999999523,307787.6999999285,297436.7,297669.2999999523,297453.444,307580.43,1,40,17,
sequence,flow.Sequence,6_16,2023-11-20T20:39:26.310Z,,,,,,,,,,,10334.255999928457,completion,,,,,,,high,high,,,,,,,true,,,,,false,307788,307787.6999999285,297436.7,297669.2999999523,297453.444,307580.43,1,40,,
trial,html.Screen,6_17_0,2023-11-20T20:39:39.342Z,,,,1,1.2714351764931109,1.0785174776187512,,,true,ll,13239.469999976165,response,-1.1711612520017805,1.2,-1.2,-1.191169949562454,1.2,-1.2,low,low,,ISIC_2454898.JPG,,ISIC_0061936.JPG,,27,true,0.12,ll,keypress(f),0,false,320820,320819.89999997616,307546.821,307788.10000002384,307580.43,320609.932,1,40,18,
sequence,flow.Sequence,6_17,2023-11-20T20:39:39.342Z,,,,,,,,,,,13239.469999976165,completion,,,,,,,low,low,,,,,,,true,,,,,false,320820.2999999523,320819.89999997616,307546.821,307788.10000002384,307580.43,320609.932,1,40,,
trial,html.Screen,6_18_0,2023-11-20T20:39:44.573Z,,,,1,1.053007132776416,1.341217082060068,,,true,ll,5441.568000000028,response,-1.1126049058422398,1.2,-1.2,-1.2305421124063929,1.2,-1.2,low,low,,ISIC_0024208.JPG,,ISIC_0071536.JPG,,41,true,0.15000000000000002,ll,keypress(f),0,false,326051.60000002384,326051.5,320593.098,320820.2999999523,320609.932,325831.771,1,40,19,
sequence,flow.Sequence,6_18,2023-11-20T20:39:44.573Z,,,,,,,,,,,5441.568000000028,completion,,,,,,,low,low,,,,,,,true,,,,,false,326051.6999999285,326051.5,320593.098,320820.2999999523,320609.932,325831.771,1,40,,
trial,html.Screen,6_19_0,2023-11-20T20:39:53.590Z,,,,1,1.1890109863264902,-0.8867825318561365,,,true,lh,9236.62899997615,response,-1.2609895831255231,1.2,-1.2,1.0687377724194886,1.2,-1.2,low,high,,ISIC_0072576.JPG,,ISIC_1367610.JPG,,26,true,0.3300000000000002,lh,keypress(e),0,false,335068.60000002384,335068.39999997616,325815.124,326051.7999999523,325831.771,334857.7,1,40,20,
sequence,flow.Sequence,6_19,2023-11-20T20:39:53.591Z,,,,,,,,,,,9236.62899997615,completion,,,,,,,low,high,,,,,,,true,,,,,false,335068.89999997616,335068.39999997616,325815.124,326051.7999999523,325831.771,334857.7,1,40,,
trial,html.Screen,6_20_0,2023-11-20T20:39:57.501Z,,,,1,1.1990772227054871,1.1224329926844498,,,true,ll,4121.90000002383,response,-0.8797187572470211,1.2,-1.2,-0.9573640085332544,1.2,-1.2,low,low,,ISIC_3425388.JPG,,ISIC_0010235.JPG,,249,true,0.3600000000000002,ll,keypress(f),0,false,338979.6999999285,338979.60000002384,334840.627,335069,334857.7,338761.371,1,40,21,
sequence,flow.Sequence,6_20,2023-11-20T20:39:57.502Z,,,,,,,,,,,4121.90000002383,completion,,,,,,,low,low,,,,,,,true,,,,,false,338979.89999997616,338979.60000002384,334840.627,335069,334857.7,338761.371,1,40,,
trial,html.Screen,6_21_0,2023-11-20T20:40:07.382Z,,,,1,-1.3034518282811869,-1.0897657776277234,,,true,hh,10098.629000000015,response,1.3471772753257971,1.2,-1.2,1.055978100098093,1.2,-1.2,high,high,,ISIC_0071988.JPG,,ISIC_2077116.JPG,,25,true,0.15000000000000002,hh,keypress(i),0,false,348860.1999999285,348860,338744.756,338980,338761.371,348637.977,1,40,22,
sequence,flow.Sequence,6_21,2023-11-20T20:40:07.382Z,,,,,,,,,,,10098.629000000015,completion,,,,,,,high,high,,,,,,,true,,,,,false,348860.5,348860,338744.756,338979.89999997616,338761.371,348637.977,1,40,,
trial,html.Screen,6_22_0,2023-11-20T20:40:10.590Z,,,,1,1.2714351764931109,1.0785174776187512,,,true,ll,3429.822999952303,response,-1.194799101954455,1.2,-1.2,-1.2071632388858642,1.2,-1.2,low,low,,ISIC_2454898.JPG,,ISIC_4347535.JPG,,27,true,0.12,ll,keypress(f),0,false,352067.89999997616,352067.7999999523,348621.199,348860.6999999285,348637.977,351858.097,1,40,23,
sequence,flow.Sequence,6_22,2023-11-20T20:40:10.590Z,,,,,,,,,,,3429.822999952303,completion,,,,,,,low,low,,,,,,,true,,,,,false,352068.10000002384,352067.7999999523,348621.199,348860.60000002384,348637.977,351858.097,1,40,,
trial,html.Screen,6_23_0,2023-11-20T20:40:20.334Z,,,,1,-1.1126049058422398,-1.2305421124063929,,,true,hh,9953.902999999991,response,1.073296525451802,1.2,-1.2,1.3454282740421717,1.2,-1.2,high,high,,ISIC_0071536.JPG,,ISIC_5787312.JPG,,25,true,0.15000000000000002,hh,keypress(i),0,false,361812.10000002384,361812,351841.177,352068.1999999285,351858.097,361617.62,1,40,24,
sequence,flow.Sequence,6_23,2023-11-20T20:40:20.334Z,,,,,,,,,,,9953.902999999991,completion,,,,,,,high,high,,,,,,,true,,,,,false,361812.39999997616,361812,351841.177,352068.1999999285,351858.097,361617.62,1,40,,
trial,html.Screen,6_24_0,2023-11-20T20:40:25.558Z,,,,1,1.2615315960773072,-1.194084675079932,,,true,lh,5418.279999976163,response,-1.1592423187534993,1.2,-1.2,1.067128884093211,1.2,-1.2,low,high,,ISIC_0010044.JPG,,ISIC_6854940.JPG,,26,true,0.3300000000000002,lh,keypress(e),0,false,367036,367035.89999997616,361584.212,361812.39999997616,361617.62,366822.853,1,40,25,
sequence,flow.Sequence,6_24,2023-11-20T20:40:25.558Z,,,,,,,,,,,5418.279999976163,completion,,,,,,,low,high,,,,,,,true,,,,,false,367036.1999999285,367035.89999997616,361584.212,361812.39999997616,361617.62,366822.853,1,40,,
trial,html.Screen,6_25_0,2023-11-20T20:40:34.862Z,,,,1,0.8479396253253069,-1.011054319516718,,,true,lh,9516.846999928472,response,-0.8620516892494489,1.2,-1.2,1.1108509340502866,1.2,-1.2,low,high,,ISIC_0063521.JPG,,ISIC_5557806.JPG,,33,true,0.3600000000000002,lh,keypress(e),0,false,376339.89999997616,376339.6999999285,366806.29,367036.39999997616,366822.853,376148.85,1,40,26,
sequence,flow.Sequence,6_25,2023-11-20T20:40:34.862Z,,,,,,,,,,,9516.846999928472,completion,,,,,,,low,high,,,,,,,true,,,,,false,376340,376339.6999999285,366806.29,367036.2999999523,366822.853,376148.85,1,40,,
trial,html.Screen,6_26_0,2023-11-20T20:40:40.519Z,,,,1,-0.9670240379618178,1.1806404773220665,,,true,hl,5847.750000023865,response,1.3515962101204746,1.2,-1.2,-0.8414583575292955,1.2,-1.2,high,low,,ISIC_0002288.JPG,,ISIC_0274382.JPG,,29,true,0.3600000000000002,hl,keypress(j),0,false,381996.89999997616,381996.60000002384,376132.135,376340.10000002384,376148.85,381787.781,1,40,27,
sequence,flow.Sequence,6_26,2023-11-20T20:40:40.519Z,,,,,,,,,,,5847.750000023865,completion,,,,,,,high,low,,,,,,,true,,,,,false,381997.1999999285,381996.60000002384,376132.135,376340,376148.85,381787.781,1,40,,
trial,html.Screen,6_27_0,2023-11-20T20:40:56.315Z,,,,1,1.00615481805876,-0.8428903771195875,,,,,15799.184000000008,timeout,-0.8709576717420565,1.2,-1.2,1.2795156779072283,1.2,-1.2,low,high,,ISIC_0069970.JPG,,ISIC_1925632.JPG,,26,true,0.3300000000000002,,,0,false,397793.10000002384,397792.89999997616,381771.049,381997.39999997616,381787.781,397586.965,1,40,28,
sequence,flow.Sequence,6_27,2023-11-20T20:40:56.315Z,,,,,,,,,,,16005.118999976141,completion,,,,,,,low,high,,,,,,,true,,,,,false,397793.39999997616,397792.89999997616,381771.049,381997.39999997616,381787.781,397586.965,1,40,,
trial,html.Screen,6_28_0,2023-11-20T20:41:00.878Z,,,,1,-0.9225524349657857,0.929746784178986,,,true,hl,4769.135000023816,response,1.11329866545753,1.2,-1.2,-1.2155631217348757,1.2,-1.2,high,low,,ISIC_0011077.JPG,,ISIC_0032610.JPG,,29,true,0.3600000000000002,hl,keypress(j),0,false,402356.1999999285,402356.10000002384,397553.713,397793.5,397586.965,402141.503,1,40,29,
sequence,flow.Sequence,6_28,2023-11-20T20:41:00.878Z,,,,,,,,,,,4769.135000023816,completion,,,,,,,high,low,,,,,,,true,,,,,false,402356.39999997616,402356.10000002384,397553.713,397793.39999997616,397586.965,402141.503,1,40,,
trial,html.Screen,6_29_0,2023-11-20T20:41:08.183Z,,,,1,1.4748095371445096,-0.9579010801034902,,,true,lh,7519.097000023816,response,-1.1592423187534993,1.2,-1.2,1.067128884093211,1.2,-1.2,low,high,,ISIC_0033216.JPG,,ISIC_6854940.JPG,,26,true,0.3300000000000002,lh,keypress(e),0,false,409660.7999999523,409660.60000002384,402124.831,402356.5,402141.503,409448.837,1,40,30,
sequence,flow.Sequence,6_29,2023-11-20T20:41:08.183Z,,,,,,,,,,,7519.097000023816,completion,,,,,,,low,high,,,,,,,true,,,,,false,409661.1999999285,409660.60000002384,402124.831,402356.5,402141.503,409448.837,1,40,,
trial,html.Screen,6_30_0,2023-11-20T20:41:12.934Z,,,,1,1.4727776799485246,-0.8779113138076752,,,true,lh,4962.862999928475,response,-0.9225524349657857,1.2,-1.2,0.929746784178986,1.2,-1.2,low,high,,ISIC_0033074.JPG,,ISIC_0011077.JPG,,33,true,0.3600000000000002,lh,keypress(e),0,false,414411.7999999523,414411.6999999285,409432.022,409661.39999997616,409448.837,414203.733,1,40,31,
sequence,flow.Sequence,6_30,2023-11-20T20:41:12.934Z,,,,,,,,,,,4962.862999928475,completion,,,,,,,low,high,,,,,,,true,,,,,false,414411.89999997616,414411.6999999285,409432.022,409661.39999997616,409448.837,414203.733,1,40,,
trial,html.Screen,6_31_0,2023-11-20T20:41:17.207Z,,,,1,1.2200968917423711,1.3183466064109373,,,true,ll,4480.966999928467,response,-1.2839527450318475,1.2,-1.2,-1.342019616565807,1.2,-1.2,low,low,,ISIC_3624318.JPG,,ISIC_0070210.JPG,,249,true,0.3600000000000002,ll,keypress(f),0,false,418684.89999997616,418684.6999999285,414186.946,414412,414203.733,418474.547,1,40,32,
sequence,flow.Sequence,6_31,2023-11-20T20:41:17.207Z,,,,,,,,,,,4480.966999928467,completion,,,,,,,low,low,,,,,,,true,,,,,false,418685.1999999285,418684.6999999285,414186.946,414411.89999997616,414203.733,418474.547,1,40,,
trial,html.Screen,6_32_0,2023-11-20T20:41:21.670Z,,,,1,0.8644465729542988,-0.8679598285079457,,,true,lh,4673.252999952296,response,-1.155796217969438,1.2,-1.2,1.1646564121743912,1.2,-1.2,low,high,,ISIC_6718969.JPG,,ISIC_2685523.JPG,,26,true,0.3300000000000002,lh,keypress(e),0,false,423147.89999997616,423147.7999999523,418458.035,418685.39999997616,418474.547,422928.984,1,40,33,
sequence,flow.Sequence,6_32,2023-11-20T20:41:21.670Z,,,,,,,,,,,4673.252999952296,completion,,,,,,,low,high,,,,,,,true,,,,,false,423148.10000002384,423147.7999999523,418458.035,418685.2999999523,418474.547,422928.984,1,40,,
trial,html.Screen,6_33_0,2023-11-20T20:41:26.510Z,,,,1,-1.2704198237183777,1.138121072015301,,,true,hl,5059.016000000003,response,1.2838089642212804,1.2,-1.2,-0.8550527900640753,1.2,-1.2,high,low,,ISIC_0501843.JPG,,ISIC_0034187.JPG,,29,true,0.3600000000000002,hl,keypress(j),0,false,427988.1999999285,427988,422912.452,423148.10000002384,422928.984,427767.182,1,40,34,
sequence,flow.Sequence,6_33,2023-11-20T20:41:26.511Z,,,,,,,,,,,5059.016000000003,completion,,,,,,,high,low,,,,,,,true,,,,,false,427988.39999997616,427988,422912.452,423148.10000002384,422928.984,427767.182,1,40,,
trial,html.Screen,6_34_0,2023-11-20T20:41:31.606Z,,,,1,-1.052305774554686,1.3940181224717798,,,true,hl,5316.517999928503,response,0.8494721812820843,1.2,-1.2,-1.3435429139974266,1.2,-1.2,high,low,,ISIC_4175400.JPG,,ISIC_0033585.JPG,,29,true,0.3600000000000002,hl,keypress(j),0,false,433083.7999999523,433083.6999999285,427750.586,427988.60000002384,427767.182,432872.276,1,40,35,
sequence,flow.Sequence,6_34,2023-11-20T20:41:31.606Z,,,,,,,,,,,5316.517999928503,completion,,,,,,,high,low,,,,,,,true,,,,,false,433084,433083.6999999285,427750.586,427988.5,427767.182,432872.276,1,40,,
trial,html.Screen,6_35_0,2023-11-20T20:41:39.310Z,,,,1,-1.2704198237183777,1.138121072015301,,,false,hl,7915.423999928462,response,1.11329866545753,1.2,-1.2,-1.2155631217348757,1.2,-1.2,high,low,,ISIC_0501843.JPG,,ISIC_0032610.JPG,,29,true,0.3600000000000002,hh,keypress(i),0,false,440787.89999997616,440787.6999999285,432855.694,433084.10000002384,432872.276,440596.849,1,40,36,
sequence,flow.Sequence,6_35,2023-11-20T20:41:39.310Z,,,,,,,,,,,7915.423999928462,completion,,,,,,,high,low,,,,,,,true,,,,,false,440788.10000002384,440787.6999999285,432855.694,433084,432872.276,440596.849,1,40,,
trial,html.Screen,6_36_0,2023-11-20T20:41:47.103Z,,,,1,1.1363600109870835,1.295816345369928,,,true,ll,7983.450999952329,response,-0.9106525024234248,1.2,-1.2,-1.0361692964751965,1.2,-1.2,low,low,,ISIC_0026141.JPG,,ISIC_0058676.JPG,,211,true,0.3300000000000002,ll,keypress(f),0,false,448580.5,448580.2999999523,440580.229,440788.10000002384,440596.849,448371.155,1,40,37,
sequence,flow.Sequence,6_36,2023-11-20T20:41:47.103Z,,,,,,,,,,,7983.450999952329,completion,,,,,,,low,low,,,,,,,true,,,,,false,448580.6999999285,448580.2999999523,440580.229,440788.10000002384,440596.849,448371.155,1,40,,
trial,html.Screen,6_37_0,2023-11-20T20:41:50.358Z,,,,1,1.0581281450494728,1.133169116569424,,,true,ll,3464.844999999972,response,-1.152619213055059,1.2,-1.2,-1.2957497771092716,1.2,-1.2,low,low,,ISIC_5490352.JPG,,ISIC_0061915.JPG,,41,true,0.15000000000000002,ll,keypress(f),0,false,451836.1999999285,451836,448354.304,448580.89999997616,448371.155,451641.054,1,40,38,
sequence,flow.Sequence,6_37,2023-11-20T20:41:50.359Z,,,,,,,,,,,3464.844999999972,completion,,,,,,,low,low,,,,,,,true,,,,,false,451836.39999997616,451836,448354.304,448580.89999997616,448371.155,451641.054,1,40,,
trial,html.Screen,6_38_0,2023-11-20T20:41:56.766Z,,,,1,-0.8709576717420565,1.2795156779072283,,,true,hl,6602.645999928471,response,1.00615481805876,1.2,-1.2,-0.8428903771195875,1.2,-1.2,high,low,,ISIC_1925632.JPG,,ISIC_0069970.JPG,,29,true,0.3600000000000002,hl,keypress(j),0,false,458243.6999999285,458243.6999999285,451607.651,451836.5,451641.054,458030.855,1,40,39,
sequence,flow.Sequence,6_38,2023-11-20T20:41:56.766Z,,,,,,,,,,,6602.645999928471,completion,,,,,,,high,low,,,,,,,true,,,,,false,458243.89999997616,458243.6999999285,451607.651,451836.5,451641.054,458030.855,1,40,,
trial,html.Screen,6_39_0,2023-11-20T20:42:02.135Z,,,,1,-1.2315945866020412,-1.13226141421557,,,true,hh,5581.7450000238605,response,1.2714351764931109,1.2,-1.2,1.0785174776187512,1.2,-1.2,high,high,,ISIC_0033595.JPG,,ISIC_2454898.JPG,,127,true,0.3300000000000002,hh,keypress(i),0,false,463612.6999999285,463612.60000002384,458014.233,458243.89999997616,458030.855,463402.868,1,40,40,
sequence,flow.Sequence,6_39,2023-11-20T20:42:02.135Z,,,,,,,,,,,5581.7450000238605,completion,,,,,,,high,high,,,,,,,true,,,,,false,463613,463612.60000002384,458014.233,458243.89999997616,458030.855,463402.868,1,40,,
practice_loop,flow.Loop,6,2023-11-20T20:42:02.135Z,,,,,,,,,,,265658.62600002385,completion,,,,,,,,,,,,,,,true,,,,,false,463613.1999999285,463612.60000002384,197937.126,198156.5,197953.974,463402.868,1,40,,
stair_instructions,html.Screen,7,2023-11-20T20:42:04.854Z,,,,,,,,,,,2928.232000023825,response,,,,,,,,,,,,,,,,,continue,click button,,,466332,466331.10000002384,463386.278,463613.2999999523,463402.868,466139.002,,,,
trial,html.Screen,8_0_0,2023-11-20T20:42:17.325Z,,,,2,-0.0166849894750452,0.0371614812368835,,0.04,true,lh,12663.598000023863,response,-1.0700930503975157,1.2,-1.2,0.923753102263735,1.2,-1.2,low,high,,ISIC_6231450.JPG,,ISIC_0000022.JPG,28,26,false,0.3300000000000002,lh,keypress(e),0,true,478802.6999999285,478802.60000002384,466122.252,466332.10000002384,466139.002,478601.416,1,40,1,
sequence,flow.Sequence,8_0,2023-11-20T20:42:17.325Z,,,,,,,,,,,12663.598000023863,completion,,,,,,,low,high,,,,,,,false,,,,,true,478802.89999997616,478802.60000002384,466122.252,466332.10000002384,466139.002,478601.416,1,40,,
trial,html.Screen,8_1_0,2023-11-20T20:42:23.327Z,,,,2,-0.0399381815506136,-0.0177751789152893,,0.04,true,ll,6202.88399995229,response,-1.089914260719518,1.15,-1.15,-1.1695563571046357,1.15,-1.15,low,low,,ISIC_3981425.JPG,,ISIC_0030695.JPG,28,25,false,0.11,ll,keypress(f),0,true,484804.60000002384,484804.2999999523,478584.883,478803,478601.416,484590.697,1,40,2,
sequence,flow.Sequence,8_1,2023-11-20T20:42:23.327Z,,,,,,,,,,,6202.88399995229,completion,,,,,,,low,low,,,,,,,false,,,,,true,484804.89999997616,484804.2999999523,478584.883,478802.89999997616,478601.416,484590.697,1,40,,
trial,html.Screen,8_2_0,2023-11-20T20:42:26.366Z,,,,2,0.0127320821962457,-0.0315308940184827,,0.04,true,ll,3252.9030000238563,response,-1.094624209823328,1.15,-1.079735308912077,-1.0544499428769605,1.15,-1.15,low,low,,ISIC_8156101.JPG,,ISIC_0055526.JPG,28,26,false,0.1,ll,keypress(f),0,true,487843.7999999523,487843.60000002384,484574.013,484805.10000002384,484590.697,487627.047,1,40,3,
sequence,flow.Sequence,8_2,2023-11-20T20:42:26.366Z,,,,,,,,,,,3252.9030000238563,completion,,,,,,,low,low,,,,,,,false,,,,,true,487843.89999997616,487843.60000002384,484574.013,484805,484590.697,487627.047,1,40,,
trial,html.Screen,8_3_0,2023-11-20T20:42:29.646Z,,,,2,-0.0399381815506136,-0.0177751789152893,,0.04,true,hh,3496.752999952296,response,1.2555541172897566,1.15,-1.079735308912077,1.0235056423601527,1.15,-1.0245370763501442,high,high,,ISIC_3981425.JPG,,ISIC_1578399.JPG,28,26,false,0.14,hh,keypress(i),0,true,491123.89999997616,491123.7999999523,487610.338,487843.89999997616,487627.047,490913.774,1,40,4,
sequence,flow.Sequence,8_3,2023-11-20T20:42:29.647Z,,,,,,,,,,,3496.752999952296,completion,,,,,,,high,high,,,,,,,false,,,,,true,491124,491123.7999999523,487610.338,487843.89999997616,487627.047,490913.774,1,40,,
trial,html.Screen,8_4_0,2023-11-20T20:42:34.087Z,,,,2,0.010035581303589,-0.0100711721396864,,0.04,true,hl,4650.625999976182,response,1.2838089642212804,1.15,-1.079735308912077,-0.8550527900640753,1.0895298798249546,-1.0245370763501442,high,low,,ISIC_0030592.JPG,,ISIC_0034187.JPG,28,25,false,0.2500000000000001,hl,keypress(j),0,true,495564.60000002384,495564.39999997616,490897.135,491124.10000002384,490913.774,495351.501,1,40,5,
sequence,flow.Sequence,8_4,2023-11-20T20:42:34.087Z,,,,,,,,,,,4650.625999976182,completion,,,,,,,high,low,,,,,,,false,,,,,true,495564.7999999523,495564.39999997616,490897.135,491124.10000002384,490913.774,495351.501,1,40,,
trial,html.Screen,8_5_0,2023-11-20T20:42:39.038Z,,,,2,0.0361875505619981,-0.0291457404567876,,0.04,false,lh,5164.198999928485,response,-1.0264463986917702,1.0999999999999999,-1.079735308912077,1.171271535505083,1.0895298798249546,-1.0245370763501442,low,high,,ISIC_0027480.JPG,,ISIC_7889838.JPG,28,26,false,0.2300000000000001,hh,keypress(i),0,true,500515.89999997616,500515.6999999285,495334.941,495564.89999997616,495351.501,500306.607,1,40,6,
sequence,flow.Sequence,8_5,2023-11-20T20:42:39.039Z,,,,,,,,,,,5164.198999928485,completion,,,,,,,low,high,,,,,,,false,,,,,true,500516.10000002384,500515.6999999285,495334.941,495564.89999997616,495351.501,500306.607,1,40,,
trial,html.Screen,8_6_0,2023-11-20T20:42:47.967Z,,,,2,-0.0060934073440827,-0.0279108145883031,,0.04,false,ll,9137.29299997614,response,-1.1618928077758934,1.0999999999999999,-1.129735308912077,-0.9630799724002608,1.0895298798249546,-1.0245370763501442,low,low,,ISIC_0032604.JPG,,ISIC_0034076.JPG,28,36,false,0.11,lh,keypress(e),0,true,509444,509443.89999997616,500289.797,500516.1999999285,500306.607,509232.049,1,40,7,
sequence,flow.Sequence,8_6,2023-11-20T20:42:47.967Z,,,,,,,,,,,9137.29299997614,completion,,,,,,,low,low,,,,,,,false,,,,,true,509444.1999999285,509443.89999997616,500289.797,500516.1999999285,500306.607,509232.049,1,40,,
trial,html.Screen,8_7_0,2023-11-20T20:42:55.447Z,,,,2,-0.0158987717472563,-0.0292472192292015,,0.04,true,hl,7691.951000000001,response,0.8779374983479176,1.0999999999999999,-1.129735308912077,-0.9745548032823428,1.0895298798249546,-1.0745370763501443,high,low,,ISIC_1366765.JPG,,ISIC_2991354.JPG,28,28,false,0.2600000000000001,hl,keypress(j),0,true,516924.10000002384,516924,509215.319,509444.2999999523,509232.049,516706.19,1,40,8,
sequence,flow.Sequence,8_7,2023-11-20T20:42:55.447Z,,,,,,,,,,,7691.951000000001,completion,,,,,,,high,low,,,,,,,false,,,,,true,516924.1999999285,516924,509215.319,509444.2999999523,509232.049,516706.19,1,40,,
trial,html.Screen,8_8_0,2023-11-20T20:43:02.638Z,,,,2,0.0063515208248796,0.0194177605767913,,0.04,true,lh,7409.309999999998,response,-1.0264463986917702,1.0999999999999999,-1.129735308912077,1.171271535505083,1.0895298798249546,-1.0745370763501443,low,high,,ISIC_5281908.JPG,,ISIC_7889838.JPG,28,25,false,0.27000000000000013,lh,keypress(e),0,true,524115.6999999285,524115.5,516689.316,516924.39999997616,516706.19,523896.702,1,40,9,
sequence,flow.Sequence,8_8,2023-11-20T20:43:02.638Z,,,,,,,,,,,7409.309999999998,completion,,,,,,,low,high,,,,,,,false,,,,,true,524115.7999999523,524115.5,516689.316,516924.2999999523,516706.19,523896.702,1,40,,
trial,html.Screen,8_9_0,2023-11-20T20:43:05.894Z,,,,2,-0.0377791839943904,0.0227626648172468,,0.04,false,hl,3474.79800000001,response,0.8591294258188253,1.0999999999999999,-1.079735308912077,-0.870797302150167,1.0395298798249546,-1.0745370763501443,high,low,,ISIC_7167479.JPG,,ISIC_0055841.JPG,28,28,false,0.2600000000000001,hh,keypress(i),0,true,527371.6999999285,527371.5,523880.059,524115.7999999523,523896.702,527149.974,1,40,10,
sequence,flow.Sequence,8_9,2023-11-20T20:43:05.894Z,,,,,,,,,,,3474.79800000001,completion,,,,,,,high,low,,,,,,,false,,,,,true,527371.7999999523,527371.5,523880.059,524115.7999999523,523896.702,527149.974,1,40,,
trial,html.Screen,8_10_0,2023-11-20T20:43:10.294Z,,,,2,0.0086413421586899,0.0360184993500958,,0.04,true,ll,4621.725999928429,response,-1.0048859018073242,1.0499999999999998,-1.079735308912077,-1.0825120442937108,1.0395298798249546,-1.1245370763501443,low,low,,ISIC_0010767.JPG,,ISIC_0068080.JPG,28,28,false,0.1,ll,keypress(f),0,true,531771.8999999762,531771.6999999285,527133.238,527371.7999999523,527149.974,531554.358,1,40,11,
sequence,flow.Sequence,8_10,2023-11-20T20:43:10.295Z,,,,,,,,,,,4621.725999928429,completion,,,,,,,low,low,,,,,,,false,,,,,true,531772,531771.6999999285,527133.238,527371.7999999523,527149.974,531554.358,1,40,,
trial,html.Screen,8_11_0,2023-11-20T20:43:13.937Z,,,,2,0.0199897690678184,0.0312486875504497,,0.04,false,lh,3860.1419999999925,response,-1.2463522959513311,1.0499999999999998,-1.079735308912077,0.8691422647859491,1.0395298798249546,-1.1245370763501443,low,high,,ISIC_5482426.JPG,,ISIC_0057192.JPG,28,25,false,0.2300000000000001,ll,keypress(f),0,true,535414.6999999285,535414.5,531537.639,531772.1000000238,531554.358,535208.736,1,40,12,
sequence,flow.Sequence,8_11,2023-11-20T20:43:13.938Z,,,,,,,,,,,3860.1419999999925,completion,,,,,,,low,high,,,,,,,false,,,,,true,535415.1000000238,535414.5,531537.639,531772.1000000238,531554.358,535208.736,1,40,,
trial,html.Screen,8_12_0,2023-11-20T20:43:21.255Z,,,,2,-0.0118555311043871,-0.0087774532070196,,0.04,true,ll,7523.163999976125,response,-1.1474466950560966,1.0499999999999998,-1.114432170122521,-1.173734476257662,1.0895298798249546,-1.1245370763501443,low,low,,ISIC_6488658.JPG,,ISIC_5216586.JPG,28,28,false,0.11,ll,keypress(f),0,true,542732,542731.8999999762,535174.757,535415.1999999285,535208.736,542515.382,1,40,13,
sequence,flow.Sequence,8_12,2023-11-20T20:43:21.255Z,,,,,,,,,,,7523.163999976125,completion,,,,,,,low,low,,,,,,,false,,,,,true,542732.1999999285,542731.8999999762,535174.757,535415.1999999285,535208.736,542515.382,1,40,,
trial,html.Screen,8_13_0,2023-11-20T20:43:25.983Z,,,,2,0.010035581303589,-0.0100711721396864,,0.04,true,hh,4944.618000000017,response,1.09666761087476,1.0499999999999998,-1.114432170122521,0.9917482735105084,1.0895298798249546,-1.1105905856568794,high,high,,ISIC_0030592.JPG,,ISIC_0071754.JPG,28,26,false,0.12,hh,keypress(i),0,true,547460.1000000238,547460,542498.648,542732.1999999285,542515.382,547236.719,1,40,14,
sequence,flow.Sequence,8_13,2023-11-20T20:43:25.983Z,,,,,,,,,,,4944.618000000017,completion,,,,,,,high,high,,,,,,,false,,,,,true,547460.1999999285,547460,542498.648,542732.1999999285,542515.382,547236.719,1,40,,
trial,html.Screen,8_14_0,2023-11-20T20:43:28.424Z,,,,2,0.0127320821962457,-0.0315308940184827,,0.04,true,ll,2663.881000023801,response,-1.0098789684902802,1.0499999999999998,-1.114432170122521,-1.152593747486636,1.0895298798249546,-1.1105905856568794,low,low,,ISIC_8156101.JPG,,ISIC_0061491.JPG,28,27,false,0.11,ll,keypress(f),0,true,549900.8999999762,549900.6000000238,547220.165,547460.2999999523,547236.719,549689.229,1,40,15,
sequence,flow.Sequence,8_14,2023-11-20T20:43:28.424Z,,,,,,,,,,,2663.881000023801,completion,,,,,,,low,low,,,,,,,false,,,,,true,549901.1999999285,549900.6000000238,547220.165,547460.1999999285,547236.719,549689.229,1,40,,
trial,html.Screen,8_15_0,2023-11-20T20:43:31.719Z,,,,2,-0.0350697500805515,-0.0166617848231997,,0.04,true,hh,3507.170999976108,response,1.0885984639975343,1.0499999999999998,-1.031236357988458,1.2042618719491294,1.0895298798249546,-1.1105905856568794,high,high,,ISIC_0024423.JPG,,ISIC_0012740.JPG,28,26,false,0.12,hh,keypress(i),0,true,553196.6000000238,553196.3999999762,549672.623,549901.3999999762,549689.229,552975.852,1,40,16,
sequence,flow.Sequence,8_15,2023-11-20T20:43:31.720Z,,,,,,,,,,,3507.170999976108,completion,,,,,,,high,high,,,,,,,false,,,,,true,553196.8999999762,553196.3999999762,549672.623,549901.3999999762,549689.229,552975.852,1,40,,
trial,html.Screen,8_16_0,2023-11-20T20:43:36.847Z,,,,2,-0.0377791839943904,0.0227626648172468,,0.04,true,lh,5347.847999928519,response,-0.8561946552009824,0.9999999999999998,-1.031236357988458,0.9282171889213044,1.0395298798249546,-1.1105905856568794,low,high,,ISIC_7167479.JPG,,ISIC_3065032.JPG,28,28,false,0.2300000000000001,lh,keypress(e),0,true,558323.7999999523,558323.6999999285,552959.208,553197,552975.852,558114.328,1,40,17,
sequence,flow.Sequence,8_16,2023-11-20T20:43:36.847Z,,,,,,,,,,,5347.847999928519,completion,,,,,,,low,high,,,,,,,false,,,,,true,558323.8999999762,558323.6999999285,552959.208,553197,552975.852,558114.328,1,40,,
trial,html.Screen,8_17_0,2023-11-20T20:43:39.351Z,,,,2,0.010035581303589,-0.0100711721396864,,0.04,true,hh,2713.371999928495,response,1.1119564877278971,0.9999999999999998,-1.031236357988458,0.9546609075308709,1.0395298798249546,-1.1105905856568794,high,high,,ISIC_0030592.JPG,,ISIC_0056110.JPG,28,31,false,0.12,hh,keypress(i),0,true,560827.7999999523,560827.6999999285,558097.571,558324,558114.328,560616.825,1,40,18,
sequence,flow.Sequence,8_17,2023-11-20T20:43:39.351Z,,,,,,,,,,,2713.371999928495,completion,,,,,,,high,high,,,,,,,false,,,,,true,560827.8999999762,560827.6999999285,558097.571,558324,558114.328,560616.825,1,40,,
trial,html.Screen,8_18_0,2023-11-20T20:43:44.360Z,,,,2,-0.0077673378094614,-0.0021810768579373,,0.04,false,ll,5219.675000000047,response,-1.02958055269592,0.9999999999999998,-1.031236357988458,-1.159278377691306,0.9833086976293839,-1.1105905856568794,low,low,,ISIC_0067621.JPG,,ISIC_0027190.JPG,28,31,false,0.1,hh,keypress(i),0,true,565836.6999999285,565836.5,560600.07,560828,560616.825,565621.82,1,40,19,
sequence,flow.Sequence,8_18,2023-11-20T20:43:44.360Z,,,,,,,,,,,5219.675000000047,completion,,,,,,,low,low,,,,,,,false,,,,,true,565837.1000000238,565836.5,560600.07,560828,560616.825,565621.82,1,40,,
trial,html.Screen,8_19_0,2023-11-20T20:43:49.439Z,,,,2,-0.0166849894750452,0.0371614812368835,,0.04,false,hh,5294.180000000051,response,0.9696118525781644,0.9999999999999998,-1.081236357988458,0.9712966348713286,0.9833086976293839,-1.1605905856568794,high,high,,ISIC_6231450.JPG,,ISIC_7927525.JPG,28,25,false,0.1,hl,keypress(j),0,true,570916.1000000238,570916,565605.133,565837.2999999523,565621.82,570693.567,1,40,20,
sequence,flow.Sequence,8_19,2023-11-20T20:43:49.439Z,,,,,,,,,,,5294.180000000051,completion,,,,,,,high,high,,,,,,,false,,,,,true,570916.2999999523,570916,565605.133,565837.1999999285,565621.82,570693.567,1,40,,
trial,html.Screen,8_20_0,2023-11-20T20:43:54.767Z,,,,2,0.0321039635696159,0.020496766286318,,0.04,false,ll,5550.232999952277,response,-1.1783311757907324,0.9907841701530307,-1.081236357988458,-1.266840220031473,1.033308697629384,-1.1605905856568794,low,low,,ISIC_0058063.JPG,,ISIC_8241457.JPG,28,31,false,0.11,hl,keypress(j),0,true,576243.8999999762,576243.7999999523,570676.929,570916.2999999523,570693.567,576032.244,1,40,21,
sequence,flow.Sequence,8_20,2023-11-20T20:43:54.767Z,,,,,,,,,,,5550.232999952277,completion,,,,,,,low,low,,,,,,,false,,,,,true,576244,576243.7999999523,570676.929,570916.2999999523,570693.567,576032.244,1,40,,
trial,html.Screen,8_21_0,2023-11-20T20:43:58.767Z,,,,2,0.0361875505619981,-0.0291457404567876,,0.04,false,lh,4211.756000000052,response,-1.1682648288591504,0.9907841701530307,-1.1312363579884581,0.7749773174967559,1.033308697629384,-1.1605905856568794,low,high,,ISIC_0027480.JPG,,ISIC_3936223.JPG,28,29,false,0.2600000000000001,hh,keypress(i),0,true,580244.1999999285,580244,576015.464,576244.1000000238,576032.244,580036.259,1,40,22,
sequence,flow.Sequence,8_21,2023-11-20T20:43:58.767Z,,,,,,,,,,,4211.756000000052,completion,,,,,,,low,high,,,,,,,false,,,,,true,580244.2999999523,580244,576015.464,576244.1000000238,576032.244,580036.259,1,40,,
trial,html.Screen,8_22_0,2023-11-20T20:44:03.271Z,,,,2,0.0367218428225813,-0.0026956749740767,,0.04,true,hl,4711.741000000038,response,0.9445114955578736,0.9907841701530307,-1.1812363579884582,-1.0054210059625863,1.033308697629384,-1.1605905856568794,high,low,,ISIC_7212271.JPG,,ISIC_0033807.JPG,28,26,false,0.28000000000000014,hl,keypress(j),0,true,584748.1999999285,584748,580019.508,580244.3999999762,580036.259,584542.037,1,40,23,
sequence,flow.Sequence,8_22,2023-11-20T20:44:03.271Z,,,,,,,,,,,4711.741000000038,completion,,,,,,,high,low,,,,,,,false,,,,,true,584748.2999999523,584748,580019.508,580244.3999999762,580036.259,584542.037,1,40,,
trial,html.Screen,8_23_0,2023-11-20T20:44:08.519Z,,,,2,-0.0060934073440827,-0.0279108145883031,,0.04,true,hh,5453.962999999989,response,0.9537595754201148,0.9907841701530307,-1.1812363579884582,1.1342661775432377,1.033308697629384,-1.1105905856568794,high,high,,ISIC_0032604.JPG,,ISIC_0741694.JPG,28,26,false,0.11,hh,keypress(i),0,true,589996,589996,584507.395,584748.2999999523,584542.037,589779.334,1,40,24,
sequence,flow.Sequence,8_23,2023-11-20T20:44:08.519Z,,,,,,,,,,,5453.962999999989,completion,,,,,,,high,high,,,,,,,false,,,,,true,589996.1999999285,589996,584507.395,584748.2999999523,584542.037,589779.334,1,40,,
trial,html.Screen,8_24_0,2023-11-20T20:44:14.079Z,,,,2,0.0367218428225813,-0.0026956749740767,,0.04,false,lh,5776.665999999968,response,-0.9566823908868002,0.9893888365505557,-1.1812363579884582,0.9602125665128364,0.9893888365505557,-1.1105905856568794,low,high,,ISIC_7212271.JPG,,ISIC_0056784.JPG,28,27,false,0.2600000000000001,ll,keypress(f),0,true,595556.1999999285,595556,589762.806,589996.2999999523,589779.334,595334.894,1,40,25,
sequence,flow.Sequence,8_24,2023-11-20T20:44:14.079Z,,,,,,,,,,,5776.665999999968,completion,,,,,,,low,high,,,,,,,false,,,,,true,595556.3999999762,595556,589762.806,589996.1999999285,589779.334,595334.894,1,40,,
trial,html.Screen,8_25_0,2023-11-20T20:44:19.783Z,,,,2,-0.00126575685933,-0.0325046559638838,,0.04,false,hh,5925.305999928503,response,1.0901635293704552,0.9893888365505557,-1.1812363579884582,1.0348352814358883,1.0393888365505557,-1.1105905856568794,high,high,,ISIC_5682259.JPG,,ISIC_7583134.JPG,28,26,false,0.11,lh,keypress(e),0,true,601260.2999999523,601260.1999999285,595318.286,595556.3999999762,595334.894,601040.638,1,40,26,
sequence,flow.Sequence,8_25,2023-11-20T20:44:19.784Z,,,,,,,,,,,5925.305999928503,completion,,,,,,,high,high,,,,,,,false,,,,,true,601260.6000000238,601260.1999999285,595318.286,595556.3999999762,595334.894,601040.638,1,40,,
trial,html.Screen,8_26_0,2023-11-20T20:44:23.736Z,,,,2,0.0189295602385628,0.0128812415435153,,0.04,true,hh,4171.661999952281,response,1.1510001454240106,1.0393888365505557,-1.1812363579884582,1.132540312667795,1.0393888365505557,-1.1105905856568794,high,high,,ISIC_0010372.JPG,,ISIC_0009959.JPG,28,26,false,0.12,hh,keypress(i),0,true,605212.5,605212.2999999523,601023.874,601260.8999999762,601040.638,604994.554,1,40,27,
sequence,flow.Sequence,8_26,2023-11-20T20:44:23.736Z,,,,,,,,,,,4171.661999952281,completion,,,,,,,high,high,,,,,,,false,,,,,true,605212.5,605212.2999999523,601023.874,601260.6999999285,601040.638,604994.554,1,40,,
trial,html.Screen,8_27_0,2023-11-20T20:44:27.736Z,,,,2,-0.0023664502831079,-0.0252784582169994,,0.04,false,lh,4217.745999952313,response,-1.2313629723857695,1.0393888365505557,-1.1812363579884582,0.8233104214456342,1.0917702290459028,-1.1105905856568794,low,high,,ISIC_4156010.JPG,,ISIC_3475660.JPG,28,25,false,0.30000000000000016,ll,keypress(f),0,true,609212.5,609212.2999999523,604977.864,605212.6000000238,604994.554,608998.624,1,40,28,
sequence,flow.Sequence,8_27,2023-11-20T20:44:27.736Z,,,,,,,,,,,4217.745999952313,completion,,,,,,,low,high,,,,,,,false,,,,,true,609212.6999999285,609212.2999999523,604977.864,605212.6000000238,604994.554,608998.624,1,40,,
trial,html.Screen,8_28_0,2023-11-20T20:44:32.384Z,,,,2,-0.012020985739544,0.0126097407389903,,0.04,true,hl,4861.8760000000475,response,0.8070820195894357,1.0393888365505557,-1.1312363579884581,-0.8958120092147633,1.1417702290459029,-1.1105905856568794,high,low,,ISIC_0069379.JPG,,ISIC_0060585.JPG,28,25,false,0.2600000000000001,hl,keypress(j),0,true,613860.6999999285,613860.5,608981.931,609212.8999999762,608998.624,613669.957,1,40,29,
sequence,flow.Sequence,8_28,2023-11-20T20:44:32.384Z,,,,,,,,,,,4861.8760000000475,completion,,,,,,,high,low,,,,,,,false,,,,,true,613860.8999999762,613860.5,608981.931,609212.8999999762,608998.624,613669.957,1,40,,
trial,html.Screen,8_29_0,2023-11-20T20:44:35.904Z,,,,2,-0.0350697500805515,-0.0166617848231997,,0.04,false,lh,3710.7429999284213,response,-0.9212323139676136,0.9893888365505557,-1.1312363579884581,0.9882196642247332,1.1417702290459029,-1.1105905856568794,low,high,,ISIC_0024423.JPG,,ISIC_0014255.JPG,28,27,false,0.27000000000000013,ll,keypress(f),0,true,617380.8999999762,617380.6999999285,613653.247,613861.1000000238,613669.957,617173.516,1,40,30,
sequence,flow.Sequence,8_29,2023-11-20T20:44:35.904Z,,,,,,,,,,,3710.7429999284213,completion,,,,,,,low,high,,,,,,,false,,,,,true,617381.2999999523,617380.6999999285,613653.247,613861.1000000238,613669.957,617173.516,1,40,,
trial,html.Screen,8_30_0,2023-11-20T20:44:38.383Z,,,,2,0.0199897690678184,0.0312486875504497,,0.04,true,hh,2686.6839999285294,response,0.9908691524573628,0.9893888365505557,-1.1312363579884581,1.300224660339869,1.191770229045903,-1.1105905856568794,high,high,,ISIC_5482426.JPG,,ISIC_2105563.JPG,28,25,false,0.12,hh,keypress(i),0,true,619860.3999999762,619860.1999999285,617156.858,617381.3999999762,617173.516,619642.549,1,40,31,
sequence,flow.Sequence,8_30,2023-11-20T20:44:38.384Z,,,,,,,,,,,2686.6839999285294,completion,,,,,,,high,high,,,,,,,false,,,,,true,619860.6000000238,619860.1999999285,617156.858,617381.3999999762,617173.516,619642.549,1,40,,
trial,html.Screen,8_31_0,2023-11-20T20:44:45.455Z,,,,2,0.0199897690678184,0.0312486875504497,,0.04,true,ll,7289.451000000001,response,-1.0561331896671369,0.9893888365505557,-1.1312363579884581,-1.026183861508091,1.191770229045903,-1.1105905856568794,low,low,,ISIC_5482426.JPG,,ISIC_0026595.JPG,28,27,false,0.11,ll,keypress(f),0,true,626932.1000000238,626932,619625.955,619860.6999999285,619642.549,626716.308,1,40,32,
sequence,flow.Sequence,8_31,2023-11-20T20:44:45.455Z,,,,,,,,,,,7289.451000000001,completion,,,,,,,low,low,,,,,,,false,,,,,true,626932.3999999762,626932,619625.955,619860.6999999285,619642.549,626716.308,1,40,,
trial,html.Screen,8_32_0,2023-11-20T20:44:49.407Z,,,,2,-0.0050679133050021,-0.0174815595031679,,0.04,false,hl,4167.491999952355,response,0.8150886811691144,0.9893888365505557,-1.081236357988458,-0.862416038462147,1.191770229045903,-1.0605905856568794,high,low,,ISIC_9848743.JPG,,ISIC_0058079.JPG,28,25,false,0.22000000000000008,hh,keypress(i),0,true,630883.8999999762,630883.7999999523,626699.753,626932.5,626716.308,630670.218,1,40,33,
sequence,flow.Sequence,8_32,2023-11-20T20:44:49.407Z,,,,,,,,,,,4167.491999952355,completion,,,,,,,high,low,,,,,,,false,,,,,true,630884.1000000238,630883.7999999523,626699.753,626932.5,626716.308,630670.218,1,40,,
trial,html.Screen,8_33_0,2023-11-20T20:44:57.311Z,,,,2,0.0051046740562181,-0.0178832721027728,,0.04,false,hl,8117.681999976165,response,0.8479396253253069,1.0076566707544916,-1.081236357988458,-1.011054319516718,1.191770229045903,-1.1105905856568794,high,low,,ISIC_9545819.JPG,,ISIC_0063521.JPG,28,25,false,0.2500000000000001,lh,keypress(e),0,true,638788.1000000238,638787.8999999762,630653.618,630884.1999999285,630670.218,638578.185,1,40,34,
sequence,flow.Sequence,8_33,2023-11-20T20:44:57.311Z,,,,,,,,,,,8117.681999976165,completion,,,,,,,high,low,,,,,,,false,,,,,true,638788.1999999285,638787.8999999762,630653.618,630884.1999999285,630670.218,638578.185,1,40,,
trial,html.Screen,8_34_0,2023-11-20T20:45:04.240Z,,,,2,-0.0057914759495055,0.018500200317654,,0.04,true,hl,7138.11499995226,response,0.9013888878932071,1.0576566707544917,-1.081236357988458,-0.9328095253308732,1.191770229045903,-1.1605905856568794,high,low,,ISIC_0058723.JPG,,ISIC_0068259.JPG,28,28,false,0.30000000000000016,hl,keypress(j),0,true,645716.5,645716.2999999523,638561.58,638788.2999999523,638578.185,645501.802,1,40,35,
sequence,flow.Sequence,8_34,2023-11-20T20:45:04.240Z,,,,,,,,,,,7138.11499995226,completion,,,,,,,high,low,,,,,,,false,,,,,true,645716.6999999285,645716.2999999523,638561.58,638788.2999999523,638578.185,645501.802,1,40,,
trial,html.Screen,8_35_0,2023-11-20T20:45:06.687Z,,,,2,-0.0399381815506136,-0.0177751789152893,,0.04,false,hl,2662.3979999284493,response,1.0143509683988825,1.0576566707544917,-1.081236357988458,-1.0281980567462463,1.191770229045903,-1.1605905856568794,high,low,,ISIC_3981425.JPG,,ISIC_0062031.JPG,28,28,false,0.30000000000000016,ll,keypress(f),0,true,648164.2999999523,648164.1999999285,645485.207,645716.8999999762,645501.802,647954.261,1,40,36,
sequence,flow.Sequence,8_35,2023-11-20T20:45:06.688Z,,,,,,,,,,,2662.3979999284493,completion,,,,,,,high,low,,,,,,,false,,,,,true,648164.3999999762,648164.1999999285,645485.207,645716.7999999523,645501.802,647954.261,1,40,,
trial,html.Screen,8_36_0,2023-11-20T20:45:09.663Z,,,,2,-0.0377791839943904,0.0227626648172468,,0.04,true,hh,3185.6389999761013,response,1.204229955025689,1.1076566707544917,-1.081236357988458,1.0874249761617445,1.191770229045903,-0.9305037910385597,high,high,,ISIC_7167479.JPG,,ISIC_0056930.JPG,28,26,false,0.13,hh,keypress(i),0,true,651140,651139.8999999762,647937.643,648164.3999999762,647954.261,650923.877,1,40,37,
sequence,flow.Sequence,8_36,2023-11-20T20:45:09.663Z,,,,,,,,,,,3185.6389999761013,completion,,,,,,,high,high,,,,,,,false,,,,,true,651140.1999999285,651139.8999999762,647937.643,648164.3999999762,647954.261,650923.877,1,40,,
trial,html.Screen,8_37_0,2023-11-20T20:45:13.671Z,,,,2,-0.0158987717472563,-0.0292472192292015,,0.04,true,hl,4224.123000000021,response,1.1172883106398417,1.1076566707544917,-1.081236357988458,-0.7336493335132354,1.0958274655937166,-0.9305037910385597,high,low,,ISIC_1366765.JPG,,ISIC_7415335.JPG,28,27,false,0.22000000000000008,hl,keypress(j),0,true,655148.1000000238,655148,650907.271,651140.2999999523,650923.877,654927.871,1,40,38,
sequence,flow.Sequence,8_37,2023-11-20T20:45:13.672Z,,,,,,,,,,,4224.123000000021,completion,,,,,,,high,low,,,,,,,false,,,,,true,655148.2999999523,655148,650907.271,651140.2999999523,650923.877,654927.871,1,40,,
trial,html.Screen,8_38_0,2023-11-20T20:45:17.624Z,,,,2,0.0361875505619981,-0.0291457404567876,,0.04,false,lh,4172.428999952273,response,-0.9225524349657857,1.0576566707544917,-1.081236357988458,0.929746784178986,1.0958274655937166,-0.9305037910385597,low,high,,ISIC_0027480.JPG,,ISIC_0011077.JPG,28,26,false,0.2300000000000001,ll,keypress(f),0,true,659100.3999999762,659100.2999999523,654911.3,655148.2999999523,654927.871,658881.825,1,40,39,
sequence,flow.Sequence,8_38,2023-11-20T20:45:17.624Z,,,,,,,,,,,4172.428999952273,completion,,,,,,,low,high,,,,,,,false,,,,,true,659100.6999999285,659100.2999999523,654911.3,655148.2999999523,654927.871,658881.825,1,40,,
trial,html.Screen,8_39_0,2023-11-20T20:45:22.071Z,,,,2,-0.0166849894750452,0.0371614812368835,,0.04,true,ll,4666.074999976205,response,-1.056384093543893,1.0576566707544917,-1.081236357988458,-0.9175933839600456,1.1458274655937166,-0.9305037910385597,low,low,,ISIC_6231450.JPG,,ISIC_0064247.JPG,28,46,false,0.1,ll,keypress(f),0,true,663548.1000000238,663547.8999999762,658865.207,659100.7999999523,658881.825,663336.558,1,40,40,
sequence,flow.Sequence,8_39,2023-11-20T20:45:22.072Z,,,,,,,,,,,4666.074999976205,completion,,,,,,,low,low,,,,,,,false,,,,,true,663548.1999999285,663547.8999999762,658865.207,659100.6999999285,658881.825,663336.558,1,40,,
stair_loop,flow.Loop,8,2023-11-20T20:45:22.072Z,,,,,,,,,,,197408.89799997618,completion,,,,,,,,,,,,,,,false,,,,,true,663548.1999999285,663547.8999999762,466122.252,466332.10000002384,466139.002,663336.558,1,40,,
exp_instructions,html.Screen,9,2023-11-20T20:45:26.367Z,,,,,,,,,,,4506.841999976197,response,,,,,,,,,,,,,,,,,continue,keypress(Space),,,667843.6999999285,667843.3999999762,663319.769,663548.1999999285,663336.558,667623.89,,,,
trial,html.Screen,10_0_0,2023-11-20T20:45:30.903Z,,,,1,0.0063515208248796,0.0194177605767913,,0.04,false,hl,4756.009999976144,response,1.064425982109969,1.0235616452424279,-1.1237363579884585,-0.958564243697126,1.1128292993704691,-1.0845732267332158,high,low,,ISIC_5281908.JPG,9,ISIC_3203344.JPG,28,28,false,0.2500000000000001,hh,keypress(i),0,false,672380.1000000238,672379.8999999762,667607.389,667843.8999999762,667623.89,672161.791,5,600,1,
break,html.Screen,10_0_1,2023-11-20T20:45:30.904Z,,,,,,,,,,,NaN,,,,,,,,high,low,,,,,,,false,,,,,false,672380.6000000238,672380.3999999762,,672380.1999999285,,672161.791,5,600,,
break_continue,html.Screen,10_0_2,2023-11-20T20:45:30.904Z,,,,,,,,,,,NaN,,,,,,,,high,low,,,,,,,false,,,,,false,672380.7999999523,672380.7999999523,,672380.6000000238,,672161.791,5,600,,
sequence,flow.Sequence,10_0,2023-11-20T20:45:30.904Z,,,,,,,,,,,4756.909999952302,completion,,,,,,,high,low,,,,,,,false,,,,,false,672380.8999999762,672380.7999999523,667607.389,667843.8999999762,667623.89,672161.791,5,600,,
trial,html.Screen,10_1_0,2023-11-20T20:45:33.992Z,,,,1,0.0086413421586899,0.0360184993500958,,0.04,false,hl,3306.408999928506,response,1.11329866545753,1.0235616452424279,-1.1237363579884585,-1.2155631217348757,1.1128292993704691,-1.0845732267332158,high,low,,ISIC_0010767.JPG,9,ISIC_0032610.JPG,28,28,false,0.2500000000000001,hh,keypress(i),0,false,675468.5,675468.1999999285,672145.152,672380.8999999762,672161.791,675248.209,5,600,2,
break,html.Screen,10_1_1,2023-11-20T20:45:33.993Z,,,,,,,,,,,NaN,,,,,,,,high,low,,,,,,,false,,,,,false,675469.1999999285,675469.1000000238,,675468.6999999285,,675248.209,5,600,,
break_continue,html.Screen,10_1_2,2023-11-20T20:45:33.993Z,,,,,,,,,,,NaN,,,,,,,,high,low,,,,,,,false,,,,,false,675469.6000000238,675469.5,,675469.2999999523,,675248.209,5,600,,
sequence,flow.Sequence,10_1,2023-11-20T20:45:33.993Z,,,,,,,,,,,3307.7090000000317,completion,,,,,,,high,low,,,,,,,false,,,,,false,675469.7999999523,675469.5,672145.152,672380.8999999762,672161.791,675248.209,5,600,,
trial,html.Screen,10_2_0,2023-11-20T20:45:36.351Z,,,,1,0.0365981355399771,0.0162670920008846,,0.04,true,ll,2579.7909999999683,response,-1.094624209823328,1.0235616452424279,-1.1237363579884585,-1.0544499428769605,1.1128292993704691,-1.0845732267332158,low,low,,ISIC_0982855.JPG,10,ISIC_0055526.JPG,28,27,false,0.11,ll,keypress(f),0,false,677828.1000000238,677828,675231.657,675469.7999999523,675248.209,677617.273,5,600,3,
break,html.Screen,10_2_1,2023-11-20T20:45:36.352Z,,,,,,,,,,,NaN,,,,,,,,low,low,,,,,,,false,,,,,false,677828.5,677828.3999999762,,677828.1999999285,,677617.273,5,600,,
break_continue,html.Screen,10_2_2,2023-11-20T20:45:36.352Z,,,,,,,,,,,NaN,,,,,,,,low,low,,,,,,,false,,,,,false,677828.6000000238,677828.6000000238,,677828.5,,677617.273,5,600,,
sequence,flow.Sequence,10_2,2023-11-20T20:45:36.352Z,,,,,,,,,,,2580.39100002381,completion,,,,,,,low,low,,,,,,,false,,,,,false,677828.6999999285,677828.6000000238,675231.657,675469.7999999523,675248.209,677617.273,5,600,,
trial,html.Screen,10_3_0,2023-11-20T20:45:40.280Z,,,,1,0.0321039635696159,0.020496766286318,,0.04,false,ll,4139.526999952272,response,-1.018568530854085,1.0235616452424279,-1.1237363579884585,-1.1850528225859975,1.1128292993704691,-1.0845732267332158,low,low,,ISIC_0058063.JPG,9,ISIC_0057180.JPG,28,27,false,0.11,hl,keypress(j),0,false,681757.1000000238,681756.7999999523,677600.727,677828.6999999285,677617.273,681537.908,5,600,4,
break,html.Screen,10_3_1,2023-11-20T20:45:40.281Z,,,,,,,,,,,NaN,,,,,,,,low,low,,,,,,,false,,,,,false,681758.1000000238,681757.7999999523,,681757.3999999762,,681537.908,5,600,,
break_continue,html.Screen,10_3_2,2023-11-20T20:45:40.282Z,,,,,,,,,,,NaN,,,,,,,,low,low,,,,,,,false,,,,,false,681758.6000000238,681758.3999999762,,681758.2999999523,,681537.908,5,600,,
sequence,flow.Sequence,10_3,2023-11-20T20:45:40.282Z,,,,,,,,,,,4141.126999976113,completion,,,,,,,low,low,,,,,,,false,,,,,false,681758.8999999762,681758.3999999762,677600.727,677828.6999999285,677617.273,681537.908,5,600,,
trial,html.Screen,10_4_0,2023-11-20T20:45:52.687Z,,,,1,-0.0060934073440827,-0.0279108145883031,,0.04,false,hh,12625.891999952262,response,1.1168199061753437,1.0235616452424279,-1.1237363579884585,1.212287319329914,1.1128292993704691,-1.0845732267332158,high,high,,ISIC_0032604.JPG,10,ISIC_5919355.JPG,28,30,false,0.13,lh,keypress(e),0,false,694163.8999999762,694163.7999999523,681521.34,681759.1000000238,681537.908,693950.217,5,600,5,
break,html.Screen,10_4_1,2023-11-20T20:45:52.688Z,,,,,,,,,,,NaN,,,,,,,,high,high,,,,,,,false,,,,,false,694164.2999999523,694164.1999999285,,694164,,693950.217,5,600,,
break_continue,html.Screen,10_4_2,2023-11-20T20:45:52.688Z,,,,,,,,,,,NaN,,,,,,,,high,high,,,,,,,false,,,,,false,694164.5,694164.3999999762,,694164.2999999523,,693950.217,5,600,,
sequence,flow.Sequence,10_4,2023-11-20T20:45:52.688Z,,,,,,,,,,,12626.491999976104,completion,,,,,,,high,high,,,,,,,false,,,,,false,694164.6000000238,694164.3999999762,681521.34,681759,681537.908,693950.217,5,600,,
trial,html.Screen,10_5_0,2023-11-20T20:45:58.215Z,,,,1,0.0365981355399771,0.0162670920008846,,0.04,false,lh,5741.783000000054,response,-0.8787496315223856,1.0235616452424279,-1.1237363579884585,1.3680901203013998,1.1128292993704691,-1.0845732267332158,low,high,,ISIC_0982855.JPG,9,ISIC_0023811.JPG,28,25,false,0.2600000000000001,hh,keypress(i),0,false,699692.1999999285,699692,693933.546,694164.6000000238,693950.217,699472.464,5,600,6,
break,html.Screen,10_5_1,2023-11-20T20:45:58.216Z,,,,,,,,,,,NaN,,,,,,,,low,high,,,,,,,false,,,,,false,699692.5,699692.3999999762,,699692.2999999523,,699472.464,5,600,,
break_continue,html.Screen,10_5_2,2023-11-20T20:45:58.216Z,,,,,,,,,,,NaN,,,,,,,,low,high,,,,,,,false,,,,,false,699692.7999999523,699692.6000000238,,699692.6000000238,,699472.464,5,600,,
sequence,flow.Sequence,10_5,2023-11-20T20:45:58.216Z,,,,,,,,,,,5742.383000023896,completion,,,,,,,low,high,,,,,,,false,,,,,false,699692.7999999523,699692.6000000238,693933.546,694164.6000000238,693950.217,699472.464,5,600,,
trial,html.Screen,10_6_0,2023-11-20T20:46:02.493Z,,,,1,-0.0060934073440827,-0.0279108145883031,,0.04,false,ll,4496.83599995228,response,-1.143881656046846,1.0235616452424279,-1.1237363579884585,-0.9998119797725442,1.1128292993704691,-1.0845732267332158,low,low,,ISIC_0032604.JPG,10,ISIC_8685259.JPG,28,27,false,0.11,hh,keypress(i),0,false,703969.3999999762,703969.2999999523,699455.682,699692.7999999523,699472.464,703760.087,5,600,7,
break,html.Screen,10_6_1,2023-11-20T20:46:02.493Z,,,,,,,,,,,NaN,,,,,,,,low,low,,,,,,,false,,,,,false,703969.8999999762,703969.7999999523,,703969.5,,703760.087,5,600,,
break_continue,html.Screen,10_6_2,2023-11-20T20:46:02.493Z,,,,,,,,,,,NaN,,,,,,,,low,low,,,,,,,false,,,,,false,703970.1000000238,703970,,703970,,703760.087,5,600,,
sequence,flow.Sequence,10_6,2023-11-20T20:46:02.494Z,,,,,,,,,,,4497.535999999964,completion,,,,,,,low,low,,,,,,,false,,,,,false,703970.1999999285,703970,699455.682,699692.7999999523,699472.464,703760.087,5,600,,
trial,html.Screen,10_7_0,2023-11-20T20:46:08.096Z,,,,1,0.010035581303589,-0.0100711721396864,,0.04,true,lh,5812.112999928417,response,-0.9212323139676136,1.0235616452424279,-1.1237363579884585,0.9882196642247332,1.1128292993704691,-1.0845732267332158,low,high,,ISIC_0030592.JPG,9,ISIC_0014255.JPG,28,25,false,0.2600000000000001,lh,keypress(e),0,false,709572.2999999523,709572.1999999285,703743.57,703970.2999999523,703760.087,709349.017,5,600,8,
break,html.Screen,10_7_1,2023-11-20T20:46:08.096Z,,,,,,,,,,,NaN,,,,,,,,low,high,,,,,,,false,,,,,false,709572.6999999285,709572.6000000238,,709572.5,,709349.017,5,600,,
break_continue,html.Screen,10_7_2,2023-11-20T20:46:08.096Z,,,,,,,,,,,NaN,,,,,,,,low,high,,,,,,,false,,,,,false,709572.8999999762,709572.7999999523,,709572.6999999285,,709349.017,5,600,,
sequence,flow.Sequence,10_7,2023-11-20T20:46:08.096Z,,,,,,,,,,,5812.7129999522585,completion,,,,,,,low,high,,,,,,,false,,,,,false,709573,709572.7999999523,703743.57,703970.2999999523,703760.087,709349.017,5,600,,
trial,html.Screen,10_8_0,2023-11-20T20:46:13.857Z,,,,1,-0.0050679133050021,-0.0174815595031679,,0.04,true,hl,5983.782999952324,response,0.8779374983479176,1.0235616452424279,-1.1237363579884585,-0.9745548032823428,1.1128292993704691,-1.0845732267332158,high,low,,ISIC_9848743.JPG,10,ISIC_2991354.JPG,28,28,false,0.2500000000000001,hl,keypress(j),0,false,715333,715332.7999999523,709332.518,709573,709349.017,715121.497,5,600,9,
break,html.Screen,10_8_1,2023-11-20T20:46:13.858Z,,,,,,,,,,,NaN,,,,,,,,high,low,,,,,,,false,,,,,false,715334,715333.6999999285,,715333.2999999523,,715121.497,5,600,,
break_continue,html.Screen,10_8_2,2023-11-20T20:46:13.858Z,,,,,,,,,,,NaN,,,,,,,,high,low,,,,,,,false,,,,,false,715334.7999999523,715334.6000000238,,715334.2999999523,,715121.497,5,600,,
sequence,flow.Sequence,10_8,2023-11-20T20:46:13.859Z,,,,,,,,,,,5985.583000023849,completion,,,,,,,high,low,,,,,,,false,,,,,false,715335,715334.6000000238,709332.518,709573,709349.017,715121.497,5,600,,
trial,html.Screen,10_9_0,2023-11-20T20:46:19.424Z,,,,1,-0.0399381815506136,-0.0177751789152893,,0.04,true,ll,5778.7029999285005,response,-1.0353494157291625,1.0235616452424279,-1.1237363579884585,-0.9833297148698538,1.1128292993704691,-1.0845732267332158,low,low,,ISIC_3981425.JPG,10,ISIC_5156491.JPG,28,27,false,0.11,ll,keypress(f),0,false,720900.2999999523,720900.1999999285,715104.885,715335.1999999285,715121.497,720676.996,5,600,10,
break,html.Screen,10_9_1,2023-11-20T20:46:19.424Z,,,,,,,,,,,NaN,,,,,,,,low,low,,,,,,,false,,,,,false,720900.6999999285,720900.6000000238,,720900.5,,720676.996,5,600,,
break_continue,html.Screen,10_9_2,2023-11-20T20:46:19.425Z,,,,,,,,,,,NaN,,,,,,,,low,low,,,,,,,false,,,,,false,720900.8999999762,720900.7999999523,,720900.7999999523,,720676.996,5,600,,
sequence,flow.Sequence,10_9,2023-11-20T20:46:19.425Z,,,,,,,,,,,5779.302999952342,completion,,,,,,,low,low,,,,,,,false,,,,,false,720901.1000000238,720900.7999999523,715104.885,715335.1999999285,715121.497,720676.996,5,600,,
trial,html.Screen,10_10_0,2023-11-20T20:46:23.265Z,,,,1,-0.0050679133050021,-0.0174815595031679,,0.04,true,hh,4063.7039999284316,response,0.9191486333136276,1.0235616452424279,-1.1237363579884585,1.080719641270871,1.1128292993704691,-1.0845732267332158,high,high,,ISIC_9848743.JPG,10,ISIC_0663941.JPG,28,30,false,0.13,hh,keypress(i),0,false,724740.8999999762,724740.6999999285,720660.354,720901.1000000238,720676.996,724531.033,5,600,11,
break,html.Screen,10_10_1,2023-11-20T20:46:23.265Z,,,,,,,,,,,NaN,,,,,,,,high,high,,,,,,,false,,,,,false,724741.6000000238,724741.3999999762,,724741.1999999285,,724531.033,5,600,,
break_continue,html.Screen,10_10_2,2023-11-20T20:46:23.266Z,,,,,,,,,,,NaN,,,,,,,,high,high,,,,,,,false,,,,,false,724742.1000000238,724741.8999999762,,724741.7999999523,,724531.033,5,600,,
sequence,flow.Sequence,10_10,2023-11-20T20:46:23.266Z,,,,,,,,,,,4064.9039999761153,completion,,,,,,,high,high,,,,,,,false,,,,,false,724742.3999999762,724741.8999999762,720660.354,720901.1000000238,720676.996,724531.033,5,600,,
trial,html.Screen,10_11_0,2023-11-20T20:46:27.185Z,,,,1,-0.0023664502831079,-0.0252784582169994,,0.04,false,hh,4129.66699992842,response,1.1168199061753437,1.0235616452424279,-1.1237363579884585,1.212287319329914,1.1128292993704691,-1.0845732267332158,high,high,,ISIC_4156010.JPG,9,ISIC_5919355.JPG,28,30,false,0.13,ll,keypress(f),0,false,728661,728660.6999999285,724514.151,724742.5,724531.033,728451.499,5,600,12,
break,html.Screen,10_11_1,2023-11-20T20:46:27.185Z,,,,,,,,,,,NaN,,,,,,,,high,high,,,,,,,false,,,,,false,728661.6000000238,728661.3999999762,,728661.1000000238,,728451.499,5,600,,
break_continue,html.Screen,10_11_2,2023-11-20T20:46:27.186Z,,,,,,,,,,,NaN,,,,,,,,high,high,,,,,,,false,,,,,false,728662.1000000238,728661.8999999762,,728661.7999999523,,728451.499,5,600,,
sequence,flow.Sequence,10_11,2023-11-20T20:46:27.186Z,,,,,,,,,,,4130.866999976104,completion,,,,,,,high,high,,,,,,,false,,,,,false,728662.1999999285,728661.8999999762,724514.151,724742.5,724531.033,728451.499,5,600,,
trial,html.Screen,10_12_0,2023-11-20T20:46:29.912Z,,,,1,0.0321039635696159,0.020496766286318,,0.04,true,hh,2936.800999952364,response,1.0885984639975343,1.0235616452424279,-1.1237363579884585,1.2042618719491294,1.1128292993704691,-1.0845732267332158,high,high,,ISIC_0058063.JPG,9,ISIC_0012740.JPG,28,30,false,0.13,hh,keypress(i),0,false,731388.3999999762,731388.2999999523,728434.852,728662.2999999523,728451.499,731170.855,5,600,13,
break,html.Screen,10_12_1,2023-11-20T20:46:29.912Z,,,,,,,,,,,NaN,,,,,,,,high,high,,,,,,,false,,,,,false,731388.6999999285,731388.6999999285,,731388.5,,731170.855,5,600,,
break_continue,html.Screen,10_12_2,2023-11-20T20:46:29.913Z,,,,,,,,,,,NaN,,,,,,,,high,high,,,,,,,false,,,,,false,731389,731388.8999999762,,731388.7999999523,,731170.855,5,600,,
sequence,flow.Sequence,10_12,2023-11-20T20:46:29.913Z,,,,,,,,,,,2937.4009999762056,completion,,,,,,,high,high,,,,,,,false,,,,,false,731389,731388.8999999762,728434.852,728662.2999999523,728451.499,731170.855,5,600,,
trial,html.Screen,10_13_0,2023-11-20T20:46:34.112Z,,,,1,-0.00126575685933,-0.0325046559638838,,0.04,false,lh,4417.2450000238605,response,-1.0264463986917702,1.0235616452424279,-1.1237363579884585,1.171271535505083,1.1128292993704691,-1.0845732267332158,low,high,,ISIC_5682259.JPG,8,ISIC_7889838.JPG,28,25,false,0.2600000000000001,hh,keypress(i),0,false,735588.2999999523,735588.1000000238,731154.164,731389.1000000238,731170.855,735375.046,5,600,14,
break,html.Screen,10_13_1,2023-11-20T20:46:34.112Z,,,,,,,,,,,NaN,,,,,,,,low,high,,,,,,,false,,,,,false,735588.6000000238,735588.5,,735588.3999999762,,735375.046,5,600,,
break_continue,html.Screen,10_13_2,2023-11-20T20:46:34.112Z,,,,,,,,,,,NaN,,,,,,,,low,high,,,,,,,false,,,,,false,735588.6999999285,735588.6999999285,,735588.6000000238,,735375.046,5,600,,
sequence,flow.Sequence,10_13,2023-11-20T20:46:34.112Z,,,,,,,,,,,4417.844999928493,completion,,,,,,,low,high,,,,,,,false,,,,,false,735588.7999999523,735588.6999999285,731154.164,731389,731170.855,735375.046,5,600,,
trial,html.Screen,10_14_0,2023-11-20T20:46:36.096Z,,,,1,-0.0057914759495055,0.018500200317654,,0.04,true,hh,2197.054000023869,response,1.0064329161780483,1.0235616452424279,-1.1237363579884585,1.0631481857644678,1.1128292993704691,-1.0845732267332158,high,high,,ISIC_0058723.JPG,9,ISIC_0033137.JPG,28,30,false,0.13,hh,keypress(i),0,false,737572.1000000238,737572.1000000238,735358.505,735588.8999999762,735375.046,737360.349,5,600,15,
break,html.Screen,10_14_1,2023-11-20T20:46:36.096Z,,,,,,,,,,,NaN,,,,,,,,high,high,,,,,,,false,,,,,false,737572.5,737572.3999999762,,737572.2999999523,,737360.349,5,600,,
break_continue,html.Screen,10_14_2,2023-11-20T20:46:36.096Z,,,,,,,,,,,NaN,,,,,,,,high,high,,,,,,,false,,,,,false,737572.7999999523,737572.6999999285,,737572.6000000238,,737360.349,5,600,,
sequence,flow.Sequence,10_14,2023-11-20T20:46:36.096Z,,,,,,,,,,,2197.6539999285014,completion,,,,,,,high,high,,,,,,,false,,,,,false,737572.7999999523,737572.6999999285,735358.505,735588.7999999523,735375.046,737360.349,5,600,,
trial,html.Screen,10_15_0,2023-11-20T20:46:38.048Z,,,,1,-0.0050679133050021,-0.0174815595031679,,0.04,false,hl,2163.850999928429,response,1.0143509683988825,1.0235616452424279,-1.1237363579884585,-1.0281980567462463,1.1128292993704691,-1.0845732267332158,high,low,,ISIC_9848743.JPG,10,ISIC_0062031.JPG,28,28,false,0.2500000000000001,ll,keypress(f),0,false,739524.3999999762,739524.1999999285,737343.908,737572.8999999762,737360.349,739312.375,5,600,16,
break,html.Screen,10_15_1,2023-11-20T20:46:38.048Z,,,,,,,,,,,NaN,,,,,,,,high,low,,,,,,,false,,,,,false,739524.6999999285,739524.6000000238,,739524.5,,739312.375,5,600,,
break_continue,html.Screen,10_15_2,2023-11-20T20:46:38.048Z,,,,,,,,,,,NaN,,,,,,,,high,low,,,,,,,false,,,,,false,739524.8999999762,739524.7999999523,,739524.7999999523,,739312.375,5,600,,
sequence,flow.Sequence,10_15,2023-11-20T20:46:38.049Z,,,,,,,,,,,2164.4509999522706,completion,,,,,,,high,low,,,,,,,false,,,,,false,739524.8999999762,739524.7999999523,737343.908,737572.8999999762,737360.349,739312.375,5,600,,
trial,html.Screen,10_16_0,2023-11-20T20:46:39.824Z,,,,1,0.0063515208248796,0.0194177605767913,,0.04,true,hh,1987.7250000238419,response,0.9116506478817816,1.0235616452424279,-1.1237363579884585,1.0416072379908032,1.1128292993704691,-1.0845732267332158,high,high,,ISIC_5281908.JPG,8,ISIC_3273370.JPG,28,30,false,0.13,hh,keypress(i),0,false,741300.1999999285,741300.1000000238,739295.619,739525,739312.375,741080.764,5,600,17,
break,html.Screen,10_16_1,2023-11-20T20:46:39.824Z,,,,,,,,,,,NaN,,,,,,,,high,high,,,,,,,false,,,,,false,741300.6000000238,741300.5,,741300.2999999523,,741080.764,5,600,,
break_continue,html.Screen,10_16_2,2023-11-20T20:46:39.824Z,,,,,,,,,,,NaN,,,,,,,,high,high,,,,,,,false,,,,,false,741300.7999999523,741300.6999999285,,741300.6999999285,,741080.764,5,600,,
sequence,flow.Sequence,10_16,2023-11-20T20:46:39.824Z,,,,,,,,,,,1988.3249999284744,completion,,,,,,,high,high,,,,,,,false,,,,,false,741300.7999999523,741300.6999999285,739295.619,739525,739312.375,741080.764,5,600,,
trial,html.Screen,10_17_0,2023-11-20T20:46:42.496Z,,,,1,0.0361875505619981,-0.0291457404567876,,0.04,true,hh,2891.435999928508,response,0.9490045439645592,1.0235616452424279,-1.1237363579884585,1.21751560785155,1.1128292993704691,-1.0845732267332158,high,high,,ISIC_0027480.JPG,8,ISIC_3779424.JPG,28,30,false,0.13,hh,keypress(i),0,false,743972.2999999523,743972.1999999285,741064.246,741300.8999999762,741080.764,743750.113,5,600,18,
break,html.Screen,10_17_1,2023-11-20T20:46:42.496Z,,,,,,,,,,,NaN,,,,,,,,high,high,,,,,,,false,,,,,false,743972.6999999285,743972.6000000238,,743972.5,,743750.113,5,600,,
break_continue,html.Screen,10_17_2,2023-11-20T20:46:42.497Z,,,,,,,,,,,NaN,,,,,,,,high,high,,,,,,,false,,,,,false,743972.8999999762,743972.7999999523,,743972.6999999285,,743750.113,5,600,,
sequence,flow.Sequence,10_17,2023-11-20T20:46:42.497Z,,,,,,,,,,,2892.03599995235,completion,,,,,,,high,high,,,,,,,false,,,,,false,743973,743972.7999999523,741064.246,741300.8999999762,741080.764,743750.113,5,600,,
trial,html.Screen,10_18_0,2023-11-20T20:46:47.104Z,,,,1,-0.012810673904807,0.00400964452501,,0.04,false,hl,4830.286999976146,response,0.8069562753553525,1.0235616452424279,-1.1237363579884585,-0.9101764190105358,1.1128292993704691,-1.0845732267332158,high,low,,ISIC_0064656.JPG,9,ISIC_0046596.JPG,28,28,false,0.2500000000000001,ll,keypress(f),0,false,748580.6000000238,748580.3999999762,743733.609,743973,743750.113,748371.398,5,600,19,
break,html.Screen,10_18_1,2023-11-20T20:46:47.105Z,,,,,,,,,,,NaN,,,,,,,,high,low,,,,,,,false,,,,,false,748581.1999999285,748581.1000000238,,748580.7999999523,,748371.398,5,600,,
break_continue,html.Screen,10_18_2,2023-11-20T20:46:47.105Z,,,,,,,,,,,NaN,,,,,,,,high,low,,,,,,,false,,,,,false,748581.7999999523,748581.6000000238,,748581.3999999762,,748371.398,5,600,,
sequence,flow.Sequence,10_18,2023-11-20T20:46:47.105Z,,,,,,,,,,,4831.48700002383,completion,,,,,,,high,low,,,,,,,false,,,,,false,748581.7999999523,748581.6000000238,743733.609,743973,743750.113,748371.398,5,600,,
trial,html.Screen,10_19_0,2023-11-20T20:46:52.096Z,,,,1,-0.0057914759495055,0.018500200317654,,0.04,false,lh,5200.501999976113,response,-1.0748728054622358,1.0235616452424279,-1.1237363579884585,1.2840853987892311,1.1128292993704691,-1.0845732267332158,low,high,,ISIC_0058723.JPG,9,ISIC_0059219.JPG,28,25,false,0.2600000000000001,hl,keypress(j),0,false,753572,753571.8999999762,748354.789,748582,748371.398,753359.933,5,600,20,
break,html.Screen,10_19_1,2023-11-20T20:46:52.096Z,,,,,,,,,,,NaN,,,,,,,,low,high,,,,,,,false,,,,,false,753572.1999999285,753572.1999999285,,753572,,753359.933,5,600,,
break_continue,html.Screen,10_19_2,2023-11-20T20:46:52.096Z,,,,,,,,,,,NaN,,,,,,,,low,high,,,,,,,false,,,,,false,753572.5,753572.3999999762,,753572.2999999523,,753359.933,5,600,,
sequence,flow.Sequence,10_19,2023-11-20T20:46:52.096Z,,,,,,,,,,,5201.001999976113,completion,,,,,,,low,high,,,,,,,false,,,,,false,753572.5,753572.3999999762,748354.789,748581.8999999762,748371.398,753359.933,5,600,,
trial,html.Screen,10_20_0,2023-11-20T20:46:54.368Z,,,,1,-0.0050679133050021,-0.0174815595031679,,0.04,true,hh,2484.067000000039,response,0.9840050049609405,1.0235616452424279,-1.1237363579884585,1.1927876559115576,1.1128292993704691,-1.0845732267332158,high,high,,ISIC_9848743.JPG,8,ISIC_8651053.JPG,28,30,false,0.13,hh,keypress(i),0,false,755844.1999999285,755844,753343.148,753572.5,753359.933,755628.672,5,600,21,
break,html.Screen,10_20_1,2023-11-20T20:46:54.368Z,,,,,,,,,,,NaN,,,,,,,,high,high,,,,,,,false,,,,,false,755844.6000000238,755844.3999999762,,755844.1999999285,,755628.672,5,600,,
break_continue,html.Screen,10_20_2,2023-11-20T20:46:54.368Z,,,,,,,,,,,NaN,,,,,,,,high,high,,,,,,,false,,,,,false,755844.6999999285,755844.6999999285,,755844.6000000238,,755628.672,5,600,,
sequence,flow.Sequence,10_20,2023-11-20T20:46:54.368Z,,,,,,,,,,,2484.7669999285135,completion,,,,,,,high,high,,,,,,,false,,,,,false,755844.6999999285,755844.6999999285,753343.148,753572.5,753359.933,755628.672,5,600,,
trial,html.Screen,10_21_0,2023-11-20T20:46:56.281Z,,,,1,-0.0158987717472563,-0.0292472192292015,,0.04,true,hh,2128.527999928454,response,1.09666761087476,1.0235616452424279,-1.1237363579884585,0.9917482735105084,1.1128292993704691,-1.0845732267332158,high,high,,ISIC_1366765.JPG,8,ISIC_0071754.JPG,28,30,false,0.13,hh,keypress(i),0,false,757757.3999999762,757757.1999999285,755612.057,755844.8999999762,755628.672,757547.339,5,600,22,
break,html.Screen,10_21_1,2023-11-20T20:46:56.282Z,,,,,,,,,,,NaN,,,,,,,,high,high,,,,,,,false,,,,,false,757758.1999999285,757758.1000000238,,757757.6999999285,,757547.339,5,600,,
break_continue,html.Screen,10_21_2,2023-11-20T20:46:56.282Z,,,,,,,,,,,NaN,,,,,,,,high,high,,,,,,,false,,,,,false,757758.6999999285,757758.5,,757758.3999999762,,757547.339,5,600,,
sequence,flow.Sequence,10_21,2023-11-20T20:46:56.283Z,,,,,,,,,,,2129.8279999999795,completion,,,,,,,high,high,,,,,,,false,,,,,false,757758.8999999762,757758.5,755612.057,755844.8999999762,755628.672,757547.339,5,600,,
trial,html.Screen,10_22_0,2023-11-20T20:46:59.576Z,,,,1,0.0127320821962457,-0.0315308940184827,,0.04,true,hl,3504.7610000238055,response,0.8152354890677903,1.0235616452424279,-1.1237363579884585,-1.10470584815077,1.1128292993704691,-1.0845732267332158,high,low,,ISIC_8156101.JPG,9,ISIC_0010283.JPG,28,28,false,0.2500000000000001,hl,keypress(j),0,false,761052.1999999285,761052.1000000238,757530.611,757759,757547.339,760833.899,5,600,23,
break,html.Screen,10_22_1,2023-11-20T20:46:59.576Z,,,,,,,,,,,NaN,,,,,,,,high,low,,,,,,,false,,,,,false,761052.6000000238,761052.5,,761052.2999999523,,760833.899,5,600,,
break_continue,html.Screen,10_22_2,2023-11-20T20:46:59.576Z,,,,,,,,,,,NaN,,,,,,,,high,low,,,,,,,false,,,,,false,761052.7999999523,761052.6999999285,,761052.6999999285,,760833.899,5,600,,
sequence,flow.Sequence,10_22,2023-11-20T20:46:59.577Z,,,,,,,,,,,3505.360999928438,completion,,,,,,,high,low,,,,,,,false,,,,,false,761052.8999999762,761052.6999999285,757530.611,757759,757547.339,760833.899,5,600,,
trial,html.Screen,10_23_0,2023-11-20T20:47:01.528Z,,,,1,0.0367218428225813,-0.0026956749740767,,0.04,true,ll,2170.0009999761824,response,-1.0570280672376675,1.0235616452424279,-1.1237363579884585,-1.0932046580095067,1.1128292993704691,-1.0845732267332158,low,low,,ISIC_7212271.JPG,9,ISIC_0061320.JPG,28,27,false,0.11,ll,keypress(f),0,false,763003.8999999762,763003.8999999762,760817.155,761052.8999999762,760833.899,762785.86,5,600,24,
break,html.Screen,10_23_1,2023-11-20T20:47:01.528Z,,,,,,,,,,,NaN,,,,,,,,low,low,,,,,,,false,,,,,false,763004.2999999523,763004.1000000238,,763004.1000000238,,762785.86,5,600,,
break_continue,html.Screen,10_23_2,2023-11-20T20:47:01.528Z,,,,,,,,,,,NaN,,,,,,,,low,low,,,,,,,false,,,,,false,763004.2999999523,763004.2999999523,,763004.2999999523,,762785.86,5,600,,
sequence,flow.Sequence,10_23,2023-11-20T20:47:01.528Z,,,,,,,,,,,2170.4009999523405,completion,,,,,,,low,low,,,,,,,false,,,,,false,763004.3999999762,763004.2999999523,760817.155,761052.8999999762,760833.899,762785.86,5,600,,
trial,html.Screen,10_24_0,2023-11-20T20:47:05.473Z,,,,1,0.0086413421586899,0.0360184993500958,,0.04,false,ll,4162.93999995233,response,-1.0698162624196283,1.0235616452424279,-1.1237363579884585,-1.0648460966097275,1.1128292993704691,-1.0845732267332158,low,low,,ISIC_0010767.JPG,8,ISIC_0030552.JPG,28,27,false,0.11,hl,keypress(j),0,false,766949,766948.7999999523,762769.301,763004.5,762785.86,766739.946,5,600,25,
break,html.Screen,10_24_1,2023-11-20T20:47:05.473Z,,,,,,,,,,,NaN,,,,,,,,low,low,,,,,,,false,,,,,false,766949.5,766949.3999999762,,766949.1999999285,,766739.946,5,600,,
break_continue,html.Screen,10_24_2,2023-11-20T20:47:05.473Z,,,,,,,,,,,NaN,,,,,,,,low,low,,,,,,,false,,,,,false,766949.7999999523,766949.7999999523,,766949.6000000238,,766739.946,5,600,,
sequence,flow.Sequence,10_24,2023-11-20T20:47:05.474Z,,,,,,,,,,,4163.93999995233,completion,,,,,,,low,low,,,,,,,false,,,,,false,766950,766949.7999999523,762769.301,763004.5,762785.86,766739.946,5,600,,
trial,html.Screen,10_25_0,2023-11-20T20:47:10.960Z,,,,1,-0.0158987717472563,-0.0292472192292015,,0.04,true,hl,5696.654000023846,response,0.8644465729542988,1.0235616452424279,-1.1237363579884585,-0.8679598285079457,1.1128292993704691,-1.0845732267332158,high,low,,ISIC_1366765.JPG,9,ISIC_6718969.JPG,28,28,false,0.2500000000000001,hl,keypress(j),0,false,772436.7999999523,772436.6000000238,766723.334,766950.1000000238,766739.946,772228.754,5,600,26,
break,html.Screen,10_25_1,2023-11-20T20:47:10.961Z,,,,,,,,,,,NaN,,,,,,,,high,low,,,,,,,false,,,,,false,772437.6000000238,772437.5,,772437.1000000238,,772228.754,5,600,,
break_continue,html.Screen,10_25_2,2023-11-20T20:47:10.962Z,,,,,,,,,,,NaN,,,,,,,,high,low,,,,,,,false,,,,,false,772438.1000000238,772437.8999999762,,772437.6999999285,,772228.754,5,600,,
sequence,flow.Sequence,10_25,2023-11-20T20:47:10.962Z,,,,,,,,,,,5697.953999976162,completion,,,,,,,high,low,,,,,,,false,,,,,false,772438.1999999285,772437.8999999762,766723.334,766950,766739.946,772228.754,5,600,,
trial,html.Screen,10_26_0,2023-11-20T20:47:13.192Z,,,,1,0.0327772618698018,-0.0056908372048728,,0.04,true,ll,2439.4459999285173,response,-1.0657476601009717,1.0235616452424279,-1.1237363579884585,-1.166572336354465,1.1128292993704691,-1.0845732267332158,low,low,,ISIC_7897925.JPG,9,ISIC_0010778.JPG,28,27,false,0.11,ll,keypress(f),0,false,774668.3999999762,774668.1999999285,772211.9,772438.3999999762,772228.754,774447.516,5,600,27,
break,html.Screen,10_26_1,2023-11-20T20:47:13.193Z,,,,,,,,,,,NaN,,,,,,,,low,low,,,,,,,false,,,,,false,774668.6999999285,774668.6000000238,,774668.3999999762,,774447.516,5,600,,
break_continue,html.Screen,10_26_2,2023-11-20T20:47:13.193Z,,,,,,,,,,,NaN,,,,,,,,low,low,,,,,,,false,,,,,false,774668.7999999523,774668.7999999523,,774668.6999999285,,774447.516,5,600,,
sequence,flow.Sequence,10_26,2023-11-20T20:47:13.193Z,,,,,,,,,,,2440.045999952359,completion,,,,,,,low,low,,,,,,,false,,,,,false,774668.8999999762,774668.7999999523,772211.9,772438.3999999762,772228.754,774447.516,5,600,,
trial,html.Screen,10_27_0,2023-11-20T20:47:15.544Z,,,,1,0.0365981355399771,0.0162670920008846,,0.04,true,hh,2572.7839999523712,response,0.9116506478817816,1.0235616452424279,-1.1237363579884585,1.0416072379908032,1.1128292993704691,-1.0845732267332158,high,high,,ISIC_0982855.JPG,9,ISIC_3273370.JPG,28,30,false,0.13,hh,keypress(i),0,false,777020.3999999762,777020.2999999523,774430.812,774668.8999999762,774447.516,776799.86,5,600,28,
break,html.Screen,10_27_1,2023-11-20T20:47:15.545Z,,,,,,,,,,,NaN,,,,,,,,high,high,,,,,,,false,,,,,false,777020.6999999285,777020.6999999285,,777020.5,,776799.86,5,600,,
break_continue,html.Screen,10_27_2,2023-11-20T20:47:15.545Z,,,,,,,,,,,NaN,,,,,,,,high,high,,,,,,,false,,,,,false,777020.8999999762,777020.8999999762,,777020.7999999523,,776799.86,5,600,,
sequence,flow.Sequence,10_27,2023-11-20T20:47:15.545Z,,,,,,,,,,,2573.383999976213,completion,,,,,,,high,high,,,,,,,false,,,,,false,777021.1000000238,777020.8999999762,774430.812,774668.8999999762,774447.516,776799.86,5,600,,
trial,html.Screen,10_28_0,2023-11-20T20:47:17.376Z,,,,1,0.0127320821962457,-0.0315308940184827,,0.04,false,hl,2052.3399999284884,response,1.0143509683988825,1.0235616452424279,-1.1237363579884585,-1.0281980567462463,1.1128292993704691,-1.0845732267332158,high,low,,ISIC_8156101.JPG,8,ISIC_0062031.JPG,28,28,false,0.2500000000000001,ll,keypress(f),0,false,778852.2999999523,778852.1999999285,776783.29,777021.1000000238,776799.86,778635.013,5,600,29,
break,html.Screen,10_28_1,2023-11-20T20:47:17.377Z,,,,,,,,,,,NaN,,,,,,,,high,low,,,,,,,false,,,,,false,778852.6999999285,778852.6000000238,,778852.3999999762,,778635.013,5,600,,
break_continue,html.Screen,10_28_2,2023-11-20T20:47:17.377Z,,,,,,,,,,,NaN,,,,,,,,high,low,,,,,,,false,,,,,false,778852.8999999762,778852.7999999523,,778852.6999999285,,778635.013,5,600,,
sequence,flow.Sequence,10_28,2023-11-20T20:47:17.377Z,,,,,,,,,,,2052.9399999523303,completion,,,,,,,high,low,,,,,,,false,,,,,false,778852.8999999762,778852.7999999523,776783.29,777021.1000000238,776799.86,778635.013,5,600,,
trial,html.Screen,10_29_0,2023-11-20T20:47:19.400Z,,,,1,-0.0118555311043871,-0.0087774532070196,,0.04,false,lh,2241.0870000238065,response,-0.9873794329144926,1.0235616452424279,-1.1237363579884585,0.9500689037516484,1.1128292993704691,-1.0845732267332158,low,high,,ISIC_6488658.JPG,9,ISIC_0013498.JPG,28,25,false,0.2600000000000001,hh,keypress(i),0,false,780876.1999999285,780876.1000000238,778618.528,778853,778635.013,780653.711,5,600,30,
break,html.Screen,10_29_1,2023-11-20T20:47:19.400Z,,,,,,,,,,,NaN,,,,,,,,low,high,,,,,,,false,,,,,false,780876.5,780876.3999999762,,780876.2999999523,,780653.711,5,600,,
break_continue,html.Screen,10_29_2,2023-11-20T20:47:19.401Z,,,,,,,,,,,NaN,,,,,,,,low,high,,,,,,,false,,,,,false,780876.6999999285,780876.6000000238,,780876.6000000238,,780653.711,5,600,,
sequence,flow.Sequence,10_29,2023-11-20T20:47:19.401Z,,,,,,,,,,,2241.5870000238065,completion,,,,,,,low,high,,,,,,,false,,,,,false,780876.7999999523,780876.6000000238,778618.528,778853,778635.013,780653.711,5,600,,
trial,html.Screen,10_30_0,2023-11-20T20:47:21.841Z,,,,1,-0.0071892445601978,0.0246015408628738,,0.04,false,lh,2663.188999976148,response,-0.8787496315223856,1.0235616452424279,-1.1237363579884585,1.3680901203013998,1.1128292993704691,-1.0845732267332158,low,high,,ISIC_0014133.JPG,9,ISIC_0023811.JPG,28,25,false,0.2600000000000001,hh,keypress(i),0,false,783317.1000000238,783316.8999999762,780637.029,780876.7999999523,780653.711,783106.256,5,600,31,
break,html.Screen,10_30_1,2023-11-20T20:47:21.842Z,,,,,,,,,,,NaN,,,,,,,,low,high,,,,,,,false,,,,,false,783317.8999999762,783317.6999999285,,783317.3999999762,,783106.256,5,600,,
break_continue,html.Screen,10_30_2,2023-11-20T20:47:21.842Z,,,,,,,,,,,NaN,,,,,,,,low,high,,,,,,,false,,,,,false,783318.3999999762,783318.1999999285,,783318,,783106.256,5,600,,
sequence,flow.Sequence,10_30,2023-11-20T20:47:21.842Z,,,,,,,,,,,2664.488999928464,completion,,,,,,,low,high,,,,,,,false,,,,,false,783318.5,783318.1999999285,780637.029,780876.7999999523,780653.711,783106.256,5,600,,
trial,html.Screen,10_31_0,2023-11-20T20:47:23.760Z,,,,1,0.0367218428225813,-0.0026956749740767,,0.04,true,ll,2130.043999952264,response,-1.0657476601009717,1.0235616452424279,-1.1237363579884585,-1.166572336354465,1.1128292993704691,-1.0845732267332158,low,low,,ISIC_7212271.JPG,10,ISIC_0010778.JPG,28,27,false,0.11,ll,keypress(f),0,false,785236.5,785236.2999999523,783089.629,783318.6999999285,783106.256,785024.917,5,600,32,
break,html.Screen,10_31_1,2023-11-20T20:47:23.761Z,,,,,,,,,,,NaN,,,,,,,,low,low,,,,,,,false,,,,,false,785236.8999999762,785236.7999999523,,785236.6000000238,,785024.917,5,600,,
break_continue,html.Screen,10_31_2,2023-11-20T20:47:23.761Z,,,,,,,,,,,NaN,,,,,,,,low,low,,,,,,,false,,,,,false,785237.1999999285,785237.1000000238,,785237,,785024.917,5,600,,
sequence,flow.Sequence,10_31,2023-11-20T20:47:23.761Z,,,,,,,,,,,2130.8440000237897,completion,,,,,,,low,low,,,,,,,false,,,,,false,785237.2999999523,785237.1000000238,783089.629,783318.6000000238,783106.256,785024.917,5,600,,
trial,html.Screen,10_32_0,2023-11-20T20:47:27.760Z,,,,1,-0.0071892445601978,0.0246015408628738,,0.04,true,ll,4211.3829999523,response,-1.0296906379811772,1.0235616452424279,-1.1237363579884585,-0.9872236201212492,1.1128292993704691,-1.0845732267332158,low,low,,ISIC_0014133.JPG,9,ISIC_0015046.JPG,28,27,false,0.11,ll,keypress(f),0,false,789236.5,789236.2999999523,785008.278,785237.3999999762,785024.917,789029.875,5,600,33,
break,html.Screen,10_32_1,2023-11-20T20:47:27.761Z,,,,,,,,,,,NaN,,,,,,,,low,low,,,,,,,false,,,,,false,789236.8999999762,789236.7999999523,,789236.6000000238,,789029.875,5,600,,
break_continue,html.Screen,10_32_2,2023-11-20T20:47:27.761Z,,,,,,,,,,,NaN,,,,,,,,low,low,,,,,,,false,,,,,false,789237.1000000238,789236.8999999762,,789236.8999999762,,789029.875,5,600,,
sequence,flow.Sequence,10_32,2023-11-20T20:47:27.761Z,,,,,,,,,,,4211.982999976142,completion,,,,,,,low,low,,,,,,,false,,,,,false,789237.1999999285,789236.8999999762,785008.278,785237.3999999762,785024.917,789029.875,5,600,,
trial,html.Screen,10_33_0,2023-11-20T20:47:33.536Z,,,,1,-0.0077673378094614,-0.0021810768579373,,0.04,false,ll,5982.524999976158,response,-1.084683602025889,1.0235616452424279,-1.1237363579884585,-1.0111744161375118,1.1128292993704691,-1.0845732267332158,low,low,,ISIC_0067621.JPG,9,ISIC_0069946.JPG,28,27,false,0.11,hh,keypress(i),0,false,795012.6000000238,795012.3999999762,788995.609,789237.1999999285,789029.875,794801.213,5,600,34,
break,html.Screen,10_33_1,2023-11-20T20:47:33.537Z,,,,,,,,,,,NaN,,,,,,,,low,low,,,,,,,false,,,,,false,795013.2999999523,795013.1000000238,,795012.7999999523,,794801.213,5,600,,
break_continue,html.Screen,10_33_2,2023-11-20T20:47:33.538Z,,,,,,,,,,,NaN,,,,,,,,low,low,,,,,,,false,,,,,false,795013.6999999285,795013.6000000238,,795013.3999999762,,794801.213,5,600,,
sequence,flow.Sequence,10_33,2023-11-20T20:47:33.538Z,,,,,,,,,,,5983.725000023842,completion,,,,,,,low,low,,,,,,,false,,,,,false,795013.8999999762,795013.6000000238,788995.609,789237.1999999285,789029.875,794801.213,5,600,,
trial,html.Screen,10_34_0,2023-11-20T20:47:35.904Z,,,,1,-0.0023664502831079,-0.0252784582169994,,0.04,true,ll,2578.9869999284856,response,-1.0353494157291625,1.0235616452424279,-1.1237363579884585,-0.9833297148698538,1.1128292993704691,-1.0845732267332158,low,low,,ISIC_4156010.JPG,9,ISIC_5156491.JPG,28,27,false,0.11,ll,keypress(f),0,false,797380.2999999523,797380.1999999285,794784.676,795014,794801.213,797170.548,5,600,35,
break,html.Screen,10_34_1,2023-11-20T20:47:35.905Z,,,,,,,,,,,NaN,,,,,,,,low,low,,,,,,,false,,,,,false,797380.6999999285,797380.6000000238,,797380.5,,797170.548,5,600,,
break_continue,html.Screen,10_34_2,2023-11-20T20:47:35.905Z,,,,,,,,,,,NaN,,,,,,,,low,low,,,,,,,false,,,,,false,797380.7999999523,797380.7999999523,,797380.6999999285,,797170.548,5,600,,
sequence,flow.Sequence,10_34,2023-11-20T20:47:35.905Z,,,,,,,,,,,2579.5869999523275,completion,,,,,,,low,low,,,,,,,false,,,,,false,797380.8999999762,797380.7999999523,794784.676,795014,794801.213,797170.548,5,600,,
trial,html.Screen,10_35_0,2023-11-20T20:47:44.448Z,,,,1,-0.0071892445601978,0.0246015408628738,,0.04,false,ll,8753.751999952365,response,-1.084683602025889,1.0235616452424279,-1.1237363579884585,-1.0111744161375118,1.1128292993704691,-1.0845732267332158,low,low,,ISIC_0014133.JPG,9,ISIC_0069946.JPG,28,27,false,0.11,lh,keypress(e),0,false,805924.3999999762,805924.2999999523,797153.726,797380.8999999762,797170.548,805712.343,5,600,36,
break,html.Screen,10_35_1,2023-11-20T20:47:44.449Z,,,,,,,,,,,NaN,,,,,,,,low,low,,,,,,,false,,,,,false,805924.6999999285,805924.6000000238,,805924.5,,805712.343,5,600,,
break_continue,html.Screen,10_35_2,2023-11-20T20:47:44.449Z,,,,,,,,,,,NaN,,,,,,,,low,low,,,,,,,false,,,,,false,805924.7999999523,805924.7999999523,,805924.7999999523,,805712.343,5,600,,
sequence,flow.Sequence,10_35,2023-11-20T20:47:44.449Z,,,,,,,,,,,8754.251999952365,completion,,,,,,,low,low,,,,,,,false,,,,,false,805924.8999999762,805924.7999999523,797153.726,797380.8999999762,797170.548,805712.343,5,600,,
trial,html.Screen,10_36_0,2023-11-20T20:47:46.633Z,,,,1,0.0086413421586899,0.0360184993500958,,0.04,true,hh,2396.6570000000065,response,1.02671179315839,1.0235616452424279,-1.1237363579884585,1.232411858241539,1.1128292993704691,-1.0845732267332158,high,high,,ISIC_0010767.JPG,8,ISIC_7779155.JPG,28,30,false,0.13,hh,keypress(i),0,false,808109.2999999523,808109,805695.605,805925,805712.343,807897.748,5,600,37,
break,html.Screen,10_36_1,2023-11-20T20:47:46.634Z,,,,,,,,,,,NaN,,,,,,,,high,high,,,,,,,false,,,,,false,808110.2999999523,808110,,808109.6000000238,,807897.748,5,600,,
break_continue,html.Screen,10_36_2,2023-11-20T20:47:46.635Z,,,,,,,,,,,NaN,,,,,,,,high,high,,,,,,,false,,,,,false,808111,808110.7999999523,,808110.5,,807897.748,5,600,,
sequence,flow.Sequence,10_36,2023-11-20T20:47:46.635Z,,,,,,,,,,,2398.456999952323,completion,,,,,,,high,high,,,,,,,false,,,,,false,808111.1999999285,808110.7999999523,805695.605,805925,805712.343,807897.748,5,600,,
trial,html.Screen,10_37_0,2023-11-20T20:47:51.008Z,,,,1,0.0367218428225813,-0.0026956749740767,,0.04,true,ll,4586.151999976137,response,-1.12972273782631,1.0235616452424279,-1.1237363579884585,-1.0374079095766835,1.1128292993704691,-1.0845732267332158,low,low,,ISIC_7212271.JPG,9,ISIC_0032396.JPG,28,27,false,0.11,ll,keypress(f),0,false,812484,812483.8999999762,807881.121,808111.3999999762,807897.748,812268.701,5,600,38,
break,html.Screen,10_37_1,2023-11-20T20:47:51.008Z,,,,,,,,,,,NaN,,,,,,,,low,low,,,,,,,false,,,,,false,812484.2999999523,812484.1999999285,,812484,,812268.701,5,600,,
