sender,sender_type,sender_id,timestamp,meta,,age,blockNo,c1,c2,condition,control_tolerance,correct,correctResponse,duration,ended_on,f1,f1_high,f1_low,f2,f2_high,f2_low,feature_level1,feature_level2,gender,img_left,img_reveal,img_right,n_control_images,n_target_images,practice,range_tolerance,response,response_action,selection_duration,staircase,time_commit,time_end,time_render,time_run,time_show,time_switch,total_blocks,total_trials,trialNo,url
informed_consent,html.Screen,0,2023-11-27T20:30:49.105Z,"{""labjs_version"":""20.2.4"",""labjs_build"":{""flavor"":""development"",""commit"":""f5b4a49f956347addd546a832a3327688c2c0fef""},""location"":""https://labjs.felixhenninger.com/api/labjs_preview/index.html"",""userAgent"":""Mozilla/5.0 (Windows NT 10.0; Win64; x64) AppleWebKit/537.36 (KHTML, like Gecko) Chrome/119.0.0.0 Safari/537.36"",""platform"":""Win32"",""language"":""en-US"",""locale"":""en-US"",""timeZone"":""America/Chicago"",""timezoneOffset"":360,""screen_width"":1920,""screen_height"":1080,""scroll_width"":945,""scroll_height"":918,""window_innerWidth"":945,""window_innerHeight"":966,""devicePixelRatio"":1}",,,,,,,,,,34429.37499995231,response,,,,,,,,,,,,,,,,,consent,click button,,,35484.39999985695,35475.299999952316,1029.232,1241.6999998092651,1045.925,35262.615,,,,{}
Demography form,html.Form,1,2023-11-27T20:30:59.296Z,,,19,,,,,,,,10413.184999952318,form submission,,,,,,,,,female,,,,,,,,,,,,45676,45675.799999952316,35246.086,35484.699999809265,35262.615,45462.632,,,,
Welcome,html.Screen,2,2023-11-27T20:32:10.665Z,,,,,,,"[""asym"",""col""]",,,,71580.66799995232,response,,,,,,,,,,,,,,,,,continue,click button,,,117043.89999985695,117043.29999995232,45446.073,45676.09999990463,45462.632,116829.389,,,,
demo_instructions,html.Screen,3,2023-11-27T20:32:42.257Z,,,,,,,,,,,31805.510999856953,response,,,,,,,,,,,,,,,,,continue,click button,,,148635.39999985695,148634.89999985695,116812.787,117044,116829.389,148429.434,,,,
trial,html.Screen,4_0_0,2023-11-27T20:32:59.603Z,,,,0,-1.2872758518949912,-1.313723254903214,,,true,hh,17552.06599999999,response,1.1642596483638106,1.2,-1.2,1.091507924157762,1.2,-1.2,high,high,,ISIC_0064376.JPG,,ISIC_0765584.JPG,,25,true,0.15000000000000002,hh,keypress(i),100,false,165981.79999995232,165981.5,148412.923,148635.5,148429.434,165796.12,1,16,1,
sequence,flow.Sequence,4_0,2023-11-27T20:32:59.604Z,,,,,,,,,,,17552.06599999999,completion,,,,,,,high,high,,,,,,,true,,,,,false,165982.09999990463,165981.5,148412.923,148635.5,148429.434,165796.12,1,16,,
trial,html.Screen,4_1_0,2023-11-27T20:33:01.707Z,,,,0,-1.1671212908494544,-1.1286681796701683,,,true,hh,2288.679999952321,response,1.2200968917423711,1.2,-1.2,1.3183466064109373,1.2,-1.2,high,high,,ISIC_0065022.JPG,,ISIC_3624318.JPG,,25,true,0.15000000000000002,hh,keypress(i),100,false,168085.09999990463,168084.79999995232,165779.591,165982.19999980927,165796.12,167896.255,1,16,2,
sequence,flow.Sequence,4_1,2023-11-27T20:33:01.707Z,,,,,,,,,,,2288.679999952321,completion,,,,,,,high,high,,,,,,,true,,,,,false,168085.29999995232,168084.79999995232,165779.591,165982.19999980927,165796.12,167896.255,1,16,,
trial,html.Screen,4_2_0,2023-11-27T20:33:05.024Z,,,,0,-1.1126049058422398,-1.2305421124063929,,,true,hh,3506.144999856944,response,1.1604734171556077,1.2,-1.2,1.0789312625280616,1.2,-1.2,high,high,,ISIC_0071536.JPG,,ISIC_3950753.JPG,,25,true,0.15000000000000002,hh,keypress(i),100,false,171402.59999990463,171402.39999985695,167879.718,168085.39999985695,167896.255,171212.824,1,16,3,
sequence,flow.Sequence,4_2,2023-11-27T20:33:05.024Z,,,,,,,,,,,3506.144999856944,completion,,,,,,,high,high,,,,,,,true,,,,,false,171402.79999995232,171402.39999985695,167879.718,168085.39999985695,167896.255,171212.824,1,16,,
trial,html.Screen,4_3_0,2023-11-27T20:33:10.710Z,,,,0,-1.194799101954455,-1.2071632388858642,,,true,hh,5873.875999809272,response,1.1363600109870835,1.2,-1.2,1.295816345369928,1.2,-1.2,high,high,,ISIC_4347535.JPG,,ISIC_0026141.JPG,,25,true,0.15000000000000002,hh,keypress(i),100,false,177086.89999985695,177086.69999980927,171196.108,171402.79999995232,171212.824,176896.173,1,16,4,
sequence,flow.Sequence,4_3,2023-11-27T20:33:10.710Z,,,,,,,,,,,5873.875999809272,completion,,,,,,,high,high,,,,,,,true,,,,,false,177087.19999980927,177086.69999980927,171196.108,171402.79999995232,171212.824,176896.173,1,16,,
trial,html.Screen,4_4_0,2023-11-27T20:33:18.235Z,,,,0,1.0959058628476686,1.2921331918483707,,,true,ll,7715.426999904623,response,-1.2040551955011098,1.2,-1.2,-1.2664651062241792,1.2,-1.2,low,low,,ISIC_5920470.JPG,,ISIC_0068886.JPG,,27,true,0.12,ll,keypress(f),100,false,184612,184611.59999990463,176879.6,177087.29999995232,176896.173,184412.865,1,16,5,
sequence,flow.Sequence,4_4,2023-11-27T20:33:18.235Z,,,,,,,,,,,7715.426999904623,completion,,,,,,,low,low,,,,,,,true,,,,,false,184612.39999985695,184611.59999990463,176879.6,177087.29999995232,176896.173,184412.865,1,16,,
trial,html.Screen,4_5_0,2023-11-27T20:33:21.577Z,,,,0,1.204229955025689,1.0874249761617445,,,true,ll,3541.1350000000093,response,-1.2974483548597415,1.2,-1.2,-1.2071506593281005,1.2,-1.2,low,low,,ISIC_0056930.JPG,,ISIC_0011007.JPG,,41,true,0.15000000000000002,ll,keypress(f),100,false,187954.19999980927,187954,184396.214,184612.59999990463,184412.865,187762.847,1,16,6,
sequence,flow.Sequence,4_5,2023-11-27T20:33:21.577Z,,,,,,,,,,,3541.1350000000093,completion,,,,,,,low,low,,,,,,,true,,,,,false,187954.5,187954,184396.214,184612.5,184412.865,187762.847,1,16,,
trial,html.Screen,4_6_0,2023-11-27T20:33:24.271Z,,,,0,1.3471772753257971,1.055978100098093,,,true,ll,2885.652999999991,response,-1.3481235460784902,1.2,-1.2,-1.1303432960853397,1.2,-1.2,low,low,,ISIC_2077116.JPG,,ISIC_0010965.JPG,,41,true,0.15000000000000002,ll,keypress(f),100,false,190648.69999980927,190648.5,187746.308,187954.5,187762.847,190463.061,1,16,7,
sequence,flow.Sequence,4_6,2023-11-27T20:33:24.272Z,,,,,,,,,,,2885.652999999991,completion,,,,,,,low,low,,,,,,,true,,,,,false,190648.89999985695,190648.5,187746.308,187954.5,187762.847,190463.061,1,16,,
trial,html.Screen,4_7_0,2023-11-27T20:33:27.253Z,,,,0,1.2714351764931109,1.0785174776187512,,,true,ll,3167.138999809278,response,-1.3481235460784902,1.2,-1.2,-1.1303432960853397,1.2,-1.2,low,low,,ISIC_2454898.JPG,,ISIC_0010965.JPG,,41,true,0.15000000000000002,ll,keypress(f),100,false,193630.29999995232,193630.19999980927,190446.203,190648.89999985695,190463.061,193429.507,1,16,8,
sequence,flow.Sequence,4_7,2023-11-27T20:33:27.253Z,,,,,,,,,,,3167.138999809278,completion,,,,,,,low,low,,,,,,,true,,,,,false,193630.69999980927,193630.19999980927,190446.203,190648.89999985695,190463.061,193429.507,1,16,,
trial,html.Screen,4_8_0,2023-11-27T20:33:31.985Z,,,,0,0.9445114955578736,-1.0054210059625863,,,true,lh,4932.59299990462,response,-1.296989496412063,1.2,-1.2,1.1425074323097002,1.2,-1.2,low,high,,ISIC_0033807.JPG,,ISIC_6356803.JPG,,26,true,0.3300000000000002,lh,keypress(e),100,false,198362.29999995232,198362.09999990463,193412.879,193630.79999995232,193429.507,198162.841,1,16,9,
sequence,flow.Sequence,4_8,2023-11-27T20:33:31.985Z,,,,,,,,,,,4932.59299990462,completion,,,,,,,low,high,,,,,,,true,,,,,false,198362.69999980927,198362.09999990463,193412.879,193630.69999980927,193429.507,198162.841,1,16,,
trial,html.Screen,4_9_0,2023-11-27T20:33:33.939Z,,,,0,1.11329866545753,-1.2155631217348757,,,true,lh,2153.558999856963,response,-1.0822170028935367,1.2,-1.2,1.1654796154432183,1.2,-1.2,low,high,,ISIC_0032610.JPG,,ISIC_7288818.JPG,,33,true,0.3600000000000002,lh,keypress(e),100,false,200316.69999980927,200316.39999985695,198146.182,198362.89999985695,198162.841,200129.475,1,16,10,
sequence,flow.Sequence,4_9,2023-11-27T20:33:33.940Z,,,,,,,,,,,2153.558999856963,completion,,,,,,,low,high,,,,,,,true,,,,,false,200317,200316.39999985695,198146.182,198362.89999985695,198162.841,200129.475,1,16,,
trial,html.Screen,4_10_0,2023-11-27T20:33:36.191Z,,,,0,0.9013888878932071,-0.9328095253308732,,,true,lh,2438.2249998092593,response,-1.155796217969438,1.2,-1.2,1.1646564121743912,1.2,-1.2,low,high,,ISIC_0068259.JPG,,ISIC_2685523.JPG,,33,true,0.3600000000000002,lh,keypress(e),100,false,202567.79999995232,202567.69999980927,200112.87,200317.09999990463,200129.475,202379.54,1,16,11,
sequence,flow.Sequence,4_10,2023-11-27T20:33:36.191Z,,,,,,,,,,,2438.2249998092593,completion,,,,,,,low,high,,,,,,,true,,,,,false,202568.09999990463,202567.69999980927,200112.87,200317.09999990463,200129.475,202379.54,1,16,,
trial,html.Screen,4_11_0,2023-11-27T20:33:39.345Z,,,,0,1.4727776799485246,-0.8779113138076752,,,true,lh,3343.0599999046244,response,-1.1547137855907486,1.2,-1.2,1.0185275168641534,1.2,-1.2,low,high,,ISIC_0033074.JPG,,ISIC_7604870.JPG,,33,true,0.3600000000000002,lh,keypress(e),100,false,205722.69999980927,205722.59999990463,202362.836,202568.19999980927,202379.54,205529.517,1,16,12,
sequence,flow.Sequence,4_11,2023-11-27T20:33:39.346Z,,,,,,,,,,,3343.0599999046244,completion,,,,,,,low,high,,,,,,,true,,,,,false,205723,205722.59999990463,202362.836,202568.19999980927,202379.54,205529.517,1,16,,
trial,html.Screen,4_12_0,2023-11-27T20:33:42.740Z,,,,0,-1.055319394932912,1.409116680310466,,,true,hl,3587.9830000000075,response,1.1235224875125256,1.2,-1.2,-0.8641223012137988,1.2,-1.2,high,low,,ISIC_6398669.JPG,,ISIC_0033901.JPG,,29,true,0.3600000000000002,hl,keypress(j),100,false,209117.69999980927,209117.5,205512.88,205723,205529.517,208929.516,1,16,13,
sequence,flow.Sequence,4_12,2023-11-27T20:33:42.741Z,,,,,,,,,,,3587.9830000000075,completion,,,,,,,high,low,,,,,,,true,,,,,false,209117.89999985695,209117.5,205512.88,205723,205529.517,208929.516,1,16,,
trial,html.Screen,4_13_0,2023-11-27T20:33:44.536Z,,,,0,-1.082730232773217,0.8833175387485132,,,true,hl,1983.783999952313,response,1.064425982109969,1.2,-1.2,-0.958564243697126,1.2,-1.2,high,low,,ISIC_0011933.JPG,,ISIC_3203344.JPG,,29,true,0.3600000000000002,hl,keypress(j),100,false,210913.39999985695,210913.29999995232,208912.891,209118.09999990463,208929.516,210712.845,1,16,14,
sequence,flow.Sequence,4_13,2023-11-27T20:33:44.536Z,,,,,,,,,,,1983.783999952313,completion,,,,,,,high,low,,,,,,,true,,,,,false,210913.59999990463,210913.29999995232,208912.891,209118,208929.516,210712.845,1,16,,
trial,html.Screen,4_14_0,2023-11-27T20:33:46.388Z,,,,0,-1.055319394932912,1.409116680310466,,,true,hl,2052.0549998569477,response,0.9445114955578736,1.2,-1.2,-1.0054210059625863,1.2,-1.2,high,low,,ISIC_6398669.JPG,,ISIC_0033807.JPG,,29,true,0.3600000000000002,hl,keypress(j),100,false,212765,212764.89999985695,210696.177,210913.59999990463,210712.845,212579.55,1,16,15,
sequence,flow.Sequence,4_14,2023-11-27T20:33:46.388Z,,,,,,,,,,,2052.0549998569477,completion,,,,,,,high,low,,,,,,,true,,,,,false,212765.19999980927,212764.89999985695,210696.177,210913.59999990463,210712.845,212579.55,1,16,,
trial,html.Screen,4_15_0,2023-11-27T20:33:48.512Z,,,,0,-1.0700930503975157,0.923753102263735,,,true,hl,2309.249999952328,response,1.225025174430573,1.2,-1.2,-0.8422679054456499,1.2,-1.2,high,low,,ISIC_0000022.JPG,,ISIC_7503950.JPG,,29,true,0.3600000000000002,hl,keypress(j),100,false,214888.89999985695,214888.79999995232,212562.885,212765.19999980927,212579.55,214696.225,1,16,16,
sequence,flow.Sequence,4_15,2023-11-27T20:33:48.512Z,,,,,,,,,,,2309.249999952328,completion,,,,,,,high,low,,,,,,,true,,,,,false,214889.09999990463,214888.79999995232,212562.885,212765.19999980927,212579.55,214696.225,1,16,,
demonstration_loop,flow.Loop,4,2023-11-27T20:33:48.512Z,,,,,,,,,,,66459.36599995231,completion,,,,,,,,,,,,,,,true,,,,,false,214889.19999980927,214888.79999995232,148412.923,148635.5,148429.434,214696.225,1,16,,
practice_instructions,html.Screen,5,2023-11-27T20:33:51.715Z,,,,,,,,,,,3395.0749999523105,response,,,,,,,,,,,,,,,,,continue,click button,,,218091.79999995232,218091.29999995232,214679.555,214889.19999980927,214696.225,217879.506,,,,
trial,html.Screen,6_0_0,2023-11-27T20:34:05.186Z,,,,1,1.053007132776416,1.341217082060068,,,true,ll,13676.093999904639,response,-1.1783311757907324,1.2,-1.2,-1.266840220031473,1.2,-1.2,low,low,,ISIC_0024208.JPG,,ISIC_8241457.JPG,,27,true,0.12,ll,keypress(f),0,false,231562.89999985695,231555.59999990463,217863.097,218092,217879.506,231362.861,1,40,1,
sequence,flow.Sequence,6_0,2023-11-27T20:34:05.186Z,,,,,,,,,,,13676.093999904639,completion,,,,,,,low,low,,,,,,,true,,,,,false,231563.09999990463,231555.59999990463,217863.097,218092,217879.506,231362.861,1,40,,
trial,html.Screen,6_1_0,2023-11-27T20:34:10.331Z,,,,1,-0.887838744955182,1.3716210719758812,,,false,hl,5344.938999952312,response,1.2615315960773072,1.2,-1.2,-1.194084675079932,1.2,-1.2,high,low,,ISIC_1488727.JPG,,ISIC_0010044.JPG,,29,true,0.3600000000000002,hh,keypress(i),0,false,236708,236707.79999995232,231346.215,231563.09999990463,231362.861,236496.205,1,40,2,
sequence,flow.Sequence,6_1,2023-11-27T20:34:10.331Z,,,,,,,,,,,5344.938999952312,completion,,,,,,,high,low,,,,,,,true,,,,,false,236708.09999990463,236707.79999995232,231346.215,231563.09999990463,231362.861,236496.205,1,40,,
trial,html.Screen,6_2_0,2023-11-27T20:34:19.900Z,,,,1,0.8494721812820843,-1.3435429139974266,,,true,lh,9780.194999856962,response,-1.0822170028935367,1.2,-1.2,1.1654796154432183,1.2,-1.2,low,high,,ISIC_0033585.JPG,,ISIC_7288818.JPG,,26,true,0.3300000000000002,lh,keypress(e),0,false,246276.59999990463,246276.39999985695,236479.532,236708.19999980927,236496.205,246062.935,1,40,3,
sequence,flow.Sequence,6_2,2023-11-27T20:34:19.900Z,,,,,,,,,,,9780.194999856962,completion,,,,,,,low,high,,,,,,,true,,,,,false,246276.79999995232,246276.39999985695,236479.532,236708.19999980927,236496.205,246062.935,1,40,,
trial,html.Screen,6_3_0,2023-11-27T20:34:23.572Z,,,,1,-1.250220052739973,-1.2967258992731714,,,true,hh,3885.3649999523186,response,0.8854665385930431,1.2,-1.2,0.9330258572707198,1.2,-1.2,high,high,,ISIC_0031368.JPG,,ISIC_0026889.JPG,,157,true,0.3600000000000002,hh,keypress(i),0,false,249948.59999990463,249948.29999995232,246045.892,246277,246062.935,249762.901,1,40,4,
sequence,flow.Sequence,6_3,2023-11-27T20:34:23.572Z,,,,,,,,,,,3885.3649999523186,completion,,,,,,,high,high,,,,,,,true,,,,,false,249948.79999995232,249948.29999995232,246045.892,246276.89999985695,246062.935,249762.901,1,40,,
trial,html.Screen,6_4_0,2023-11-27T20:34:34.507Z,,,,1,-1.155796217969438,1.1646564121743912,,,true,hl,11121.098999999987,response,0.8534691366511764,1.2,-1.2,-1.276663727068437,1.2,-1.2,high,low,,ISIC_2685523.JPG,,ISIC_0056788.JPG,,29,true,0.3600000000000002,hl,keypress(j),0,false,260884.19999980927,260884,249729.442,249948.89999985695,249762.901,260679.575,1,40,5,
sequence,flow.Sequence,6_4,2023-11-27T20:34:34.508Z,,,,,,,,,,,11121.098999999987,completion,,,,,,,high,low,,,,,,,true,,,,,false,260884.29999995232,260884,249729.442,249948.89999985695,249762.901,260679.575,1,40,,
trial,html.Screen,6_5_0,2023-11-27T20:34:46.565Z,,,,1,-1.194799101954455,-1.2071632388858642,,,true,hh,12261.324999856937,response,1.2200968917423711,1.2,-1.2,1.3183466064109373,1.2,-1.2,high,high,,ISIC_4347535.JPG,,ISIC_3624318.JPG,,127,true,0.3300000000000002,hh,keypress(i),0,false,272941.19999980927,272940.89999985695,260662.663,260884.29999995232,260679.575,272729.617,1,40,6,
sequence,flow.Sequence,6_5,2023-11-27T20:34:46.565Z,,,,,,,,,,,12261.324999856937,completion,,,,,,,high,high,,,,,,,true,,,,,false,272941.69999980927,272940.89999985695,260662.663,260884.29999995232,260679.575,272729.617,1,40,,
trial,html.Screen,6_6_0,2023-11-27T20:34:54.460Z,,,,1,1.1305948371148624,1.2802709447034604,,,true,ll,8106.582999809238,response,-1.1227373144244253,1.2,-1.2,-1.1886610799377713,1.2,-1.2,low,low,,ISIC_5648111.JPG,,ISIC_0059506.JPG,,27,true,0.12,ll,keypress(f),0,false,280836.39999985695,280836.19999980927,272712.458,272941.89999985695,272729.617,280629.633,1,40,7,
sequence,flow.Sequence,6_6,2023-11-27T20:34:54.460Z,,,,,,,,,,,8106.582999809238,completion,,,,,,,low,low,,,,,,,true,,,,,false,280836.59999990463,280836.19999980927,272712.458,272941.7999999523,272729.617,280629.633,1,40,,
trial,html.Screen,6_7_0,2023-11-27T20:34:59.564Z,,,,1,1.1224745971429997,-0.8423270217438888,,,true,lh,5310.8670000000275,response,-0.9225524349657857,1.2,-1.2,0.929746784178986,1.2,-1.2,low,high,,ISIC_0057032.JPG,,ISIC_0011077.JPG,,26,true,0.3300000000000002,lh,keypress(e),0,false,285940.69999980927,285940.5,280612.922,280836.69999980927,280629.633,285729.646,1,40,8,
sequence,flow.Sequence,6_7,2023-11-27T20:34:59.564Z,,,,,,,,,,,5310.8670000000275,completion,,,,,,,low,high,,,,,,,true,,,,,false,285941,285940.5,280612.922,280836.69999980927,280629.633,285729.646,1,40,,
trial,html.Screen,6_8_0,2023-11-27T20:35:01.604Z,,,,1,1.1604734171556077,1.0789312625280616,,,true,ll,2250.853999999992,response,-1.4861633425939609,1.2,-1.2,-1.4098521025100414,1.2,-1.2,low,low,,ISIC_3950753.JPG,,ISIC_0000414.JPG,,249,true,0.3600000000000002,ll,keypress(f),0,false,287980.7999999523,287980.5,285712.92,285941.09999990463,285729.646,287779.862,1,40,9,
sequence,flow.Sequence,6_8,2023-11-27T20:35:01.604Z,,,,,,,,,,,2250.853999999992,completion,,,,,,,low,low,,,,,,,true,,,,,false,287981.09999990463,287980.5,285712.92,285941.09999990463,285729.646,287779.862,1,40,,
trial,html.Screen,6_9_0,2023-11-27T20:35:08.019Z,,,,1,-1.238264833797662,-1.176099940770289,,,false,hh,6615.9379999522935,response,1.1305948371148624,1.2,-1.2,1.2802709447034604,1.2,-1.2,high,high,,ISIC_0032861.JPG,,ISIC_5648111.JPG,,25,true,0.15000000000000002,hl,keypress(j),0,false,294395.89999985695,294395.7999999523,287762.903,287981.19999980927,287779.862,294197.838,1,40,10,
sequence,flow.Sequence,6_9,2023-11-27T20:35:08.019Z,,,,,,,,,,,6615.9379999522935,completion,,,,,,,high,high,,,,,,,true,,,,,false,294396.09999990463,294395.7999999523,287762.903,287981.19999980927,287779.862,294197.838,1,40,,
trial,html.Screen,6_10_0,2023-11-27T20:35:10.708Z,,,,1,-1.296989496412063,1.1425074323097002,,,true,hl,2886.2619999046437,response,0.8494721812820843,1.2,-1.2,-1.3435429139974266,1.2,-1.2,high,low,,ISIC_6356803.JPG,,ISIC_0033585.JPG,,29,true,0.3600000000000002,hl,keypress(j),0,false,297084.2999999523,297084.09999990463,294162.967,294396.09999990463,294197.838,296879.634,1,40,11,
sequence,flow.Sequence,6_10,2023-11-27T20:35:10.708Z,,,,,,,,,,,2886.2619999046437,completion,,,,,,,high,low,,,,,,,true,,,,,false,297084.5,297084.09999990463,294162.967,294396.09999990463,294197.838,296879.634,1,40,,
trial,html.Screen,6_11_0,2023-11-27T20:35:19.101Z,,,,1,-0.887838744955182,1.3716210719758812,,,true,hl,8597.265999856929,response,1.4727776799485246,1.2,-1.2,-0.8779113138076752,1.2,-1.2,high,low,,ISIC_1488727.JPG,,ISIC_0033074.JPG,,29,true,0.3600000000000002,hl,keypress(j),0,false,305477.19999980927,305476.89999985695,296863.137,297084.69999980927,296879.634,305263.062,1,40,12,
sequence,flow.Sequence,6_11,2023-11-27T20:35:19.101Z,,,,,,,,,,,8597.265999856929,completion,,,,,,,high,low,,,,,,,true,,,,,false,305477.59999990463,305476.89999985695,296863.137,297084.69999980927,296879.634,305263.062,1,40,,
trial,html.Screen,6_12_0,2023-11-27T20:35:23.780Z,,,,1,-1.2055236989581275,-1.1960893075698802,,,true,hh,4893.337999856973,response,0.9191486333136276,1.2,-1.2,1.080719641270871,1.2,-1.2,high,high,,ISIC_0072393.JPG,,ISIC_0663941.JPG,,127,true,0.3300000000000002,hh,keypress(i),0,false,310156.69999980927,310156.39999985695,305246.234,305477.89999985695,305263.062,309946.326,1,40,13,
sequence,flow.Sequence,6_12,2023-11-27T20:35:23.781Z,,,,,,,,,,,4893.337999856973,completion,,,,,,,high,high,,,,,,,true,,,,,false,310157,310156.39999985695,305246.234,305477.89999985695,305263.062,309946.326,1,40,,
trial,html.Screen,6_13_0,2023-11-27T20:35:32.995Z,,,,1,1.2615315960773072,-1.194084675079932,,,true,lh,9425.173999999999,response,-0.9448560599810628,1.2,-1.2,0.9099421612683488,1.2,-1.2,low,high,,ISIC_0010044.JPG,,ISIC_9684318.JPG,,26,true,0.3300000000000002,lh,keypress(e),0,false,319371.59999990463,319371.5,309929.638,310157.09999990463,309946.326,319162.998,1,40,14,
sequence,flow.Sequence,6_13,2023-11-27T20:35:32.996Z,,,,,,,,,,,9425.173999999999,completion,,,,,,,low,high,,,,,,,true,,,,,false,319371.69999980927,319371.5,309929.638,310157.09999990463,309946.326,319162.998,1,40,,
trial,html.Screen,6_14_0,2023-11-27T20:35:45.340Z,,,,1,-0.8709576717420565,1.2795156779072283,,,true,hl,12552.801999952295,response,0.9087169856594104,1.2,-1.2,-0.8835647084207277,1.2,-1.2,high,low,,ISIC_1925632.JPG,,ISIC_0000349.JPG,,29,true,0.3600000000000002,hl,keypress(j),0,false,331716,331715.7999999523,319145.992,319371.7999999523,319162.998,331513.044,1,40,15,
sequence,flow.Sequence,6_14,2023-11-27T20:35:45.340Z,,,,,,,,,,,12552.801999952295,completion,,,,,,,high,low,,,,,,,true,,,,,false,331716.09999990463,331715.7999999523,319145.992,319371.7999999523,319162.998,331513.044,1,40,,
trial,html.Screen,6_15_0,2023-11-27T20:35:55.093Z,,,,1,-1.1592423187534993,1.067128884093211,,,true,hl,9955.456000000006,response,0.8534691366511764,1.2,-1.2,-1.276663727068437,1.2,-1.2,high,low,,ISIC_6854940.JPG,,ISIC_0056788.JPG,,29,true,0.3600000000000002,hl,keypress(j),0,false,341468.69999980927,341468.5,331495.853,331716.19999980927,331513.044,341263.058,1,40,16,
sequence,flow.Sequence,6_15,2023-11-27T20:35:55.093Z,,,,,,,,,,,9955.456000000006,completion,,,,,,,high,low,,,,,,,true,,,,,false,341469,341468.5,331495.853,331716.19999980927,331513.044,341263.058,1,40,,
trial,html.Screen,6_16_0,2023-11-27T20:36:02.452Z,,,,1,-1.052305774554686,1.3940181224717798,,,true,hl,7564.941999999981,response,1.225025174430573,1.2,-1.2,-0.8422679054456499,1.2,-1.2,high,low,,ISIC_4175400.JPG,,ISIC_7503950.JPG,,29,true,0.3600000000000002,hl,keypress(j),0,false,348828.09999990463,348828,341246.065,341469.19999980927,341263.058,348613.011,1,40,17,
sequence,flow.Sequence,6_16,2023-11-27T20:36:02.452Z,,,,,,,,,,,7564.941999999981,completion,,,,,,,high,low,,,,,,,true,,,,,false,348828.19999980927,348828,341246.065,341469.19999980927,341263.058,348613.011,1,40,,
trial,html.Screen,6_17_0,2023-11-27T20:36:04.485Z,,,,1,0.9039158082670506,-1.0517562064343149,,,true,lh,2247.7889999523177,response,-1.082730232773217,1.2,-1.2,0.8833175387485132,1.2,-1.2,low,high,,ISIC_0015411.JPG,,ISIC_0011933.JPG,,26,true,0.3300000000000002,lh,keypress(e),0,false,350861.09999990463,350860.7999999523,348596.15,348828.2999999523,348613.011,350646.409,1,40,18,
sequence,flow.Sequence,6_17,2023-11-27T20:36:04.485Z,,,,,,,,,,,2247.7889999523177,completion,,,,,,,low,high,,,,,,,true,,,,,false,350861.5,350860.7999999523,348596.15,348828.2999999523,348613.011,350646.409,1,40,,
trial,html.Screen,6_18_0,2023-11-27T20:36:08.981Z,,,,1,1.301795918505203,1.0518606632781424,,,false,ll,4709.79099980928,response,-1.0474638406367112,1.2,-1.2,-1.2142897533079478,1.2,-1.2,low,low,,ISIC_0027666.JPG,,ISIC_0025277.JPG,,249,true,0.3600000000000002,hl,keypress(j),0,false,355356.5,355356.19999980927,350629.802,350861.7999999523,350646.409,355146.398,1,40,19,
sequence,flow.Sequence,6_18,2023-11-27T20:36:08.981Z,,,,,,,,,,,4709.79099980928,completion,,,,,,,low,low,,,,,,,true,,,,,false,355356.7999999523,355356.19999980927,350629.802,350861.69999980927,350646.409,355146.398,1,40,,
trial,html.Screen,6_19_0,2023-11-27T20:36:15.525Z,,,,1,-1.2435042401134029,-1.2939710463315144,,,true,hh,6753.6020000000135,response,1.1305948371148624,1.2,-1.2,1.2802709447034604,1.2,-1.2,high,high,,ISIC_0056119.JPG,,ISIC_5648111.JPG,,25,true,0.15000000000000002,hh,keypress(i),0,false,361900.09999990463,361900,355129.712,355356.89999985695,355146.398,361696.373,1,40,20,
sequence,flow.Sequence,6_19,2023-11-27T20:36:15.525Z,,,,,,,,,,,6753.6020000000135,completion,,,,,,,high,high,,,,,,,true,,,,,false,361900.39999985695,361900,355129.712,355356.89999985695,355146.398,361696.373,1,40,,
trial,html.Screen,6_20_0,2023-11-27T20:36:24.292Z,,,,1,0.8534691366511764,-1.276663727068437,,,true,lh,8971.526999856927,response,-1.052305774554686,1.2,-1.2,1.3940181224717798,1.2,-1.2,low,high,,ISIC_0056788.JPG,,ISIC_4175400.JPG,,26,true,0.3300000000000002,lh,keypress(e),0,false,370668.09999990463,370667.89999985695,361679.634,361900.5,361696.373,370463.065,1,40,21,
sequence,flow.Sequence,6_20,2023-11-27T20:36:24.293Z,,,,,,,,,,,8971.526999856927,completion,,,,,,,low,high,,,,,,,true,,,,,false,370668.19999980927,370667.89999985695,361679.634,361900.39999985695,361696.373,370463.065,1,40,,
trial,html.Screen,6_21_0,2023-11-27T20:36:30.925Z,,,,1,-1.2315945866020412,-1.13226141421557,,,true,hh,6837.434999999998,response,1.1344866365171962,1.2,-1.2,0.926850270881616,1.2,-1.2,high,high,,ISIC_0033595.JPG,,ISIC_7747998.JPG,,157,true,0.3600000000000002,hh,keypress(i),0,false,377300.59999990463,377300.5,370446.189,370668.2999999523,370463.065,377096.421,1,40,22,
sequence,flow.Sequence,6_21,2023-11-27T20:36:30.925Z,,,,,,,,,,,6837.434999999998,completion,,,,,,,high,high,,,,,,,true,,,,,false,377300.89999985695,377300.5,370446.189,370668.2999999523,370463.065,377096.421,1,40,,
trial,html.Screen,6_22_0,2023-11-27T20:36:41.469Z,,,,1,1.1642596483638106,1.091507924157762,,,true,ll,10747.778999809292,response,-1.250220052739973,1.2,-1.2,-1.2967258992731714,1.2,-1.2,low,low,,ISIC_0765584.JPG,,ISIC_0031368.JPG,,27,true,0.12,ll,keypress(f),0,false,387844.39999985695,387844.19999980927,377079.613,377301,377096.421,387646.428,1,40,23,
sequence,flow.Sequence,6_22,2023-11-27T20:36:41.469Z,,,,,,,,,,,10747.778999809292,completion,,,,,,,low,low,,,,,,,true,,,,,false,387844.59999990463,387844.19999980927,377079.613,377301,377096.421,387646.428,1,40,,
trial,html.Screen,6_23_0,2023-11-27T20:36:51.588Z,,,,1,-1.296989496412063,1.1425074323097002,,,true,hl,10317.371999952302,response,1.00615481805876,1.2,-1.2,-0.8428903771195875,1.2,-1.2,high,low,,ISIC_6356803.JPG,,ISIC_0069970.JPG,,29,true,0.3600000000000002,hl,keypress(j),0,false,397964,397963.7999999523,387612.694,387844.69999980927,387646.428,397763.139,1,40,24,
sequence,flow.Sequence,6_23,2023-11-27T20:36:51.588Z,,,,,,,,,,,10317.371999952302,completion,,,,,,,high,low,,,,,,,true,,,,,false,397964.09999990463,397963.7999999523,387612.694,387844.69999980927,387646.428,397763.139,1,40,,
trial,html.Screen,6_24_0,2023-11-27T20:36:56.141Z,,,,1,0.9039158082670506,-1.0517562064343149,,,false,lh,4752.960999904608,response,-0.9225524349657857,1.2,-1.2,0.929746784178986,1.2,-1.2,low,high,,ISIC_0015411.JPG,,ISIC_0011077.JPG,,26,true,0.3300000000000002,ll,keypress(f),0,false,402516.19999980927,402516.09999990463,397746.114,397964.09999990463,397763.139,402313.076,1,40,25,
sequence,flow.Sequence,6_24,2023-11-27T20:36:56.141Z,,,,,,,,,,,4752.960999904608,completion,,,,,,,low,high,,,,,,,true,,,,,false,402516.5,402516.09999990463,397746.114,397964.09999990463,397763.139,402313.076,1,40,,
trial,html.Screen,6_25_0,2023-11-27T20:37:00.052Z,,,,1,1.064425982109969,-0.958564243697126,,,true,lh,4114.423999999999,response,-1.1547137855907486,1.2,-1.2,1.0185275168641534,1.2,-1.2,low,high,,ISIC_3203344.JPG,,ISIC_7604870.JPG,,33,true,0.3600000000000002,lh,keypress(e),0,false,406427.59999990463,406427.5,402296.452,402516.59999990463,402313.076,406213.073,1,40,26,
sequence,flow.Sequence,6_25,2023-11-27T20:37:00.052Z,,,,,,,,,,,4114.423999999999,completion,,,,,,,low,high,,,,,,,true,,,,,false,406427.69999980927,406427.5,402296.452,402516.59999990463,402313.076,406213.073,1,40,,
trial,html.Screen,6_26_0,2023-11-27T20:37:11.110Z,,,,1,-1.1894733304494307,-1.1169761866204877,,,true,hh,11271.427000000025,response,1.071052731807262,1.2,-1.2,0.8412787617064144,1.2,-1.2,high,high,,ISIC_0033813.JPG,,ISIC_4269227.JPG,,157,true,0.3600000000000002,hh,keypress(i),0,false,417484.69999980927,417484.5,406196.394,406427.7999999523,406213.073,417279.858,1,40,27,
sequence,flow.Sequence,6_26,2023-11-27T20:37:11.110Z,,,,,,,,,,,11271.427000000025,completion,,,,,,,high,high,,,,,,,true,,,,,false,417485.09999990463,417484.5,406196.394,406427.7999999523,406213.073,417279.858,1,40,,
trial,html.Screen,6_27_0,2023-11-27T20:37:15.061Z,,,,1,1.204229955025689,1.0874249761617445,,,true,ll,4155.641999999993,response,-1.2974483548597415,1.2,-1.2,-1.2071506593281005,1.2,-1.2,low,low,,ISIC_0056930.JPG,,ISIC_0011007.JPG,,27,true,0.12,ll,keypress(f),0,false,421435.59999990463,421435.5,417262.717,417485.19999980927,417279.858,421229.807,1,40,28,
sequence,flow.Sequence,6_27,2023-11-27T20:37:15.061Z,,,,,,,,,,,4155.641999999993,completion,,,,,,,low,low,,,,,,,true,,,,,false,421435.7999999523,421435.5,417262.717,417485.19999980927,417279.858,421229.807,1,40,,
trial,html.Screen,6_28_0,2023-11-27T20:37:20.005Z,,,,1,1.4748095371445096,-0.9579010801034902,,,true,lh,5149.792999904661,response,-1.052305774554686,1.2,-1.2,1.3940181224717798,1.2,-1.2,low,high,,ISIC_0033216.JPG,,ISIC_4175400.JPG,,26,true,0.3300000000000002,lh,keypress(e),0,false,426379.69999980927,426379.59999990463,421213.237,421435.7999999523,421229.807,426180.147,1,40,29,
sequence,flow.Sequence,6_28,2023-11-27T20:37:20.005Z,,,,,,,,,,,5149.792999904661,completion,,,,,,,low,high,,,,,,,true,,,,,false,426379.7999999523,426379.59999990463,421213.237,421435.7999999523,421229.807,426180.147,1,40,,
trial,html.Screen,6_29_0,2023-11-27T20:37:25.861Z,,,,1,1.3471772753257971,1.055978100098093,,,true,ll,6055.452999904635,response,-1.2289750544294995,1.2,-1.2,-1.3003764624334877,1.2,-1.2,low,low,,ISIC_2077116.JPG,,ISIC_0054167.JPG,,249,true,0.3600000000000002,ll,keypress(f),0,false,432235.69999980927,432235.59999990463,426146.572,426379.89999985695,426180.147,432029.812,1,40,30,
sequence,flow.Sequence,6_29,2023-11-27T20:37:25.861Z,,,,,,,,,,,6055.452999904635,completion,,,,,,,low,low,,,,,,,true,,,,,false,432235.7999999523,432235.59999990463,426146.572,426379.7999999523,426180.147,432029.812,1,40,,
trial,html.Screen,6_30_0,2023-11-27T20:37:33.917Z,,,,1,-0.9670240379618178,1.1806404773220665,,,true,hl,8262.287999904656,response,0.9385447468573198,1.2,-1.2,-1.2289860846064424,1.2,-1.2,high,low,,ISIC_0002288.JPG,,ISIC_0032780.JPG,,29,true,0.3600000000000002,hl,keypress(j),0,false,440292.2999999523,440292.09999990463,432013.044,432235.89999985695,432029.812,440079.817,1,40,31,
sequence,flow.Sequence,6_30,2023-11-27T20:37:33.917Z,,,,,,,,,,,8262.287999904656,completion,,,,,,,high,low,,,,,,,true,,,,,false,440292.59999990463,440292.09999990463,432013.044,432235.89999985695,432029.812,440079.817,1,40,,
trial,html.Screen,6_31_0,2023-11-27T20:37:39.533Z,,,,1,-1.082730232773217,0.8833175387485132,,,true,hl,5828.582999856968,response,0.9445114955578736,1.2,-1.2,-1.0054210059625863,1.2,-1.2,high,low,,ISIC_0011933.JPG,,ISIC_0033807.JPG,,29,true,0.3600000000000002,hl,keypress(j),0,false,445908.5,445908.39999985695,440063.02,440292.69999980927,440079.817,445696.484,1,40,32,
sequence,flow.Sequence,6_31,2023-11-27T20:37:39.534Z,,,,,,,,,,,5828.582999856968,completion,,,,,,,high,low,,,,,,,true,,,,,false,445908.7999999523,445908.39999985695,440063.02,440292.69999980927,440079.817,445696.484,1,40,,
trial,html.Screen,6_32_0,2023-11-27T20:37:45.717Z,,,,1,-1.2289750544294995,-1.3003764624334877,,,true,hh,6395.3159999523195,response,0.9696118525781644,1.2,-1.2,0.9712966348713286,1.2,-1.2,high,high,,ISIC_0054167.JPG,,ISIC_7927525.JPG,,127,true,0.3300000000000002,hh,keypress(i),0,false,452091.89999985695,452091.7999999523,445679.807,445908.89999985695,445696.484,451879.82,1,40,33,
sequence,flow.Sequence,6_32,2023-11-27T20:37:45.717Z,,,,,,,,,,,6395.3159999523195,completion,,,,,,,high,high,,,,,,,true,,,,,false,452092,452091.7999999523,445679.807,445908.89999985695,445696.484,451879.82,1,40,,
trial,html.Screen,6_33_0,2023-11-27T20:37:55.053Z,,,,1,1.1363600109870835,1.295816345369928,,,true,ll,9548.47999995231,response,-1.089914260719518,1.2,-1.2,-1.1695563571046357,1.2,-1.2,low,low,,ISIC_0026141.JPG,,ISIC_0030695.JPG,,27,true,0.12,ll,keypress(f),0,false,461428.39999985695,461428.2999999523,451862.993,452092.19999980927,451879.82,461213.21,1,40,34,
sequence,flow.Sequence,6_33,2023-11-27T20:37:55.054Z,,,,,,,,,,,9548.47999995231,completion,,,,,,,low,low,,,,,,,true,,,,,false,461428.69999980927,461428.2999999523,451862.993,452092.19999980927,451879.82,461213.21,1,40,,
trial,html.Screen,6_34_0,2023-11-27T20:37:59.581Z,,,,1,1.1727618800748076,1.0636787813411093,,,true,ll,4742.389999904612,response,-1.152619213055059,1.2,-1.2,-1.2957497771092716,1.2,-1.2,low,low,,ISIC_9690371.JPG,,ISIC_0061915.JPG,,41,true,0.15000000000000002,ll,keypress(f),0,false,465955.59999990463,465955.59999990463,461196.189,461428.7999999523,461213.21,465746.572,1,40,35,
sequence,flow.Sequence,6_34,2023-11-27T20:37:59.581Z,,,,,,,,,,,4742.389999904612,completion,,,,,,,low,low,,,,,,,true,,,,,false,465955.69999980927,465955.59999990463,461196.189,461428.7999999523,461213.21,465746.572,1,40,,
trial,html.Screen,6_35_0,2023-11-27T20:38:11.926Z,,,,1,1.2714351764931109,1.0785174776187512,,,true,ll,12553.327999856963,response,-1.238264833797662,1.2,-1.2,-1.176099940770289,1.2,-1.2,low,low,,ISIC_2454898.JPG,,ISIC_0032861.JPG,,41,true,0.15000000000000002,ll,keypress(f),0,false,478300,478299.89999985695,465729.716,465955.7999999523,465746.572,478096.751,1,40,36,
sequence,flow.Sequence,6_35,2023-11-27T20:38:11.926Z,,,,,,,,,,,12553.327999856963,completion,,,,,,,low,low,,,,,,,true,,,,,false,478300.09999990463,478299.89999985695,465729.716,465955.7999999523,465746.572,478096.751,1,40,,
trial,html.Screen,6_36_0,2023-11-27T20:38:17.446Z,,,,1,-1.089914260719518,-1.1695563571046357,,,true,hh,5723.749000000011,response,1.1217390688497193,1.2,-1.2,1.2276600934505035,1.2,-1.2,high,high,,ISIC_0030695.JPG,,ISIC_0026344.JPG,,25,true,0.15000000000000002,hh,keypress(i),0,false,483820.7999999523,483820.5,478079.469,478300.09999990463,478096.751,483629.879,1,40,37,
sequence,flow.Sequence,6_36,2023-11-27T20:38:17.447Z,,,,,,,,,,,5723.749000000011,completion,,,,,,,high,high,,,,,,,true,,,,,false,483821.19999980927,483820.5,478079.469,478300.09999990463,478096.751,483629.879,1,40,,
trial,html.Screen,6_37_0,2023-11-27T20:38:21.861Z,,,,1,1.3559315773956395,-0.924768326187701,,,true,lh,4605.82099980925,response,-0.9212323139676136,1.2,-1.2,0.9882196642247332,1.2,-1.2,low,high,,ISIC_5101111.JPG,,ISIC_0014255.JPG,,26,true,0.3300000000000002,lh,keypress(e),0,false,488235.7999999523,488235.69999980927,483596.594,483821.2999999523,483629.879,488029.888,1,40,38,
sequence,flow.Sequence,6_37,2023-11-27T20:38:21.861Z,,,,,,,,,,,4605.82099980925,completion,,,,,,,low,high,,,,,,,true,,,,,false,488235.89999985695,488235.69999980927,483596.594,483821.2999999523,483629.879,488029.888,1,40,,
trial,html.Screen,6_38_0,2023-11-27T20:38:26.589Z,,,,1,1.4727776799485246,-0.8779113138076752,,,true,lh,4933.811999809288,response,-1.2704198237183777,1.2,-1.2,1.138121072015301,1.2,-1.2,low,high,,ISIC_0033074.JPG,,ISIC_0501843.JPG,,33,true,0.3600000000000002,lh,keypress(e),0,false,492963.7999999523,492963.69999980927,488013.256,488235.89999985695,488029.888,492763.248,1,40,39,
sequence,flow.Sequence,6_38,2023-11-27T20:38:26.589Z,,,,,,,,,,,4933.811999809288,completion,,,,,,,low,high,,,,,,,true,,,,,false,492963.89999985695,492963.69999980927,488013.256,488235.89999985695,488029.888,492763.248,1,40,,
trial,html.Screen,6_39_0,2023-11-27T20:38:31.517Z,,,,1,-1.1894733304494307,-1.1169761866204877,,,true,hh,5128.351999904611,response,1.267387686712545,1.2,-1.2,0.9124690562312904,1.2,-1.2,high,high,,ISIC_0033813.JPG,,ISIC_4544879.JPG,,157,true,0.3600000000000002,hh,keypress(i),0,false,497891.59999990463,497891.59999990463,492746.396,492964,492763.248,497679.89,1,40,40,
sequence,flow.Sequence,6_39,2023-11-27T20:38:31.517Z,,,,,,,,,,,5128.351999904611,completion,,,,,,,high,high,,,,,,,true,,,,,false,497891.69999980927,497891.59999990463,492746.396,492963.89999985695,492763.248,497679.89,1,40,,
practice_loop,flow.Loop,6,2023-11-27T20:38:31.517Z,,,,,,,,,,,280012.09399990464,completion,,,,,,,,,,,,,,,true,,,,,false,497891.7999999523,497891.59999990463,217863.097,218092,217879.506,497679.89,1,40,,
stair_instructions,html.Screen,7,2023-11-27T20:38:35.477Z,,,,,,,,,,,4171.309999809251,response,,,,,,,,,,,,,,,,,continue,click button,,,501851.7999999523,501851.19999980927,497663.28,497891.89999985695,497679.89,501646.606,,,,
trial,html.Screen,8_0_0,2023-11-27T20:38:51.300Z,,,,2,-0.00126575685933,-0.0325046559638838,,0.04,,,15816.705999999947,timeout,-1.152619213055059,1.2,-1.2,-1.2957497771092716,1.2,-1.2,low,low,,ISIC_5682259.JPG,,ISIC_0061915.JPG,28,27,false,0.12,,,0,true,517674.39999985695,517674.19999980927,501630.155,501851.89999985695,501646.606,517463.312,1,40,1,
sequence,flow.Sequence,8_0,2023-11-27T20:38:51.300Z,,,,,,,,,,,16027.593999809236,completion,,,,,,,low,low,,,,,,,false,,,,,true,517674.7999999523,517674.19999980927,501630.155,501851.89999985695,501646.606,517463.312,1,40,,
trial,html.Screen,8_1_0,2023-11-27T20:38:58.743Z,,,,2,-0.0071892445601978,0.0246015408628738,,0.04,true,hh,7654.287999904656,response,1.053007132776416,1.2,-1.2,1.341217082060068,1.2,-1.2,high,high,,ISIC_0014133.JPG,,ISIC_0024208.JPG,28,25,false,0.15000000000000002,hh,keypress(i),0,true,525117.899999857,525117.5999999046,517446.656,517675,517463.312,524913.265,1,40,2,
sequence,flow.Sequence,8_1,2023-11-27T20:38:58.744Z,,,,,,,,,,,7654.287999904656,completion,,,,,,,high,high,,,,,,,false,,,,,true,525118.2999999523,525117.5999999046,517446.656,517674.89999985695,517463.312,524913.265,1,40,,
trial,html.Screen,8_2_0,2023-11-27T20:39:04.045Z,,,,2,-0.0158987717472563,-0.0292472192292015,,0.04,false,hl,5506.534999952302,response,0.8644465729542988,1.15,-1.15,-0.8679598285079457,1.15,-1.15,high,low,,ISIC_1366765.JPG,,ISIC_6718969.JPG,28,27,false,0.31000000000000016,lh,keypress(e),0,true,530419.899999857,530419.7999999523,524896.643,525118.5,524913.265,530213.235,1,40,3,
sequence,flow.Sequence,8_2,2023-11-27T20:39:04.046Z,,,,,,,,,,,5506.534999952302,completion,,,,,,,high,low,,,,,,,false,,,,,true,530420.0999999046,530419.7999999523,524896.643,525118.399999857,524913.265,530213.235,1,40,,
trial,html.Screen,8_3_0,2023-11-27T20:39:12.957Z,,,,2,-0.0071892445601978,0.0246015408628738,,0.04,false,lh,9117.56499995233,response,-1.0961318727760048,1.15,-1.15,1.2134960228256146,1.15,-1.15,low,high,,ISIC_0014133.JPG,,ISIC_9768421.JPG,28,25,false,0.28000000000000014,hh,keypress(i),0,true,539330.899999857,539330.7999999523,530196.474,530420.0999999046,530213.235,539130.173,1,40,4,
sequence,flow.Sequence,8_3,2023-11-27T20:39:12.957Z,,,,,,,,,,,9117.56499995233,completion,,,,,,,low,high,,,,,,,false,,,,,true,539331,539330.7999999523,530196.474,530420.0999999046,530213.235,539130.173,1,40,,
trial,html.Screen,8_4_0,2023-11-27T20:39:18.807Z,,,,2,-0.0060918352854008,0.029032683404407,,0.04,false,hh,6050.526999809314,response,1.1217390688497193,1.15,-1.15,1.2276600934505035,1.1773565524428413,-1.15,high,high,,ISIC_8436194.JPG,,ISIC_0026344.JPG,28,30,false,0.15000000000000002,lh,keypress(e),0,true,545180.899999857,545180.6999998093,539112.964,539331.0999999046,539130.173,544979.954,1,40,5,
sequence,flow.Sequence,8_4,2023-11-27T20:39:18.807Z,,,,,,,,,,,6050.526999809314,completion,,,,,,,high,high,,,,,,,false,,,,,true,545181.2999999523,545180.6999998093,539112.964,539331.0999999046,539130.173,544979.954,1,40,,
trial,html.Screen,8_5_0,2023-11-27T20:39:25.183Z,,,,2,-0.0023664502831079,-0.0252784582169994,,0.04,true,lh,6576.745999809238,response,-1.296989496412063,1.15,-1.15,1.1425074323097002,1.1773565524428413,-1.15,low,high,,ISIC_4156010.JPG,,ISIC_6356803.JPG,28,26,false,0.29000000000000015,lh,keypress(e),0,true,551556.899999857,551556.6999998093,544963.313,545181.399999857,544979.954,551346.695,1,40,6,
sequence,flow.Sequence,8_5,2023-11-27T20:39:25.183Z,,,,,,,,,,,6576.745999809238,completion,,,,,,,low,high,,,,,,,false,,,,,true,551557.2999999523,551556.6999998093,544963.313,545181.399999857,544979.954,551346.695,1,40,,
trial,html.Screen,8_6_0,2023-11-27T20:39:29.358Z,,,,2,-0.0377791839943904,0.0227626648172468,,0.04,true,hl,4385.204999857,response,1.2615315960773072,1.15,-1.15,-1.194084675079932,1.1273565524428413,-1.15,high,low,,ISIC_7167479.JPG,,ISIC_0010044.JPG,28,27,false,0.31000000000000016,hl,keypress(j),0,true,555732.0999999046,555731.899999857,551329.921,551557.2999999523,551346.695,555530.257,1,40,7,
sequence,flow.Sequence,8_6,2023-11-27T20:39:29.358Z,,,,,,,,,,,4385.204999857,completion,,,,,,,high,low,,,,,,,false,,,,,true,555732.1999998093,555731.899999857,551329.921,551557.2999999523,551346.695,555530.257,1,40,,
trial,html.Screen,8_7_0,2023-11-27T20:39:33.734Z,,,,2,0.0361875505619981,-0.0291457404567876,,0.04,true,hh,4578.042999952333,response,1.2254777618346506,1.15,-1.15,1.0356416330964822,1.1273565524428413,-1.15,high,high,,ISIC_0027480.JPG,,ISIC_1054090.JPG,28,27,false,0.14,hh,keypress(i),0,true,560108.399999857,560108.2999999523,555513.368,555732.2999999523,555530.257,559896.619,1,40,8,
sequence,flow.Sequence,8_7,2023-11-27T20:39:33.735Z,,,,,,,,,,,4578.042999952333,completion,,,,,,,high,high,,,,,,,false,,,,,true,560108.5999999046,560108.2999999523,555513.368,555732.1999998093,555530.257,559896.619,1,40,,
trial,html.Screen,8_8_0,2023-11-27T20:39:40.230Z,,,,2,-0.0077673378094614,-0.0021810768579373,,0.04,false,hl,6707.180999952368,response,0.8479396253253069,1.0805596974655665,-1.15,-1.011054319516718,1.1273565524428413,-1.15,high,low,,ISIC_0067621.JPG,,ISIC_0063521.JPG,28,26,false,0.29000000000000015,hh,keypress(i),0,true,566603.7999999523,566603.7999999523,559879.945,560108.6999998093,559896.619,566396.651,1,40,9,
sequence,flow.Sequence,8_8,2023-11-27T20:39:40.230Z,,,,,,,,,,,6707.180999952368,completion,,,,,,,high,low,,,,,,,false,,,,,true,566604.0999999046,566603.7999999523,559879.945,560108.5999999046,559896.619,566396.651,1,40,,
trial,html.Screen,8_9_0,2023-11-27T20:39:46.486Z,,,,2,0.0365981355399771,0.0162670920008846,,0.04,false,hh,6463.2489998569945,response,1.1168199061753437,1.0805596974655665,-1.15,1.212287319329914,1.1273565524428413,-1.15,high,high,,ISIC_0982855.JPG,,ISIC_5919355.JPG,28,25,false,0.12,lh,keypress(e),0,true,572860,572859.899999857,566379.748,566604.0999999046,566396.651,572646.631,1,40,10,
sequence,flow.Sequence,8_9,2023-11-27T20:39:46.486Z,,,,,,,,,,,6463.2489998569945,completion,,,,,,,high,high,,,,,,,false,,,,,true,572860.1999998093,572859.899999857,566379.748,566604.0999999046,566396.651,572646.631,1,40,,
trial,html.Screen,8_10_0,2023-11-27T20:39:54.902Z,,,,2,-0.012810673904807,0.00400964452501,,0.04,false,lh,8629.46899990458,response,-1.0700930503975157,1.1305596974655665,-1.15,0.923753102263735,0.9801134723276104,-1.15,low,high,,ISIC_0064656.JPG,,ISIC_0000022.JPG,28,25,false,0.2300000000000001,ll,keypress(f),0,true,581276.1999998093,581276.0999999046,572629.791,572860.1999998093,572646.631,581063.326,1,40,11,
sequence,flow.Sequence,8_10,2023-11-27T20:39:54.902Z,,,,,,,,,,,8629.46899990458,completion,,,,,,,low,high,,,,,,,false,,,,,true,581276.2999999523,581276.0999999046,572629.791,572860.1999998093,572646.631,581063.326,1,40,,
trial,html.Screen,8_11_0,2023-11-27T20:39:59.775Z,,,,2,-0.012810673904807,0.00400964452501,,0.04,false,lh,5084.973999952315,response,-0.9212323139676136,1.1305596974655665,-1.0999999999999999,0.9882196642247332,1.0301134723276104,-1.15,low,high,,ISIC_0064656.JPG,,ISIC_0014255.JPG,28,25,false,0.2400000000000001,ll,keypress(f),0,true,586148.5,586148.2999999523,581046.537,581276.399999857,581063.326,585946.641,1,40,12,
sequence,flow.Sequence,8_11,2023-11-27T20:39:59.775Z,,,,,,,,,,,5084.973999952315,completion,,,,,,,low,high,,,,,,,false,,,,,true,586148.6999998093,586148.2999999523,581046.537,581276.399999857,581063.326,585946.641,1,40,,
trial,html.Screen,8_12_0,2023-11-27T20:40:05.966Z,,,,2,-0.0060918352854008,0.029032683404407,,0.04,false,hl,6393.05899980932,response,0.9087169856594104,1.1305596974655665,-1.0999999999999999,-0.8835647084207277,1.0801134723276105,-1.15,high,low,,ISIC_8436194.JPG,,ISIC_0000349.JPG,28,27,false,0.31000000000000016,hh,keypress(i),0,true,592339.7999999523,592339.6999998093,585929.99,586148.899999857,585946.641,592130.005,1,40,13,
sequence,flow.Sequence,8_12,2023-11-27T20:40:05.966Z,,,,,,,,,,,6393.05899980932,completion,,,,,,,high,low,,,,,,,false,,,,,true,592339.899999857,592339.6999998093,585929.99,586148.7999999523,585946.641,592130.005,1,40,,
trial,html.Screen,8_13_0,2023-11-27T20:40:10.703Z,,,,2,-0.012020985739544,0.0126097407389903,,0.04,false,lh,4945.994999999995,response,-1.1592423187534993,1.1305596974655665,-1.0999999999999999,1.067128884093211,1.0801134723276105,-1.15,low,high,,ISIC_0069379.JPG,,ISIC_6854940.JPG,28,26,false,0.2500000000000001,hh,keypress(i),0,true,597076,597076,592113.135,592339.899999857,592130.005,596863.353,1,40,14,
sequence,flow.Sequence,8_13,2023-11-27T20:40:10.703Z,,,,,,,,,,,4945.994999999995,completion,,,,,,,low,high,,,,,,,false,,,,,true,597076.1999998093,597076,592113.135,592339.899999857,592130.005,596863.353,1,40,,
trial,html.Screen,8_14_0,2023-11-27T20:40:15.479Z,,,,2,-0.012810673904807,0.00400964452501,,0.04,true,ll,4989.24699990463,response,-1.2232482867978696,1.1305596974655665,-1.15,-1.2451219760556858,1.0801134723276105,-1.15,low,low,,ISIC_0064656.JPG,,ISIC_0030889.JPG,28,25,false,0.11,ll,keypress(f),0,true,601852.7999999523,601852.5999999046,596846.542,597076.1999998093,596863.353,601646.708,1,40,15,
sequence,flow.Sequence,8_14,2023-11-27T20:40:15.480Z,,,,,,,,,,,4989.24699990463,completion,,,,,,,low,low,,,,,,,false,,,,,true,601853.1999998093,601852.5999999046,596846.542,597076.1999998093,596863.353,601646.708,1,40,,
trial,html.Screen,8_15_0,2023-11-27T20:40:21.912Z,,,,2,0.010035581303589,-0.0100711721396864,,0.04,true,lh,6638.591999952332,response,-1.2313629723857695,1.1305596974655665,-1.15,0.8233104214456342,1.0801134723276105,-1.15,low,high,,ISIC_0030592.JPG,,ISIC_3475660.JPG,28,25,false,0.28000000000000014,lh,keypress(e),0,true,608285.5999999046,608285.2999999523,601629.981,601853.2999999523,601646.708,608080.097,1,40,16,
sequence,flow.Sequence,8_15,2023-11-27T20:40:21.913Z,,,,,,,,,,,6638.591999952332,completion,,,,,,,low,high,,,,,,,false,,,,,true,608286.0999999046,608285.2999999523,601629.981,601853.2999999523,601646.708,608080.097,1,40,,
trial,html.Screen,8_16_0,2023-11-27T20:40:27.983Z,,,,2,0.0051046740562181,-0.0178832721027728,,0.04,true,ll,6276.1029998093145,response,-1.1227373144244253,1.1305596974655665,-1.0999999999999999,-1.1886610799377713,1.0301134723276104,-1.15,low,low,,ISIC_9545819.JPG,,ISIC_0059506.JPG,28,29,false,0.11,ll,keypress(f),0,true,614356.2999999523,614356.1999998093,608063.305,608286.2999999523,608080.097,614146.7,1,40,17,
sequence,flow.Sequence,8_16,2023-11-27T20:40:27.983Z,,,,,,,,,,,6276.1029998093145,completion,,,,,,,low,low,,,,,,,false,,,,,true,614356.5,614356.1999998093,608063.305,608286.1999998093,608080.097,614146.7,1,40,,
trial,html.Screen,8_17_0,2023-11-27T20:40:36.288Z,,,,2,-0.0060934073440827,-0.0279108145883031,,0.04,false,hl,8514.599999952363,response,0.8591294258188253,1.1305596974655665,-1.0999999999999999,-0.870797302150167,1.0301134723276104,-1.1056991971810983,high,low,,ISIC_0032604.JPG,,ISIC_0055841.JPG,28,31,false,0.29000000000000015,hh,keypress(i),0,true,622661.5999999046,622661.2999999523,614130.069,614356.5999999046,614146.7,622463.425,1,40,18,
sequence,flow.Sequence,8_17,2023-11-27T20:40:36.289Z,,,,,,,,,,,8514.599999952363,completion,,,,,,,high,low,,,,,,,false,,,,,true,622662,622661.2999999523,614130.069,614356.5999999046,614146.7,622463.425,1,40,,
trial,html.Screen,8_18_0,2023-11-27T20:40:46.351Z,,,,2,-0.0399381815506136,-0.0177751789152893,,0.04,false,hl,10260.274999809219,response,1.0143509683988825,1.0805596974655665,-1.0999999999999999,-1.0281980567462463,1.0301134723276104,-1.1556991971810984,high,low,,ISIC_3981425.JPG,,ISIC_0062031.JPG,28,26,false,0.30000000000000016,hh,keypress(i),0,true,632723.899999857,632723.6999998093,622429.846,622662.1999998093,622463.425,632513.483,1,40,19,
sequence,flow.Sequence,8_18,2023-11-27T20:40:46.351Z,,,,,,,,,,,10260.274999809219,completion,,,,,,,high,low,,,,,,,false,,,,,true,632724,632723.6999998093,622429.846,622662.1999998093,622463.425,632513.483,1,40,,
trial,html.Screen,8_19_0,2023-11-27T20:40:50.336Z,,,,2,0.0127320821962457,-0.0315308940184827,,0.04,true,ll,4195.216999809258,response,-0.9926496793263212,1.0805596974655665,-1.0999999999999999,-1.0520809837712837,1.0301134723276104,-1.1556991971810984,low,low,,ISIC_8156101.JPG,,ISIC_0062686.JPG,28,30,false,0.11,ll,keypress(f),0,true,636709,636708.6999998093,632496.36,632724,632513.483,636496.772,1,40,20,
sequence,flow.Sequence,8_19,2023-11-27T20:40:50.336Z,,,,,,,,,,,4195.216999809258,completion,,,,,,,low,low,,,,,,,false,,,,,true,636709.2999999523,636708.6999998093,632496.36,632724,632513.483,636496.772,1,40,,
trial,html.Screen,8_20_0,2023-11-27T20:40:54.479Z,,,,2,-0.0071892445601978,0.0246015408628738,,0.04,true,ll,4355.427999809268,response,-0.934130994804294,1.0805596974655665,-0.9723653315488023,-1.110086733022912,1.0301134723276104,-1.1556991971810984,low,low,,ISIC_0014133.JPG,,ISIC_0053916.JPG,28,30,false,0.1,ll,keypress(f),0,true,640852.2999999523,640852.1999998093,636480.069,636709.5,636496.772,640646.794,1,40,21,
sequence,flow.Sequence,8_20,2023-11-27T20:40:54.479Z,,,,,,,,,,,4355.427999809268,completion,,,,,,,low,low,,,,,,,false,,,,,true,640852.5,640852.1999998093,636480.069,636709.399999857,636496.772,640646.794,1,40,,
trial,html.Screen,8_21_0,2023-11-27T20:41:03.559Z,,,,2,-0.0158987717472563,-0.0292472192292015,,0.04,true,lh,9285.005999952322,response,-0.781391003063482,1.0805596974655665,-0.9723653315488023,0.9644960393010829,1.0301134723276104,-0.9721088639136031,low,high,,ISIC_1366765.JPG,,ISIC_2087913.JPG,28,29,false,0.20000000000000007,lh,keypress(e),0,true,649931.899999857,649931.7999999523,640630.056,640852.5999999046,640646.794,649730.094,1,40,22,
sequence,flow.Sequence,8_21,2023-11-27T20:41:03.559Z,,,,,,,,,,,9285.005999952322,completion,,,,,,,low,high,,,,,,,false,,,,,true,649932,649931.7999999523,640630.056,640852.5999999046,640646.794,649730.094,1,40,,
trial,html.Screen,8_22_0,2023-11-27T20:41:07.830Z,,,,2,-0.0158987717472563,-0.0292472192292015,,0.04,true,hl,4473.505999904592,response,1.1162273456306029,1.0805596974655665,-0.9223653315488023,-0.7890271955816722,1.0301134723276104,-0.9721088639136031,high,low,,ISIC_1366765.JPG,,ISIC_0011564.JPG,28,25,false,0.2300000000000001,hl,keypress(j),0,true,654203.6999998093,654203.5999999046,649713.123,649932.0999999046,649730.094,653996.753,1,40,23,
sequence,flow.Sequence,8_22,2023-11-27T20:41:07.830Z,,,,,,,,,,,4473.505999904592,completion,,,,,,,high,low,,,,,,,false,,,,,true,654203.7999999523,654203.5999999046,649713.123,649932.0999999046,649730.094,653996.753,1,40,,
trial,html.Screen,8_23_0,2023-11-27T20:41:12.479Z,,,,2,-0.0166849894750452,0.0371614812368835,,0.04,true,ll,4855.146999856923,response,-0.9926496793263212,1.0305596974655664,-0.9223653315488023,-1.0520809837712837,1.0301134723276104,-0.9721088639136031,low,low,,ISIC_6231450.JPG,,ISIC_0062686.JPG,28,43,false,0.1,ll,keypress(f),0,true,658852.0999999046,658851.899999857,653980.162,654203.7999999523,653996.753,658646.85,1,40,24,
sequence,flow.Sequence,8_23,2023-11-27T20:41:12.479Z,,,,,,,,,,,4855.146999856923,completion,,,,,,,low,low,,,,,,,false,,,,,true,658852.1999998093,658851.899999857,653980.162,654203.7999999523,653996.753,658646.85,1,40,,
trial,html.Screen,8_24_0,2023-11-27T20:41:18.639Z,,,,2,-0.0118555311043871,-0.0087774532070196,,0.04,true,lh,6365.150000000023,response,-0.7450700429395554,1.0305596974655664,-0.9223653315488023,1.1659665266603083,1.0301134723276104,-0.9723653315488023,low,high,,ISIC_6488658.JPG,,ISIC_3736075.JPG,28,26,false,0.18000000000000005,lh,keypress(e),0,true,665012.1999998093,665012,658630.096,658852.1999998093,658646.85,664796.792,1,40,25,
sequence,flow.Sequence,8_24,2023-11-27T20:41:18.639Z,,,,,,,,,,,6365.150000000023,completion,,,,,,,low,high,,,,,,,false,,,,,true,665012.1999998093,665012,658630.096,658852.1999998093,658646.85,664796.792,1,40,,
trial,html.Screen,8_25_0,2023-11-27T20:41:23.136Z,,,,2,0.0063515208248796,0.0194177605767913,,0.04,false,hl,4711.807999904617,response,0.9039158082670506,1.0305596974655664,-0.8723653315488022,-1.0517562064343149,0.9801134723276104,-0.9723653315488023,high,low,,ISIC_5281908.JPG,,ISIC_0015411.JPG,28,27,false,0.22000000000000008,hh,keypress(i),0,true,669508.6999998093,669508.5999999046,664780.152,665012.2999999523,664796.792,669296.77,1,40,26,
sequence,flow.Sequence,8_25,2023-11-27T20:41:23.136Z,,,,,,,,,,,4711.807999904617,completion,,,,,,,high,low,,,,,,,false,,,,,true,669509,669508.5999999046,664780.152,665012.2999999523,664796.792,669296.77,1,40,,
trial,html.Screen,8_26_0,2023-11-27T20:41:27.200Z,,,,2,-0.0023664502831079,-0.0252784582169994,,0.04,true,ll,4275.829999904614,response,-0.7830878541290222,1.0305596974655664,-0.8723653315488022,-1.1177544544914826,0.9801134723276104,-1.0223653315488024,low,low,,ISIC_4156010.JPG,,ISIC_0065192.JPG,28,41,false,0.1,ll,keypress(f),0,true,673572.7999999523,673572.5999999046,669280.035,669509.0999999046,669296.77,673363.468,1,40,27,
sequence,flow.Sequence,8_26,2023-11-27T20:41:27.200Z,,,,,,,,,,,4275.829999904614,completion,,,,,,,low,low,,,,,,,false,,,,,true,673573.0999999046,673572.5999999046,669280.035,669509.0999999046,669296.77,673363.468,1,40,,
trial,html.Screen,8_27_0,2023-11-27T20:41:32.423Z,,,,2,0.0086413421586899,0.0360184993500958,,0.04,false,hl,5432.631999904639,response,1.1890109863264902,1.0305596974655664,-0.8723653315488022,-0.8867825318561365,0.9801134723276104,-1.0223653315488024,high,low,,ISIC_0010767.JPG,,ISIC_0072576.JPG,28,25,false,0.22000000000000008,hh,keypress(i),0,true,678796.2999999523,678796.0999999046,673346.882,673573.2999999523,673363.468,678597.705,1,40,28,
sequence,flow.Sequence,8_27,2023-11-27T20:41:32.424Z,,,,,,,,,,,5432.631999904639,completion,,,,,,,high,low,,,,,,,false,,,,,true,678796.5,678796.0999999046,673346.882,673573.1999998093,673363.468,678597.705,1,40,,
trial,html.Screen,8_28_0,2023-11-27T20:41:36.207Z,,,,2,-0.0023664502831079,-0.0252784582169994,,0.04,true,hl,3982.295000000042,response,0.9013888878932071,0.9805596974655664,-0.8723653315488022,-0.9328095253308732,0.9801134723276104,-1.0723653315488024,high,low,,ISIC_4156010.JPG,,ISIC_0068259.JPG,28,25,false,0.22000000000000008,hl,keypress(j),0,true,682580.0999999046,682580,678563.294,678796.5999999046,678597.705,682380.882,1,40,29,
sequence,flow.Sequence,8_28,2023-11-27T20:41:36.207Z,,,,,,,,,,,3982.295000000042,completion,,,,,,,high,low,,,,,,,false,,,,,true,682580.2999999523,682580,678563.294,678796.5,678597.705,682380.882,1,40,,
trial,html.Screen,8_29_0,2023-11-27T20:41:39.288Z,,,,2,0.0321039635696159,0.020496766286318,,0.04,true,hh,3279.6180000000168,response,1.0375203228848855,0.9805596974655664,-0.8723653315488022,1.0256934713188917,0.9801134723276104,-1.0723653315488024,high,high,,ISIC_0058063.JPG,,ISIC_4264600.JPG,28,26,false,0.1,hh,keypress(i),0,true,685660.6999998093,685660.5,682346.726,682580.399999857,682380.882,685446.832,1,40,30,
sequence,flow.Sequence,8_29,2023-11-27T20:41:39.288Z,,,,,,,,,,,3279.6180000000168,completion,,,,,,,high,high,,,,,,,false,,,,,true,685661.0999999046,685660.5,682346.726,682580.399999857,682380.882,685446.832,1,40,,
trial,html.Screen,8_30_0,2023-11-27T20:41:44.064Z,,,,2,0.0327772618698018,-0.0056908372048728,,0.04,true,ll,4989.967999952263,response,-0.7768060112571308,0.9816068971018885,-0.8723653315488022,-0.9860853588297788,0.9801134723276104,-1.0723653315488024,low,low,,ISIC_7897925.JPG,,ISIC_0046640.JPG,28,39,false,0.1,ll,keypress(f),0,true,690437.0999999046,690436.7999999523,685430.113,685661.1999998093,685446.832,690230.156,1,40,31,
sequence,flow.Sequence,8_30,2023-11-27T20:41:44.064Z,,,,,,,,,,,4989.967999952263,completion,,,,,,,low,low,,,,,,,false,,,,,true,690437.2999999523,690436.7999999523,685430.113,685661.1999998093,685446.832,690230.156,1,40,,
trial,html.Screen,8_31_0,2023-11-27T20:41:48.104Z,,,,2,-0.0023664502831079,-0.0252784582169994,,0.04,false,hh,4246.143999952357,response,0.9597587651037712,0.9816068971018885,-0.8223653315488022,0.8860066980618031,0.9801134723276104,-1.0223653315488024,high,high,,ISIC_4156010.JPG,,ISIC_7534592.JPG,28,26,false,0.1,lh,keypress(e),0,true,694476.5,694476.2999999523,690213.451,690437.5,690230.156,694263.513,1,40,32,
sequence,flow.Sequence,8_31,2023-11-27T20:41:48.104Z,,,,,,,,,,,4246.143999952357,completion,,,,,,,high,high,,,,,,,false,,,,,true,694476.6999998093,694476.2999999523,690213.451,690437.5,690230.156,694263.513,1,40,,
trial,html.Screen,8_32_0,2023-11-27T20:41:51.352Z,,,,2,-0.0158987717472563,-0.0292472192292015,,0.04,true,hh,3460.6869998092297,response,0.9371720357162444,1.0316068971018886,-0.8223653315488022,0.9507421943628228,0.9058500846903473,-1.0223653315488024,high,high,,ISIC_1366765.JPG,,ISIC_3730327.JPG,28,28,false,0.11,hh,keypress(i),0,true,697724.399999857,697724.1999998093,694246.754,694476.7999999523,694263.513,697513.476,1,40,33,
sequence,flow.Sequence,8_32,2023-11-27T20:41:51.352Z,,,,,,,,,,,3460.6869998092297,completion,,,,,,,high,high,,,,,,,false,,,,,true,697724.7999999523,697724.1999998093,694246.754,694476.7999999523,694263.513,697513.476,1,40,,
trial,html.Screen,8_33_0,2023-11-27T20:41:58.464Z,,,,2,0.0063515208248796,0.0194177605767913,,0.04,false,hh,7323.123999904608,response,1.1344866365171962,1.0316068971018886,-0.8223653315488022,0.926850270881616,0.9058500846903473,-1.0223653315488024,high,high,,ISIC_5281908.JPG,,ISIC_7747998.JPG,28,28,false,0.11,hl,keypress(j),0,true,704836.7999999523,704836.5999999046,697496.755,697724.899999857,697513.476,704630.203,1,40,34,
sequence,flow.Sequence,8_33,2023-11-27T20:41:58.464Z,,,,,,,,,,,7323.123999904608,completion,,,,,,,high,high,,,,,,,false,,,,,true,704837.0999999046,704836.5999999046,697496.755,697724.7999999523,697513.476,704630.203,1,40,,
trial,html.Screen,8_34_0,2023-11-27T20:42:08.287Z,,,,2,-0.0060918352854008,0.029032683404407,,0.04,false,lh,10029.496999809286,response,-0.7809949855371787,0.9926144154400094,-0.8223653315488022,0.8834146203433249,0.9558500846903474,-1.0223653315488024,low,high,,ISIC_8436194.JPG,,ISIC_7450481.JPG,28,25,false,0.13,hh,keypress(i),0,true,714659.899999857,714659.6999998093,704613.252,704837.2999999523,704630.203,714446.836,1,40,35,
sequence,flow.Sequence,8_34,2023-11-27T20:42:08.287Z,,,,,,,,,,,10029.496999809286,completion,,,,,,,low,high,,,,,,,false,,,,,true,714660,714659.6999998093,704613.252,704837.2999999523,704630.203,714446.836,1,40,,
trial,html.Screen,8_35_0,2023-11-27T20:42:10.769Z,,,,2,-0.0050679133050021,-0.0174815595031679,,0.04,true,ll,2693.963999952306,response,-0.934130994804294,0.9926144154400094,-0.8723653315488022,-1.110086733022912,0.9558500846903474,-1.0223653315488024,low,low,,ISIC_9848743.JPG,,ISIC_0053916.JPG,28,41,false,0.1,ll,keypress(f),0,true,717141,717140.7999999523,714429.864,714660.0999999046,714446.836,716930.242,1,40,36,
sequence,flow.Sequence,8_35,2023-11-27T20:42:10.769Z,,,,,,,,,,,2693.963999952306,completion,,,,,,,low,low,,,,,,,false,,,,,true,717141.2999999523,717140.7999999523,714429.864,714660.0999999046,714446.836,716930.242,1,40,,
trial,html.Screen,8_36_0,2023-11-27T20:42:15.768Z,,,,2,0.010035581303589,-0.0100711721396864,,0.04,true,hh,5209.758000000031,response,1.0375203228848855,0.9926144154400094,-0.8723653315488022,1.0256934713188917,0.9558500846903474,-1.0223653315488024,high,high,,ISIC_0030592.JPG,,ISIC_4264600.JPG,28,25,false,0.1,hh,keypress(i),0,true,722140.0999999046,722140,716913.703,717141.399999857,716930.242,721930.248,1,40,37,
sequence,flow.Sequence,8_36,2023-11-27T20:42:15.768Z,,,,,,,,,,,5209.758000000031,completion,,,,,,,high,high,,,,,,,false,,,,,true,722140.1999998093,722140,716913.703,717141.399999857,716930.242,721930.248,1,40,,
trial,html.Screen,8_37_0,2023-11-27T20:42:18.832Z,,,,2,-0.00126575685933,-0.0325046559638838,,0.04,true,ll,3274.051999952295,response,-0.905313139676194,0.9926144154400094,-0.8723653315488022,-0.9966583050703528,0.9816068971018885,-1.0223653315488024,low,low,,ISIC_5682259.JPG,,ISIC_0070342.JPG,28,41,false,0.1,ll,keypress(f),0,true,725204.399999857,725204.2999999523,721913.615,722140.2999999523,721930.248,724996.911,1,40,38,
sequence,flow.Sequence,8_37,2023-11-27T20:42:18.832Z,,,,,,,,,,,3274.051999952295,completion,,,,,,,low,low,,,,,,,false,,,,,true,725204.6999998093,725204.2999999523,721913.615,722140.2999999523,721930.248,724996.911,1,40,,
trial,html.Screen,8_38_0,2023-11-27T20:42:22.120Z,,,,2,0.010035581303589,-0.0100711721396864,,0.04,true,hh,3494.988999856985,response,0.9116506478817816,0.9926144154400094,-0.8223653315488022,1.0416072379908032,0.9816068971018885,-0.9723653315488023,high,high,,ISIC_0030592.JPG,,ISIC_3273370.JPG,28,27,false,0.1,hh,keypress(i),0,true,728492,728491.899999857,724980.382,725204.6999998093,724996.911,728280.222,1,40,39,
sequence,flow.Sequence,8_38,2023-11-27T20:42:22.120Z,,,,,,,,,,,3494.988999856985,completion,,,,,,,high,high,,,,,,,false,,,,,true,728492.0999999046,728491.899999857,724980.382,725204.6999998093,724996.911,728280.222,1,40,,
trial,html.Screen,8_39_0,2023-11-27T20:42:27.864Z,,,,2,0.0063515208248796,0.0194177605767913,,0.04,false,lh,5955.9779998093145,response,-0.6950368296080096,0.9266289429362924,-0.8223653315488022,0.8845542489673555,0.9816068971018885,-0.9723653315488023,low,high,,ISIC_5281908.JPG,,ISIC_0975874.JPG,28,26,false,0.14,ll,keypress(f),0,true,734236.399999857,734236.1999998093,728263.69,728492.0999999046,728280.222,734030.23,1,40,40,
sequence,flow.Sequence,8_39,2023-11-27T20:42:27.864Z,,,,,,,,,,,5955.9779998093145,completion,,,,,,,low,high,,,,,,,false,,,,,true,734236.6999998093,734236.1999998093,728263.69,728492.0999999046,728280.222,734030.23,1,40,,
stair_loop,flow.Loop,8,2023-11-27T20:42:27.865Z,,,,,,,,,,,232589.59399980924,completion,,,,,,,,,,,,,,,false,,,,,true,734236.6999998093,734236.1999998093,501630.155,501851.89999985695,501646.606,734030.23,1,40,,
exp_instructions,html.Screen,9,2023-11-27T20:42:38.768Z,,,,,,,,,,,11109.469999809284,response,,,,,,,,,,,,,,,,,continue,keypress(Space),,,745140.1999998093,745139.6999998093,734013.345,734236.7999999523,734030.23,744930.207,,,,
trial,html.Screen,10_0_0,2023-11-27T20:42:50.277Z,,,,1,0.0189295602385628,0.0128812415435153,,0.04,false,lh,11719.092999952263,response,-0.9873794329144926,1.013586279159978,-0.8748653315488024,0.9500689037516484,0.9817716391344364,-1.0189935546851367,low,high,,ISIC_0010372.JPG,9,ISIC_0013498.JPG,28,26,false,0.16000000000000003,hh,keypress(i),0,false,756649.399999857,756649.2999999523,744913.257,745140.2999999523,744930.207,756446.923,5,600,1,
break,html.Screen,10_0_1,2023-11-27T20:42:50.278Z,,,,,,,,,,,NaN,,,,,,,,low,high,,,,,,,false,,,,,false,756650.1999998093,756650.0999999046,,756649.6999998093,,756446.923,5,600,,
break_continue,html.Screen,10_0_2,2023-11-27T20:42:50.278Z,,,,,,,,,,,NaN,,,,,,,,low,high,,,,,,,false,,,,,false,756650.7999999523,756650.5,,756650.399999857,,756446.923,5,600,,
sequence,flow.Sequence,10_0,2023-11-27T20:42:50.279Z,,,,,,,,,,,11720.292999999947,completion,,,,,,,low,high,,,,,,,false,,,,,false,756650.899999857,756650.5,744913.257,745140.2999999523,744930.207,756446.923,5,600,,
trial,html.Screen,10_1_0,2023-11-27T20:43:02.936Z,,,,1,-0.0166849894750452,0.0371614812368835,,0.04,true,hl,12861.376999952365,response,0.9385447468573198,1.013586279159978,-0.8748653315488024,-1.2289860846064424,0.9817716391344364,-1.0189935546851367,high,low,,ISIC_6231450.JPG,9,ISIC_0032780.JPG,28,27,false,0.21000000000000008,hl,keypress(j),0,false,769308.5999999046,769308.2999999523,756429.833,756651,756446.923,769096.909,5,600,2,
break,html.Screen,10_1_1,2023-11-27T20:43:02.937Z,,,,,,,,,,,NaN,,,,,,,,high,low,,,,,,,false,,,,,false,769309.0999999046,769309,,769308.7999999523,,769096.909,5,600,,
break_continue,html.Screen,10_1_2,2023-11-27T20:43:02.937Z,,,,,,,,,,,NaN,,,,,,,,high,low,,,,,,,false,,,,,false,769309.5,769309.399999857,,769309.1999998093,,769096.909,5,600,,
sequence,flow.Sequence,10_1,2023-11-27T20:43:02.937Z,,,,,,,,,,,12862.476999856997,completion,,,,,,,high,low,,,,,,,false,,,,,false,769309.6999998093,769309.399999857,756429.833,756651,756446.923,769096.909,5,600,,
trial,html.Screen,10_2_0,2023-11-27T20:43:18.784Z,,,,1,-0.00126575685933,-0.0325046559638838,,0.04,,,15850.102000000072,timeout,0.9658792885069516,1.013586279159978,-0.8748653315488024,0.916173605730014,0.9817716391344364,-1.0189935546851367,high,high,,ISIC_5682259.JPG,10,ISIC_8979275.JPG,28,25,false,0.1,,,0,false,785155.5,785155.2999999523,769080.152,769309.7999999523,769096.909,784947.011,5,600,3,
break,html.Screen,10_2_1,2023-11-27T20:43:18.784Z,,,,,,,,,,,NaN,,,,,,,,high,high,,,,,,,false,,,,,false,785156.0999999046,785155.899999857,,785155.6999998093,,784947.011,5,600,,
break_continue,html.Screen,10_2_2,2023-11-27T20:43:18.785Z,,,,,,,,,,,NaN,,,,,,,,high,high,,,,,,,false,,,,,false,785156.2999999523,785156.2999999523,,785156.1999998093,,784947.011,5,600,,
sequence,flow.Sequence,10_2,2023-11-27T20:43:18.785Z,,,,,,,,,,,16059.390999952331,completion,,,,,,,high,high,,,,,,,false,,,,,false,785156.5,785156.2999999523,769080.152,769309.6999998093,769096.909,784947.011,5,600,,
trial,html.Screen,10_3_0,2023-11-27T20:43:28.001Z,,,,1,0.0086413421586899,0.0360184993500958,,0.04,true,ll,9425.78899995226,response,-0.8112269594281695,1.013586279159978,-0.8748653315488024,-1.041128166465784,0.9817716391344364,-1.0189935546851367,low,low,,ISIC_0010767.JPG,8,ISIC_0059248.JPG,28,38,false,0.1,ll,keypress(f),0,false,794373.0999999046,794372.7999999523,784930.483,785156.5999999046,784947.011,794163.625,5,600,4,
break,html.Screen,10_3_1,2023-11-27T20:43:28.002Z,,,,,,,,,,,NaN,,,,,,,,low,low,,,,,,,false,,,,,false,794373.7999999523,794373.6999998093,,794373.399999857,,794163.625,5,600,,
break_continue,html.Screen,10_3_2,2023-11-27T20:43:28.003Z,,,,,,,,,,,NaN,,,,,,,,low,low,,,,,,,false,,,,,false,794374.2999999523,794374.1999998093,,794374,,794163.625,5,600,,
sequence,flow.Sequence,10_3,2023-11-27T20:43:28.003Z,,,,,,,,,,,9427.188999809208,completion,,,,,,,low,low,,,,,,,false,,,,,false,794374.5,794374.1999998093,784930.483,785156.5999999046,784947.011,794163.625,5,600,,
trial,html.Screen,10_4_0,2023-11-27T20:43:30.665Z,,,,1,-0.0060934073440827,-0.0279108145883031,,0.04,false,hl,2873.074999809265,response,1.1501717278509027,1.013586279159978,-0.8748653315488024,-0.8228936373136835,0.9817716391344364,-1.0189935546851367,high,low,,ISIC_0032604.JPG,9,ISIC_8398000.JPG,28,27,false,0.21000000000000008,hh,keypress(i),0,false,797036.899999857,797036.6999998093,794146.859,794374.5999999046,794163.625,796830.379,5,600,5,
break,html.Screen,10_4_1,2023-11-27T20:43:30.666Z,,,,,,,,,,,NaN,,,,,,,,high,low,,,,,,,false,,,,,false,797037.899999857,797037.5999999046,,797037.1999998093,,796830.379,5,600,,
break_continue,html.Screen,10_4_2,2023-11-27T20:43:30.667Z,,,,,,,,,,,NaN,,,,,,,,high,low,,,,,,,false,,,,,false,797038.5,797038.2999999523,,797038.0999999046,,796830.379,5,600,,
sequence,flow.Sequence,10_4,2023-11-27T20:43:30.667Z,,,,,,,,,,,2874.6749999523163,completion,,,,,,,high,low,,,,,,,false,,,,,false,797038.6999998093,797038.2999999523,794146.859,794374.5999999046,794163.625,796830.379,5,600,,
trial,html.Screen,10_5_0,2023-11-27T20:43:36.841Z,,,,1,-0.0050679133050021,-0.0174815595031679,,0.04,true,hh,6382.121000000043,response,0.9487751044258608,1.013586279159978,-0.8748653315488024,0.9230722071334148,0.9817716391344364,-1.0189935546851367,high,high,,ISIC_9848743.JPG,10,ISIC_4568084.JPG,28,25,false,0.1,hh,keypress(i),0,false,803212.6999998093,803212.5,796813.678,797038.7999999523,796830.379,802997.009,5,600,6,
break,html.Screen,10_5_1,2023-11-27T20:43:36.842Z,,,,,,,,,,,NaN,,,,,,,,high,high,,,,,,,false,,,,,false,803213.399999857,803213.1999998093,,803212.899999857,,802997.009,5,600,,
break_continue,html.Screen,10_5_2,2023-11-27T20:43:36.842Z,,,,,,,,,,,NaN,,,,,,,,high,high,,,,,,,false,,,,,false,803213.899999857,803213.6999998093,,803213.5,,802997.009,5,600,,
sequence,flow.Sequence,10_5,2023-11-27T20:43:36.842Z,,,,,,,,,,,6383.320999809308,completion,,,,,,,high,high,,,,,,,false,,,,,false,803214,803213.6999998093,796813.678,797038.7999999523,796830.379,802997.009,5,600,,
trial,html.Screen,10_6_0,2023-11-27T20:43:41.480Z,,,,1,-0.012020985739544,0.0126097407389903,,0.04,false,hl,4854.7909999523545,response,1.2018448523268856,1.013586279159978,-0.8748653315488024,-0.8157731190790072,0.9817716391344364,-1.0189935546851367,high,low,,ISIC_0069379.JPG,8,ISIC_7662993.JPG,28,27,false,0.21000000000000008,ll,keypress(f),0,false,807851.899999857,807851.7999999523,802980.111,803214.1999998093,802997.009,807647.049,5,600,7,
break,html.Screen,10_6_1,2023-11-27T20:43:41.481Z,,,,,,,,,,,NaN,,,,,,,,high,low,,,,,,,false,,,,,false,807852.1999998093,807852.1999998093,,807852,,807647.049,5,600,,
break_continue,html.Screen,10_6_2,2023-11-27T20:43:41.481Z,,,,,,,,,,,NaN,,,,,,,,high,low,,,,,,,false,,,,,false,807852.399999857,807852.399999857,,807852.2999999523,,807647.049,5,600,,
sequence,flow.Sequence,10_6,2023-11-27T20:43:41.481Z,,,,,,,,,,,4855.390999856987,completion,,,,,,,high,low,,,,,,,false,,,,,false,807852.5,807852.399999857,802980.111,803214.0999999046,802997.009,807647.049,5,600,,
trial,html.Screen,10_7_0,2023-11-27T20:43:47.120Z,,,,1,-0.0377791839943904,0.0227626648172468,,0.04,false,hl,5844.5509999046335,response,1.0143509683988825,1.013586279159978,-0.8748653315488024,-1.0281980567462463,0.9817716391344364,-1.0189935546851367,high,low,,ISIC_7167479.JPG,9,ISIC_0062031.JPG,28,27,false,0.21000000000000008,ll,keypress(f),0,false,813491.5999999046,813491.5999999046,807630.437,807852.5,807647.049,813280.28,5,600,8,
break,html.Screen,10_7_1,2023-11-27T20:43:47.120Z,,,,,,,,,,,NaN,,,,,,,,high,low,,,,,,,false,,,,,false,813491.899999857,813491.7999999523,,813491.6999998093,,813280.28,5,600,,
break_continue,html.Screen,10_7_2,2023-11-27T20:43:47.120Z,,,,,,,,,,,NaN,,,,,,,,high,low,,,,,,,false,,,,,false,813492.0999999046,813492,,813492,,813280.28,5,600,,
sequence,flow.Sequence,10_7,2023-11-27T20:43:47.120Z,,,,,,,,,,,5844.951000000001,completion,,,,,,,high,low,,,,,,,false,,,,,false,813492.0999999046,813492,807630.437,807852.5,807647.049,813280.28,5,600,,
trial,html.Screen,10_8_0,2023-11-27T20:43:50.425Z,,,,1,0.0189295602385628,0.0128812415435153,,0.04,false,lh,3516.119999856921,response,-0.8588347582642082,1.013586279159978,-0.8748653315488024,0.8899503828496784,0.9817716391344364,-1.0189935546851367,low,high,,ISIC_0010372.JPG,8,ISIC_0174983.JPG,28,26,false,0.16000000000000003,hh,keypress(i),0,false,816796.5999999046,816796.399999857,813263.837,813492.1999998093,813280.28,816597.9,5,600,9,
break,html.Screen,10_8_1,2023-11-27T20:43:50.426Z,,,,,,,,,,,NaN,,,,,,,,low,high,,,,,,,false,,,,,false,816797.5,816797.1999998093,,816796.899999857,,816597.9,5,600,,
break_continue,html.Screen,10_8_2,2023-11-27T20:43:50.426Z,,,,,,,,,,,NaN,,,,,,,,low,high,,,,,,,false,,,,,false,816798.0999999046,816797.899999857,,816797.6999998093,,816597.9,5,600,,
sequence,flow.Sequence,10_8,2023-11-27T20:43:50.427Z,,,,,,,,,,,3517.619999856921,completion,,,,,,,low,high,,,,,,,false,,,,,false,816798.2999999523,816797.899999857,813263.837,813492.1999998093,813280.28,816597.9,5,600,,
trial,html.Screen,10_9_0,2023-11-27T20:43:54.466Z,,,,1,0.0086413421586899,0.0360184993500958,,0.04,false,ll,4239.299999809242,response,-0.968832577506943,1.013586279159978,-0.8748653315488024,-1.068698723750748,0.9817716391344364,-1.0189935546851367,low,low,,ISIC_0010767.JPG,9,ISIC_0010962.JPG,28,38,false,0.1,hl,keypress(j),0,false,820837.5999999046,820837.1999998093,816563.605,816798.5,816597.9,820630.334,5,600,10,
break,html.Screen,10_9_1,2023-11-27T20:43:54.467Z,,,,,,,,,,,NaN,,,,,,,,low,low,,,,,,,false,,,,,false,820838.5999999046,820838.399999857,,820838,,820630.334,5,600,,
break_continue,html.Screen,10_9_2,2023-11-27T20:43:54.467Z,,,,,,,,,,,NaN,,,,,,,,low,low,,,,,,,false,,,,,false,820839.0999999046,820838.899999857,,820838.7999999523,,820630.334,5,600,,
sequence,flow.Sequence,10_9,2023-11-27T20:43:54.468Z,,,,,,,,,,,4240.999999856926,completion,,,,,,,low,low,,,,,,,false,,,,,false,820839.2999999523,820838.899999857,816563.605,816798.5,816597.9,820630.334,5,600,,
trial,html.Screen,10_10_0,2023-11-27T20:43:57.361Z,,,,1,0.0365981355399771,0.0162670920008846,,0.04,true,hh,3101.8659998092335,response,1.0730492496332733,1.013586279159978,-0.8748653315488024,1.0252626598876022,0.9817716391344364,-1.0189935546851367,high,high,,ISIC_0982855.JPG,9,ISIC_0007029.JPG,28,25,false,0.1,hh,keypress(i),0,false,823732.2999999523,823732.1999998093,820613.581,820839.399999857,820630.334,823530.366,5,600,11,
break,html.Screen,10_10_1,2023-11-27T20:43:57.361Z,,,,,,,,,,,NaN,,,,,,,,high,high,,,,,,,false,,,,,false,823732.7999999523,823732.6999998093,,823732.5,,823530.366,5,600,,
break_continue,html.Screen,10_10_2,2023-11-27T20:43:57.361Z,,,,,,,,,,,NaN,,,,,,,,high,high,,,,,,,false,,,,,false,823733.1999998093,823733,,823732.899999857,,823530.366,5,600,,
sequence,flow.Sequence,10_10,2023-11-27T20:43:57.362Z,,,,,,,,,,,3102.6659999999683,completion,,,,,,,high,high,,,,,,,false,,,,,false,823733.2999999523,823733,820613.581,820839.399999857,820630.334,823530.366,5,600,,
trial,html.Screen,10_11_0,2023-11-27T20:44:02.857Z,,,,1,-0.0377791839943904,0.0227626648172468,,0.04,false,lh,5698.233999904594,response,-0.7877592509894734,1.013586279159978,-0.8748653315488024,1.1264694181779615,0.9817716391344364,-1.0189935546851367,low,high,,ISIC_7167479.JPG,9,ISIC_9058340.JPG,28,26,false,0.16000000000000003,ll,keypress(f),0,false,829228.7999999523,829228.5999999046,823513.673,823733.2999999523,823530.366,829013.734,5,600,12,
break,html.Screen,10_11_1,2023-11-27T20:44:02.858Z,,,,,,,,,,,NaN,,,,,,,,low,high,,,,,,,false,,,,,false,829229.7999999523,829229.5999999046,,829229.0999999046,,829013.734,5,600,,
break_continue,html.Screen,10_11_2,2023-11-27T20:44:02.859Z,,,,,,,,,,,NaN,,,,,,,,low,high,,,,,,,false,,,,,false,829230.2999999523,829230.0999999046,,829229.899999857,,829013.734,5,600,,
sequence,flow.Sequence,10_11,2023-11-27T20:44:02.859Z,,,,,,,,,,,5699.733999904594,completion,,,,,,,low,high,,,,,,,false,,,,,false,829230.5,829230.0999999046,823513.673,823733.2999999523,823530.366,829013.734,5,600,,
trial,html.Screen,10_12_0,2023-11-27T20:44:06.288Z,,,,1,-0.012810673904807,0.00400964452501,,0.04,true,ll,3646.265999999945,response,-0.8531968652064474,1.013586279159978,-0.8748653315488024,-1.0402692470955777,0.9817716391344364,-1.0189935546851367,low,low,,ISIC_0064656.JPG,9,ISIC_0056201.JPG,28,38,false,0.1,ll,keypress(f),0,false,832660.0999999046,832660,828996.899,829230.6999998093,829013.734,832446.989,5,600,13,
break,html.Screen,10_12_1,2023-11-27T20:44:06.289Z,,,,,,,,,,,NaN,,,,,,,,low,low,,,,,,,false,,,,,false,832660.399999857,832660.2999999523,,832660.1999998093,,832446.989,5,600,,
break_continue,html.Screen,10_12_2,2023-11-27T20:44:06.289Z,,,,,,,,,,,NaN,,,,,,,,low,low,,,,,,,false,,,,,false,832660.5999999046,832660.5999999046,,832660.399999857,,832446.989,5,600,,
sequence,flow.Sequence,10_12,2023-11-27T20:44:06.289Z,,,,,,,,,,,3646.8659999045776,completion,,,,,,,low,low,,,,,,,false,,,,,false,832660.5999999046,832660.5999999046,828996.899,829230.6999998093,829013.734,832446.989,5,600,,
trial,html.Screen,10_13_0,2023-11-27T20:44:11.433Z,,,,1,-0.0166849894750452,0.0371614812368835,,0.04,true,lh,5357.511000000057,response,-0.8688859182707874,1.013586279159978,-0.8748653315488024,0.9566733172438716,0.9817716391344364,-1.0189935546851367,low,high,,ISIC_6231450.JPG,8,ISIC_0640770.JPG,28,26,false,0.16000000000000003,lh,keypress(e),0,false,837804.5999999046,837804.5,832430.407,832660.5999999046,832446.989,837597.083,5,600,14,
break,html.Screen,10_13_1,2023-11-27T20:44:11.434Z,,,,,,,,,,,NaN,,,,,,,,low,high,,,,,,,false,,,,,false,837805.2999999523,837805.0999999046,,837804.899999857,,837597.083,5,600,,
break_continue,html.Screen,10_13_2,2023-11-27T20:44:11.434Z,,,,,,,,,,,NaN,,,,,,,,low,high,,,,,,,false,,,,,false,837805.6999998093,837805.5,,837805.399999857,,837597.083,5,600,,
sequence,flow.Sequence,10_13,2023-11-27T20:44:11.435Z,,,,,,,,,,,5358.511000000057,completion,,,,,,,low,high,,,,,,,false,,,,,false,837805.899999857,837805.5,832430.407,832660.5999999046,832446.989,837597.083,5,600,,
trial,html.Screen,10_14_0,2023-11-27T20:44:18.185Z,,,,1,-0.0377791839943904,0.0227626648172468,,0.04,false,hh,6959.016999904648,response,0.9191486333136276,1.013586279159978,-0.8748653315488024,1.080719641270871,0.9817716391344364,-1.0189935546851367,high,high,,ISIC_7167479.JPG,9,ISIC_0663941.JPG,28,25,false,0.1,lh,keypress(e),0,false,844556.1999998093,844556.0999999046,837580.32,837806,837597.083,844347.007,5,600,15,
break,html.Screen,10_14_1,2023-11-27T20:44:18.185Z,,,,,,,,,,,NaN,,,,,,,,high,high,,,,,,,false,,,,,false,844556.5999999046,844556.5,,844556.2999999523,,844347.007,5,600,,
break_continue,html.Screen,10_14_2,2023-11-27T20:44:18.186Z,,,,,,,,,,,NaN,,,,,,,,high,high,,,,,,,false,,,,,false,844556.899999857,844556.7999999523,,844556.6999998093,,844347.007,5,600,,
sequence,flow.Sequence,10_14,2023-11-27T20:44:18.186Z,,,,,,,,,,,6959.716999952332,completion,,,,,,,high,high,,,,,,,false,,,,,false,844556.899999857,844556.7999999523,837580.32,837805.899999857,837597.083,844347.007,5,600,,
trial,html.Screen,10_15_0,2023-11-27T20:44:23.690Z,,,,1,0.0127320821962457,-0.0315308940184827,,0.04,false,hl,5713.592999904649,response,0.8591294258188253,1.013586279159978,-0.8748653315488024,-0.870797302150167,0.9817716391344364,-1.0189935546851367,high,low,,ISIC_8156101.JPG,9,ISIC_0055841.JPG,28,27,false,0.21000000000000008,ll,keypress(f),0,false,850060.7999999523,850060.5999999046,844330.482,844557,844347.007,849847.052,5,600,16,
break,html.Screen,10_15_1,2023-11-27T20:44:23.691Z,,,,,,,,,,,NaN,,,,,,,,high,low,,,,,,,false,,,,,false,850061.6999998093,850061.399999857,,850061.0999999046,,849847.052,5,600,,
break_continue,html.Screen,10_15_2,2023-11-27T20:44:23.691Z,,,,,,,,,,,NaN,,,,,,,,high,low,,,,,,,false,,,,,false,850062.1999998093,850062.0999999046,,850061.7999999523,,849847.052,5,600,,
sequence,flow.Sequence,10_15,2023-11-27T20:44:23.691Z,,,,,,,,,,,5715.092999904649,completion,,,,,,,high,low,,,,,,,false,,,,,false,850062.5,850062.0999999046,844330.482,844557,844347.007,849847.052,5,600,,
trial,html.Screen,10_16_0,2023-11-27T20:44:32.281Z,,,,1,-0.0377791839943904,0.0227626648172468,,0.04,false,lh,8805.047999904607,response,-0.8561946552009824,1.013586279159978,-0.8748653315488024,0.9282171889213044,0.9817716391344364,-1.0189935546851367,low,high,,ISIC_7167479.JPG,8,ISIC_3065032.JPG,28,26,false,0.16000000000000003,hl,keypress(j),0,false,858652.2999999523,858652.0999999046,849830.401,850062.5999999046,849847.052,858447.084,5,600,17,
break,html.Screen,10_16_1,2023-11-27T20:44:32.281Z,,,,,,,,,,,NaN,,,,,,,,low,high,,,,,,,false,,,,,false,858652.5999999046,858652.5,,858652.399999857,,858447.084,5,600,,
break_continue,html.Screen,10_16_2,2023-11-27T20:44:32.282Z,,,,,,,,,,,NaN,,,,,,,,low,high,,,,,,,false,,,,,false,858652.7999999523,858652.6999998093,,858652.5999999046,,858447.084,5,600,,
sequence,flow.Sequence,10_16,2023-11-27T20:44:32.282Z,,,,,,,,,,,8805.64799980924,completion,,,,,,,low,high,,,,,,,false,,,,,false,858652.899999857,858652.6999998093,849830.401,850062.5999999046,849847.052,858447.084,5,600,,
trial,html.Screen,10_17_0,2023-11-27T20:44:35.008Z,,,,1,0.0189295602385628,0.0128812415435153,,0.04,true,hh,2932.515999904601,response,1.1119564877278971,1.013586279159978,-0.8748653315488024,0.9546609075308709,0.9817716391344364,-1.0189935546851367,high,high,,ISIC_0010372.JPG,9,ISIC_0056110.JPG,28,25,false,0.1,hh,keypress(i),0,false,861379.6999998093,861379.5999999046,858430.188,858652.899999857,858447.084,861163.725,5,600,18,
break,html.Screen,10_17_1,2023-11-27T20:44:35.009Z,,,,,,,,,,,NaN,,,,,,,,high,high,,,,,,,false,,,,,false,861379.899999857,861379.899999857,,861379.7999999523,,861163.725,5,600,,
break_continue,html.Screen,10_17_2,2023-11-27T20:44:35.009Z,,,,,,,,,,,NaN,,,,,,,,high,high,,,,,,,false,,,,,false,861380.1999998093,861380.1999998093,,861380.0999999046,,861163.725,5,600,,
sequence,flow.Sequence,10_17,2023-11-27T20:44:35.009Z,,,,,,,,,,,2933.1159998092335,completion,,,,,,,high,high,,,,,,,false,,,,,false,861380.1999998093,861380.1999998093,858430.188,858652.899999857,858447.084,861163.725,5,600,,
trial,html.Screen,10_18_0,2023-11-27T20:44:40.994Z,,,,1,0.0327772618698018,-0.0056908372048728,,0.04,false,lh,6200.874999904656,response,-0.9566823908868002,1.013586279159978,-0.8748653315488024,0.9602125665128364,0.9817716391344364,-1.0189935546851367,low,high,,ISIC_7897925.JPG,8,ISIC_0056784.JPG,28,26,false,0.16000000000000003,ll,keypress(f),0,false,867364.7999999523,867364.5999999046,861147.061,861380.2999999523,861163.725,867163.92,5,600,19,
break,html.Screen,10_18_1,2023-11-27T20:44:40.994Z,,,,,,,,,,,NaN,,,,,,,,low,high,,,,,,,false,,,,,false,867365.6999998093,867365.399999857,,867365.0999999046,,867163.92,5,600,,
break_continue,html.Screen,10_18_2,2023-11-27T20:44:40.995Z,,,,,,,,,,,NaN,,,,,,,,low,high,,,,,,,false,,,,,false,867366.1999998093,867366.0999999046,,867365.7999999523,,867163.92,5,600,,
sequence,flow.Sequence,10_18,2023-11-27T20:44:40.995Z,,,,,,,,,,,6202.374999904656,completion,,,,,,,low,high,,,,,,,false,,,,,false,867366.5999999046,867366.0999999046,861147.061,861380.2999999523,861163.725,867163.92,5,600,,
trial,html.Screen,10_19_0,2023-11-27T20:44:55.242Z,,,,1,0.0361875505619981,-0.0291457404567876,,0.04,false,hl,14449.17999990459,response,0.9385447468573198,1.013586279159978,-0.8748653315488024,-1.2289860846064424,0.9817716391344364,-1.0189935546851367,high,low,,ISIC_0027480.JPG,9,ISIC_0032780.JPG,28,27,false,0.21000000000000008,hh,keypress(i),0,false,881613.2999999523,881613.0999999046,867147.062,867366.5999999046,867163.92,881414.646,5,600,20,
break,html.Screen,10_19_1,2023-11-27T20:44:55.243Z,,,,,,,,,,,NaN,,,,,,,,high,low,,,,,,,false,,,,,false,881614.0999999046,881613.899999857,,881613.5,,881414.646,5,600,,
break_continue,html.Screen,10_19_2,2023-11-27T20:44:55.243Z,,,,,,,,,,,NaN,,,,,,,,high,low,,,,,,,false,,,,,false,881614.5999999046,881614.5,,881614.2999999523,,881414.646,5,600,,
sequence,flow.Sequence,10_19,2023-11-27T20:44:55.244Z,,,,,,,,,,,14450.579999999958,completion,,,,,,,high,low,,,,,,,false,,,,,false,881614.899999857,881614.5,867147.062,867366.5999999046,867163.92,881414.646,5,600,,
trial,html.Screen,10_20_0,2023-11-27T20:44:58.769Z,,,,1,-0.012810673904807,0.00400964452501,,0.04,false,hh,3725.8540000000503,response,0.9191486333136276,1.013586279159978,-0.8748653315488024,1.080719641270871,0.9817716391344364,-1.0189935546851367,high,high,,ISIC_0064656.JPG,9,ISIC_0663941.JPG,28,25,false,0.1,lh,keypress(e),0,false,885140.6999998093,885140.5,881380.338,881615,881414.646,884930.386,5,600,21,
break,html.Screen,10_20_1,2023-11-27T20:44:58.770Z,,,,,,,,,,,NaN,,,,,,,,high,high,,,,,,,false,,,,,false,885141.2999999523,885141.0999999046,,885140.899999857,,884930.386,5,600,,
break_continue,html.Screen,10_20_2,2023-11-27T20:44:58.770Z,,,,,,,,,,,NaN,,,,,,,,high,high,,,,,,,false,,,,,false,885141.6999998093,885141.5,,885141.399999857,,884930.386,5,600,,
sequence,flow.Sequence,10_20,2023-11-27T20:44:58.771Z,,,,,,,,,,,3726.8540000000503,completion,,,,,,,high,high,,,,,,,false,,,,,false,885141.7999999523,885141.5,881380.338,881614.899999857,881414.646,884930.386,5,600,,
trial,html.Screen,10_21_0,2023-11-27T20:45:06.714Z,,,,1,-0.00126575685933,-0.0325046559638838,,0.04,false,hl,8154.313999809208,response,0.9385447468573198,1.013586279159978,-0.8748653315488024,-1.2289860846064424,0.9817716391344364,-1.0189935546851367,high,low,,ISIC_5682259.JPG,8,ISIC_0032780.JPG,28,27,false,0.21000000000000008,hh,keypress(i),0,false,893085,893084.6999998093,884913.651,885141.899999857,884930.386,892880.403,5,600,22,
break,html.Screen,10_21_1,2023-11-27T20:45:06.715Z,,,,,,,,,,,NaN,,,,,,,,high,low,,,,,,,false,,,,,false,893085.7999999523,893085.5,,893085.1999998093,,892880.403,5,600,,
break_continue,html.Screen,10_21_2,2023-11-27T20:45:06.715Z,,,,,,,,,,,NaN,,,,,,,,high,low,,,,,,,false,,,,,false,893086.1999998093,893086.0999999046,,893085.899999857,,892880.403,5,600,,
sequence,flow.Sequence,10_21,2023-11-27T20:45:06.715Z,,,,,,,,,,,8155.713999904576,completion,,,,,,,high,low,,,,,,,false,,,,,false,893086.399999857,893086.0999999046,884913.651,885141.7999999523,884930.386,892880.403,5,600,,
trial,html.Screen,10_22_0,2023-11-27T20:45:10.393Z,,,,1,-0.0057914759495055,0.018500200317654,,0.04,true,ll,3883.5969999999506,response,-0.8112269594281695,1.013586279159978,-0.8748653315488024,-1.041128166465784,0.9817716391344364,-1.0189935546851367,low,low,,ISIC_0058723.JPG,9,ISIC_0059248.JPG,28,38,false,0.1,ll,keypress(f),0,false,896764.0999999046,896764,892863.932,893086.5,892880.403,896564.747,5,600,23,
break,html.Screen,10_22_1,2023-11-27T20:45:10.394Z,,,,,,,,,,,NaN,,,,,,,,low,low,,,,,,,false,,,,,false,896764.399999857,896764.2999999523,,896764.1999998093,,896564.747,5,600,,
break_continue,html.Screen,10_22_2,2023-11-27T20:45:10.394Z,,,,,,,,,,,NaN,,,,,,,,low,low,,,,,,,false,,,,,false,896764.5,896764.5,,896764.5,,896564.747,5,600,,
sequence,flow.Sequence,10_22,2023-11-27T20:45:10.394Z,,,,,,,,,,,3884.0969999999506,completion,,,,,,,low,low,,,,,,,false,,,,,false,896764.6999998093,896764.5,892863.932,893086.5,892880.403,896564.747,5,600,,
trial,html.Screen,10_23_0,2023-11-27T20:45:17.955Z,,,,1,-0.00126575685933,-0.0325046559638838,,0.04,true,hh,7760.452999809291,response,1.1119564877278971,1.013586279159978,-0.8748653315488024,0.9546609075308709,0.9817716391344364,-1.0189935546851367,high,high,,ISIC_5682259.JPG,10,ISIC_0056110.JPG,28,25,false,0.1,hh,keypress(i),0,false,904325.5,904325.1999998093,896530.411,896764.6999998093,896564.747,904113.784,5,600,24,
break,html.Screen,10_23_1,2023-11-27T20:45:17.956Z,,,,,,,,,,,NaN,,,,,,,,high,high,,,,,,,false,,,,,false,904326.5999999046,904326.2999999523,,904325.7999999523,,904113.784,5,600,,
break_continue,html.Screen,10_23_2,2023-11-27T20:45:17.957Z,,,,,,,,,,,NaN,,,,,,,,high,high,,,,,,,false,,,,,false,904327.1999998093,904327.0999999046,,904326.7999999523,,904113.784,5,600,,
sequence,flow.Sequence,10_23,2023-11-27T20:45:17.957Z,,,,,,,,,,,7762.352999904659,completion,,,,,,,high,high,,,,,,,false,,,,,false,904327.5,904327.0999999046,896530.411,896764.6999998093,896564.747,904113.784,5,600,,
trial,html.Screen,10_24_0,2023-11-27T20:45:20.818Z,,,,1,0.0086413421586899,0.0360184993500958,,0.04,false,hl,3074.216000000015,response,1.1235224875125256,1.013586279159978,-0.8748653315488024,-0.8641223012137988,0.9817716391344364,-1.0189935546851367,high,low,,ISIC_0010767.JPG,9,ISIC_0033901.JPG,28,27,false,0.21000000000000008,hh,keypress(i),0,false,907188.1999998093,907188,904097.225,904327.6999998093,904113.784,906980.523,5,600,25,
break,html.Screen,10_24_1,2023-11-27T20:45:20.818Z,,,,,,,,,,,NaN,,,,,,,,high,low,,,,,,,false,,,,,false,907188.5999999046,907188.5,,907188.1999998093,,906980.523,5,600,,
break_continue,html.Screen,10_24_2,2023-11-27T20:45:20.818Z,,,,,,,,,,,NaN,,,,,,,,high,low,,,,,,,false,,,,,false,907188.899999857,907188.7999999523,,907188.6999998093,,906980.523,5,600,,
sequence,flow.Sequence,10_24,2023-11-27T20:45:20.818Z,,,,,,,,,,,3075.015999952331,completion,,,,,,,high,low,,,,,,,false,,,,,false,907189,907188.7999999523,904097.225,904327.5999999046,904113.784,906980.523,5,600,,
trial,html.Screen,10_25_0,2023-11-27T20:45:25.442Z,,,,1,-0.0023664502831079,-0.0252784582169994,,0.04,true,ll,4832.17699980922,response,-0.891534074006073,1.013586279159978,-0.8748653315488024,-0.9584950302233712,0.9817716391344364,-1.0189935546851367,low,low,,ISIC_4156010.JPG,9,ISIC_0060559.JPG,28,38,false,0.1,ll,keypress(f),0,false,911812.899999857,911812.6999998093,906963.753,907189,906980.523,911597.165,5,600,26,
break,html.Screen,10_25_1,2023-11-27T20:45:25.443Z,,,,,,,,,,,NaN,,,,,,,,low,low,,,,,,,false,,,,,false,911813.5999999046,911813.5,,911813.0999999046,,911597.165,5,600,,
break_continue,html.Screen,10_25_2,2023-11-27T20:45:25.443Z,,,,,,,,,,,NaN,,,,,,,,low,low,,,,,,,false,,,,,false,911814.0999999046,911814,,911813.7999999523,,911597.165,5,600,,
sequence,flow.Sequence,10_25,2023-11-27T20:45:25.444Z,,,,,,,,,,,4833.476999999955,completion,,,,,,,low,low,,,,,,,false,,,,,false,911814.2999999523,911814,906963.753,907189,906980.523,911597.165,5,600,,
trial,html.Screen,10_26_0,2023-11-27T20:45:31.163Z,,,,1,0.0189295602385628,0.0128812415435153,,0.04,false,hl,5935.934999904595,response,1.00615481805876,1.013586279159978,-0.8748653315488024,-0.8428903771195875,0.9817716391344364,-1.0189935546851367,high,low,,ISIC_0010372.JPG,9,ISIC_0069970.JPG,28,27,false,0.21000000000000008,lh,keypress(e),0,false,917533.2999999523,917533.0999999046,911580.437,911814.5,911597.165,917330.541,5,600,27,
break,html.Screen,10_26_1,2023-11-27T20:45:31.163Z,,,,,,,,,,,NaN,,,,,,,,high,low,,,,,,,false,,,,,false,917534.0999999046,917533.899999857,,917533.5,,917330.541,5,600,,
break_continue,html.Screen,10_26_2,2023-11-27T20:45:31.164Z,,,,,,,,,,,NaN,,,,,,,,high,low,,,,,,,false,,,,,false,917534.5999999046,917534.399999857,,917534.2999999523,,917330.541,5,600,,
sequence,flow.Sequence,10_26,2023-11-27T20:45:31.164Z,,,,,,,,,,,5937.234999856912,completion,,,,,,,high,low,,,,,,,false,,,,,false,917534.6999998093,917534.399999857,911580.437,911814.399999857,911597.165,917330.541,5,600,,
trial,html.Screen,10_27_0,2023-11-27T20:45:35.547Z,,,,1,-0.0377791839943904,0.0227626648172468,,0.04,true,ll,4586.558999904664,response,-0.781123788799864,1.013586279159978,-0.8748653315488024,-0.985661787434149,0.9817716391344364,-1.0189935546851367,low,low,,ISIC_7167479.JPG,9,ISIC_0027694.JPG,28,38,false,0.1,ll,keypress(f),0,false,921917.399999857,921917.0999999046,917314.008,917534.899999857,917330.541,921713.88,5,600,28,
break,html.Screen,10_27_1,2023-11-27T20:45:35.548Z,,,,,,,,,,,NaN,,,,,,,,low,low,,,,,,,false,,,,,false,921918.5,921918.1999998093,,921917.7999999523,,921713.88,5,600,,
break_continue,html.Screen,10_27_2,2023-11-27T20:45:35.549Z,,,,,,,,,,,NaN,,,,,,,,low,low,,,,,,,false,,,,,false,921919.1999998093,921919,,921918.7999999523,,921713.88,5,600,,
sequence,flow.Sequence,10_27,2023-11-27T20:45:35.549Z,,,,,,,,,,,4588.459000000032,completion,,,,,,,low,low,,,,,,,false,,,,,false,921919.5,921919,917314.008,917534.899999857,917330.541,921713.88,5,600,,
trial,html.Screen,10_28_0,2023-11-27T20:45:43.074Z,,,,1,-0.0158987717472563,-0.0292472192292015,,0.04,false,hl,7730.619999999995,response,0.9087169856594104,1.013586279159978,-0.8748653315488024,-0.8835647084207277,0.9817716391344364,-1.0189935546851367,high,low,,ISIC_1366765.JPG,9,ISIC_0000349.JPG,28,27,false,0.21000000000000008,lh,keypress(e),0,false,929444.5999999046,929444.5,921697.077,921919.5999999046,921713.88,929230.51,5,600,29,
break,html.Screen,10_28_1,2023-11-27T20:45:43.074Z,,,,,,,,,,,NaN,,,,,,,,high,low,,,,,,,false,,,,,false,929445.0999999046,929445,,929444.6999998093,,929230.51,5,600,,
break_continue,html.Screen,10_28_2,2023-11-27T20:45:43.075Z,,,,,,,,,,,NaN,,,,,,,,high,low,,,,,,,false,,,,,false,929445.5,929445.399999857,,929445.2999999523,,929230.51,5,600,,
sequence,flow.Sequence,10_28,2023-11-27T20:45:43.075Z,,,,,,,,,,,7731.519999856944,completion,,,,,,,high,low,,,,,,,false,,,,,false,929445.5999999046,929445.399999857,921697.077,921919.5,921713.88,929230.51,5,600,,
trial,html.Screen,10_29_0,2023-11-27T20:45:45.521Z,,,,1,-0.0377791839943904,0.0227626648172468,,0.04,true,ll,2661.4899999999907,response,-0.7768060112571308,1.013586279159978,-0.8748653315488024,-0.9860853588297788,0.9817716391344364,-1.0189935546851367,low,low,,ISIC_7167479.JPG,9,ISIC_0046640.JPG,28,38,false,0.1,ll,keypress(f),0,false,931892.0999999046,931892,929213.839,929445.7999999523,929230.51,931680.494,5,600,30,
break,html.Screen,10_29_1,2023-11-27T20:45:45.522Z,,,,,,,,,,,NaN,,,,,,,,low,low,,,,,,,false,,,,,false,931892.5,931892.399999857,,931892.1999998093,,931680.494,5,600,,
break_continue,html.Screen,10_29_2,2023-11-27T20:45:45.522Z,,,,,,,,,,,NaN,,,,,,,,low,low,,,,,,,false,,,,,false,931892.6999998093,931892.5999999046,,931892.5,,931680.494,5,600,,
sequence,flow.Sequence,10_29,2023-11-27T20:45:45.522Z,,,,,,,,,,,2662.0899999046233,completion,,,,,,,low,low,,,,,,,false,,,,,false,931892.6999998093,931892.5999999046,929213.839,929445.6999998093,929230.51,931680.494,5,600,,
trial,html.Screen,10_30_0,2023-11-27T20:45:51.338Z,,,,1,0.0327772618698018,-0.0056908372048728,,0.04,true,hh,6027.805999952368,response,0.9696118525781644,1.013586279159978,-0.8748653315488024,0.9712966348713286,0.9817716391344364,-1.0189935546851367,high,high,,ISIC_7897925.JPG,9,ISIC_7927525.JPG,28,25,false,0.1,hh,keypress(i),0,false,937708.5,937708.2999999523,931663.98,931892.7999999523,931680.494,937497.182,5,600,31,
break,html.Screen,10_30_1,2023-11-27T20:45:51.338Z,,,,,,,,,,,NaN,,,,,,,,high,high,,,,,,,false,,,,,false,937709,937708.7999999523,,937708.5999999046,,937497.182,5,600,,
break_continue,html.Screen,10_30_2,2023-11-27T20:45:51.339Z,,,,,,,,,,,NaN,,,,,,,,high,high,,,,,,,false,,,,,false,937709.2999999523,937709.1999998093,,937709.0999999046,,937497.182,5,600,,
sequence,flow.Sequence,10_30,2023-11-27T20:45:51.339Z,,,,,,,,,,,6028.705999809317,completion,,,,,,,high,high,,,,,,,false,,,,,false,937709.5,937709.1999998093,931663.98,931892.7999999523,931680.494,937497.182,5,600,,
trial,html.Screen,10_31_0,2023-11-27T20:45:59.626Z,,,,1,-0.012020985739544,0.0126097407389903,,0.04,false,hh,8499.117999952286,response,0.967434313906551,1.013586279159978,-0.8748653315488024,0.9078292667476092,0.9817716391344364,-1.0189935546851367,high,high,,ISIC_0069379.JPG,8,ISIC_0011668.JPG,28,25,false,0.1,ll,keypress(f),0,false,945996.399999857,945996.2999999523,937480.481,937709.5,937497.182,945780.509,5,600,32,
break,html.Screen,10_31_1,2023-11-27T20:45:59.626Z,,,,,,,,,,,NaN,,,,,,,,high,high,,,,,,,false,,,,,false,945996.899999857,945996.6999998093,,945996.5,,945780.509,5,600,,
break_continue,html.Screen,10_31_2,2023-11-27T20:45:59.626Z,,,,,,,,,,,NaN,,,,,,,,high,high,,,,,,,false,,,,,false,945997.1999998093,945997.0999999046,,945996.899999857,,945780.509,5,600,,
sequence,flow.Sequence,10_31,2023-11-27T20:45:59.627Z,,,,,,,,,,,8499.917999904603,completion,,,,,,,high,high,,,,,,,false,,,,,false,945997.2999999523,945997.0999999046,937480.481,937709.5,937497.182,945780.509,5,600,,
trial,html.Screen,10_32_0,2023-11-27T20:46:02.347Z,,,,1,-0.0057914759495055,0.018500200317654,,0.04,false,hl,2936.5909999046708,response,0.8069690440362255,1.013586279159978,-0.8748653315488024,-0.8262727717500657,0.9817716391344364,-1.0189935546851367,high,low,,ISIC_0058723.JPG,9,ISIC_0028469.JPG,28,27,false,0.21000000000000008,hh,keypress(i),0,false,948717.399999857,948717.0999999046,945763.66,945997.2999999523,945780.509,948514.073,5,600,33,
break,html.Screen,10_32_1,2023-11-27T20:46:02.348Z,,,,,,,,,,,NaN,,,,,,,,high,low,,,,,,,false,,,,,false,948718.5,948718.2999999523,,948717.7999999523,,948514.073,5,600,,
break_continue,html.Screen,10_32_2,2023-11-27T20:46:02.349Z,,,,,,,,,,,NaN,,,,,,,,high,low,,,,,,,false,,,,,false,948719.1999998093,948719,,948718.7999999523,,948514.073,5,600,,
sequence,flow.Sequence,10_32,2023-11-27T20:46:02.349Z,,,,,,,,,,,2938.491000000038,completion,,,,,,,high,low,,,,,,,false,,,,,false,948719.399999857,948719,945763.66,945997.2999999523,945780.509,948514.073,5,600,,
trial,html.Screen,10_33_0,2023-11-27T20:46:07.585Z,,,,1,-0.0060934073440827,-0.0279108145883031,,0.04,false,ll,5441.826999856974,response,-0.8145925452767395,1.013586279159978,-0.8748653315488024,-0.9895687497294692,0.9817716391344364,-1.0189935546851367,low,low,,ISIC_0032604.JPG,9,ISIC_0027751.JPG,28,38,false,0.1,lh,keypress(e),0,false,953956.0999999046,953955.899999857,948497.343,948719.6999998093,948514.073,953747.179,5,600,34,
break,html.Screen,10_33_1,2023-11-27T20:46:07.586Z,,,,,,,,,,,NaN,,,,,,,,low,low,,,,,,,false,,,,,false,953956.399999857,953956.399999857,,953956.0999999046,,953747.179,5,600,,
break_continue,html.Screen,10_33_2,2023-11-27T20:46:07.586Z,,,,,,,,,,,NaN,,,,,,,,low,low,,,,,,,false,,,,,false,953956.5999999046,953956.5999999046,,953956.5,,953747.179,5,600,,
sequence,flow.Sequence,10_33,2023-11-27T20:46:07.586Z,,,,,,,,,,,5442.526999904658,completion,,,,,,,low,low,,,,,,,false,,,,,false,953956.6999998093,953956.5999999046,948497.343,948719.6999998093,948514.073,953747.179,5,600,,
trial,html.Screen,10_34_0,2023-11-27T20:46:17.731Z,,,,1,-0.0377791839943904,0.0227626648172468,,0.04,false,hl,10354.020999809261,response,1.0143509683988825,1.013586279159978,-0.8748653315488024,-1.0281980567462463,0.9817716391344364,-1.0189935546851367,high,low,,ISIC_7167479.JPG,8,ISIC_0062031.JPG,28,27,false,0.21000000000000008,ll,keypress(f),0,false,964101.5999999046,964101.1999998093,953730.54,953956.6999998093,953747.179,963897.211,5,600,35,
break,html.Screen,10_34_1,2023-11-27T20:46:17.733Z,,,,,,,,,,,NaN,,,,,,,,high,low,,,,,,,false,,,,,false,964102.5999999046,964102.2999999523,,964101.7999999523,,963897.211,5,600,,
break_continue,html.Screen,10_34_2,2023-11-27T20:46:17.733Z,,,,,,,,,,,NaN,,,,,,,,high,low,,,,,,,false,,,,,false,964103.0999999046,964102.899999857,,964102.6999998093,,963897.211,5,600,,
sequence,flow.Sequence,10_34,2023-11-27T20:46:17.733Z,,,,,,,,,,,10355.720999856945,completion,,,,,,,high,low,,,,,,,false,,,,,false,964103.1999998093,964102.899999857,953730.54,953956.6999998093,953747.179,963897.211,5,600,,
trial,html.Screen,10_35_0,2023-11-27T20:46:22.115Z,,,,1,-0.0158987717472563,-0.0292472192292015,,0.04,true,hh,4587.188999856939,response,0.9658792885069516,1.013586279159978,-0.8748653315488024,0.916173605730014,0.9817716391344364,-1.0189935546851367,high,high,,ISIC_1366765.JPG,9,ISIC_8979275.JPG,28,25,false,0.1,hh,keypress(i),0,false,968484.5999999046,968484.399999857,963880.534,964103.399999857,963897.211,968280.586,5,600,36,
break,html.Screen,10_35_1,2023-11-27T20:46:22.115Z,,,,,,,,,,,NaN,,,,,,,,high,high,,,,,,,false,,,,,false,968485.2999999523,968485.1999998093,,968484.7999999523,,968280.586,5,600,,
break_continue,html.Screen,10_35_2,2023-11-27T20:46:22.116Z,,,,,,,,,,,NaN,,,,,,,,high,high,,,,,,,false,,,,,false,968485.7999999523,968485.5999999046,,968485.5,,968280.586,5,600,,
sequence,flow.Sequence,10_35,2023-11-27T20:46:22.116Z,,,,,,,,,,,4588.388999904622,completion,,,,,,,high,high,,,,,,,false,,,,,false,968485.899999857,968485.5999999046,963880.534,964103.2999999523,963897.211,968280.586,5,600,,
trial,html.Screen,10_36_0,2023-11-27T20:46:26.370Z,,,,1,-0.0399381815506136,-0.0177751789152893,,0.04,false,hl,4459.613999809255,response,1.1501717278509027,1.013586279159978,-0.8748653315488024,-0.8228936373136835,0.9817716391344364,-1.0189935546851367,high,low,,ISIC_3981425.JPG,9,ISIC_8398000.JPG,28,27,false,0.21000000000000008,hh,keypress(i),0,false,972740.2999999523,972740.1999998093,968263.843,968486.0999999046,968280.586,972530.568,5,600,37,
break,html.Screen,10_36_1,2023-11-27T20:46:26.370Z,,,,,,,,,,,NaN,,,,,,,,high,low,,,,,,,false,,,,,false,972740.5,972740.5,,972740.399999857,,972530.568,5,600,,
break_continue,html.Screen,10_36_2,2023-11-27T20:46:26.371Z,,,,,,,,,,,NaN,,,,,,,,high,low,,,,,,,false,,,,,false,972740.6999998093,972740.5999999046,,972740.5999999046,,972530.568,5,600,,
sequence,flow.Sequence,10_36,2023-11-27T20:46:26.371Z,,,,,,,,,,,4460.013999904622,completion,,,,,,,high,low,,,,,,,false,,,,,false,972740.6999998093,972740.5999999046,968263.843,968486.0999999046,968280.586,972530.568,5,600,,
trial,html.Screen,10_37_0,2023-11-27T20:46:29.314Z,,,,1,0.010035581303589,-0.0100711721396864,,0.04,true,hh,3153.43200000003,response,0.9462198986993904,1.013586279159978,-0.8748653315488024,1.067111862128132,0.9817716391344364,-1.0189935546851367,high,high,,ISIC_0030592.JPG,9,ISIC_3564461.JPG,28,25,false,0.1,hh,keypress(i),0,false,975684.1999998093,975684,972513.728,972740.899999857,972530.568,975480.809,5,600,38,
break,html.Screen,10_37_1,2023-11-27T20:46:29.314Z,,,,,,,,,,,NaN,,,,,,,,high,high,,,,,,,false,,,,,false,975684.5,975684.399999857,,975684.2999999523,,975480.809,5,600,,
break_continue,html.Screen,10_37_2,2023-11-27T20:46:29.315Z,,,,,,,,,,,NaN,,,,,,,,high,high,,,,,,,false,,,,,false,975684.6999998093,975684.5999999046,,975684.5999999046,,975480.809,5,600,,
sequence,flow.Sequence,10_37,2023-11-27T20:46:29.315Z,,,,,,,,,,,3154.0319999046624,completion,,,,,,,high,high,,,,,,,false,,,,,false,975684.7999999523,975684.5999999046,972513.728,972740.899999857,972530.568,975480.809,5,600,,
