sender,sender_type,sender_id,timestamp,meta,,age,blockNo,c1,c2,condition,control_tolerance,correct,correctResponse,duration,ended_on,f1,f1_high,f1_low,f2,f2_high,f2_low,feature_level1,feature_level2,gender,img_left,img_reveal,img_right,n_control_images,n_target_images,practice,range_tolerance,response,response_action,selection_duration,staircase,time_commit,time_end,time_render,time_run,time_show,time_switch,total_blocks,total_trials,trialNo,url
informed_consent,html.Screen,0,2023-11-27T18:28:50.470Z,"{""labjs_version"":""20.2.4"",""labjs_build"":{""flavor"":""development"",""commit"":""f5b4a49f956347addd546a832a3327688c2c0fef""},""location"":""https://labjs.felixhenninger.com/api/labjs_preview/index.html"",""userAgent"":""Mozilla/5.0 (Windows NT 10.0; Win64; x64) AppleWebKit/537.36 (KHTML, like Gecko) Chrome/119.0.0.0 Safari/537.36"",""platform"":""Win32"",""language"":""en-US"",""locale"":""en-US"",""timeZone"":""America/Chicago"",""timezoneOffset"":360,""screen_width"":1920,""screen_height"":1080,""scroll_width"":945,""scroll_height"":918,""window_innerWidth"":945,""window_innerHeight"":966,""devicePixelRatio"":1}",,,,,,,,,,14358.628999904633,response,,,,,,,,,,,,,,,,,consent,click button,,,15097.799999952316,15089.099999904633,713.789,710,730.471,15113.895,,,,{}
Demography form,html.Form,1,2023-11-27T18:29:01.438Z,,,19,,,,,,,,10952.204999904632,form submission,,,,,,,,,female,,,,,,,,,,,,26066.39999985695,26066.099999904633,15097.106,15098,15113.895,26080.54,,,,
Welcome,html.Screen,2,2023-11-27T18:29:03.141Z,,,,,,,"[""bor"",""col""]",,,,1688.4599999999991,response,,,,,,,,,,,,,,,,,continue,click button,,,27769.599999904633,27769,26063.741,26066.39999985695,26080.54,27780.459,,,,
demo_instructions,html.Screen,3,2023-11-27T18:29:34.975Z,,,,,,,,,,,31820.541,response,,,,,,,,,,,,,,,,,continue,click button,,,59601.59999990463,59601,27763.762,27769.700000047684,27780.459,59613.675,,,,
trial,html.Screen,4_0_0,2023-11-27T18:29:44.809Z,,,,0,-1.2118207001489876,-1.3164676315545727,,,true,hh,9822.324999999997,response,1.3246728710248594,1.2,-1.2,1.1527736000922424,1.2,-1.2,high,high,,ISIC_0066476.JPG,,ISIC_6876281.JPG,,25,true,0.14,hh,keypress(i),100,false,69436.5,69436,59597.237,59601.700000047684,59613.675,69463.736,1,16,1,
sequence,flow.Sequence,4_0,2023-11-27T18:29:44.810Z,,,,,,,,,,,9822.324999999997,completion,,,,,,,high,high,,,,,,,true,,,,,false,69437.09999990463,69436,59597.237,59601.700000047684,59613.675,69463.736,1,16,,
trial,html.Screen,4_1_0,2023-11-27T18:29:48.553Z,,,,0,-1.1936751736668425,-1.2584308630745344,,,true,hh,3716.1639998569444,response,1.2541318165695772,1.2,-1.2,1.085289936617366,1.2,-1.2,high,high,,ISIC_0061265.JPG,,ISIC_4277207.JPG,,25,true,0.14,hh,keypress(i),100,false,73180.09999990463,73179.89999985695,69446.987,69437.29999995232,69463.736,73197.028,1,16,2,
sequence,flow.Sequence,4_1,2023-11-27T18:29:48.553Z,,,,,,,,,,,3716.1639998569444,completion,,,,,,,high,high,,,,,,,true,,,,,false,73180.59999990463,73179.89999985695,69446.987,69437.29999995232,69463.736,73197.028,1,16,,
trial,html.Screen,4_2_0,2023-11-27T18:29:54.117Z,,,,0,-1.1243896694621007,-1.1772340944704969,,,true,hh,5546.672000047678,response,1.1409143352872226,1.2,-1.2,1.1323007949069106,1.2,-1.2,high,high,,ISIC_0062765.JPG,,ISIC_0030291.JPG,,25,true,0.14,hh,keypress(i),100,false,78744.20000004768,78743.70000004768,73180.284,73180.70000004768,73197.028,78763.745,1,16,3,
sequence,flow.Sequence,4_2,2023-11-27T18:29:54.118Z,,,,,,,,,,,5546.672000047678,completion,,,,,,,high,high,,,,,,,true,,,,,false,78744.70000004768,78743.70000004768,73180.284,73180.59999990463,73197.028,78763.745,1,16,,
trial,html.Screen,4_3_0,2023-11-27T18:29:56.656Z,,,,0,-1.268445326285509,-1.173734476257662,,,true,hh,2519.2550000000047,response,1.1870093485714288,1.2,-1.2,1.3339880978442629,1.2,-1.2,high,high,,ISIC_5216586.JPG,,ISIC_8592235.JPG,,25,true,0.14,hh,keypress(i),100,false,81283.29999995232,81283,78746.993,78745,78763.745,81313.561,1,16,4,
sequence,flow.Sequence,4_3,2023-11-27T18:29:56.657Z,,,,,,,,,,,2519.2550000000047,completion,,,,,,,high,high,,,,,,,true,,,,,false,81283.89999985695,81283,78746.993,78744.79999995232,78763.745,81313.561,1,16,,
trial,html.Screen,4_4_0,2023-11-27T18:30:05.755Z,,,,0,1.151139267005652,1.0838749490501327,,,true,ll,9068.538999904631,response,-1.2118207001489876,1.2,-1.2,-1.3164676315545727,1.2,-1.2,low,low,,ISIC_0002566.JPG,,ISIC_0066476.JPG,,30,true,0.13,ll,keypress(f),100,false,90382.29999995232,90382.09999990463,81296.88,81284.20000004768,81313.561,90413.595,1,16,5,
sequence,flow.Sequence,4_4,2023-11-27T18:30:05.756Z,,,,,,,,,,,9068.538999904631,completion,,,,,,,low,low,,,,,,,true,,,,,false,90382.70000004768,90382.09999990463,81296.88,81284.09999990463,81313.561,90413.595,1,16,,
trial,html.Screen,4_5_0,2023-11-27T18:30:12.648Z,,,,0,1.274752206258116,1.2988509166163749,,,true,ll,6861.304999856948,response,-1.2749714218614645,1.2,-1.2,-1.1578619398362149,1.2,-1.2,low,low,,ISIC_6704623.JPG,,ISIC_0024999.JPG,,40,true,0.14,ll,keypress(f),100,false,97275.20000004768,97274.89999985695,90397.093,90382.89999985695,90413.595,97296.895,1,16,6,
sequence,flow.Sequence,4_5,2023-11-27T18:30:12.649Z,,,,,,,,,,,6861.304999856948,completion,,,,,,,low,low,,,,,,,true,,,,,false,97275.79999995232,97274.89999985695,90397.093,90382.89999985695,90413.595,97296.895,1,16,,
trial,html.Screen,4_6_0,2023-11-27T18:30:23.256Z,,,,0,1.2541318165695772,1.085289936617366,,,true,ll,10585.704999904628,response,-1.1195710731537871,1.2,-1.2,-1.1961732733209125,1.2,-1.2,low,low,,ISIC_4277207.JPG,,ISIC_0067170.JPG,,40,true,0.14,ll,keypress(f),100,false,107882.89999985695,107882.59999990463,97280.242,97275.89999985695,97296.895,107913.688,1,16,7,
sequence,flow.Sequence,4_6,2023-11-27T18:30:23.256Z,,,,,,,,,,,10585.704999904628,completion,,,,,,,low,low,,,,,,,true,,,,,false,107883.39999985695,107882.59999990463,97280.242,97275.89999985695,97296.895,107913.688,1,16,,
trial,html.Screen,4_7_0,2023-11-27T18:30:26.256Z,,,,0,1.1843968275545205,1.2828739728067764,,,true,ll,2969.012000047689,response,-1.3307612087763094,1.2,-1.2,-1.075775252699004,1.2,-1.2,low,low,,ISIC_0002901.JPG,,ISIC_0063601.JPG,,40,true,0.14,ll,keypress(f),100,false,110882.89999985695,110882.70000004768,107897.077,107883.70000004768,107913.688,110913.479,1,16,8,
sequence,flow.Sequence,4_7,2023-11-27T18:30:26.256Z,,,,,,,,,,,2969.012000047689,completion,,,,,,,low,low,,,,,,,true,,,,,false,110883.39999985695,110882.70000004768,107897.077,107883.59999990463,107913.688,110913.479,1,16,,
trial,html.Screen,4_8_0,2023-11-27T18:30:33.681Z,,,,0,1.0329549150636406,-1.01584100839286,,,true,lh,7392.82099995231,response,-1.168911077628813,1.2,-1.2,1.2181838235193114,1.2,-1.2,low,high,,ISIC_0054670.JPG,,ISIC_7358691.JPG,,27,true,0.40000000000000024,lh,keypress(e),100,false,118306.59999990463,118306.29999995232,110896.836,110883.70000004768,110913.479,118330.149,1,16,9,
sequence,flow.Sequence,4_8,2023-11-27T18:30:33.681Z,,,,,,,,,,,7392.82099995231,completion,,,,,,,low,high,,,,,,,true,,,,,false,118307.09999990463,118306.29999995232,110896.836,110883.59999990463,110913.479,118330.149,1,16,,
trial,html.Screen,4_9_0,2023-11-27T18:30:38.999Z,,,,0,0.9754077946987664,-1.1821868813141057,,,true,lh,5294.051000047679,response,-0.9198276163642348,1.2,-1.2,0.7754915110667046,1.2,-1.2,low,high,,ISIC_0024317.JPG,,ISIC_7840728.JPG,,40,true,0.4500000000000003,lh,keypress(e),100,false,123624.5,123624.20000004768,118313.527,118307.29999995232,118330.149,123646.809,1,16,10,
sequence,flow.Sequence,4_9,2023-11-27T18:30:38.999Z,,,,,,,,,,,5294.051000047679,completion,,,,,,,low,high,,,,,,,true,,,,,false,123625.09999990463,123624.20000004768,118313.527,118307.29999995232,118330.149,123646.809,1,16,,
trial,html.Screen,4_10_0,2023-11-27T18:30:41.193Z,,,,0,1.058275612142778,-0.7824898568540655,,,true,lh,2171.9909999523225,response,-1.0685314915436992,1.2,-1.2,0.8203833713472237,1.2,-1.2,low,high,,ISIC_4906385.JPG,,ISIC_0029374.JPG,,40,true,0.4500000000000003,lh,keypress(e),100,false,125819.09999990463,125818.79999995232,123630.171,123625.29999995232,123646.809,125846.774,1,16,11,
sequence,flow.Sequence,4_10,2023-11-27T18:30:41.194Z,,,,,,,,,,,2171.9909999523225,completion,,,,,,,low,high,,,,,,,true,,,,,false,125819.59999990463,125818.79999995232,123630.171,123625.20000004768,123646.809,125846.774,1,16,,
trial,html.Screen,4_11_0,2023-11-27T18:30:44.793Z,,,,0,0.7518277461369444,-1.3860759020802074,,,true,lh,3572.3259999046277,response,-1.045301444872812,1.2,-1.2,1.0872560254441277,1.2,-1.2,low,high,,ISIC_7967397.JPG,,ISIC_4507700.JPG,,40,true,0.4500000000000003,lh,keypress(e),100,false,129419.39999985695,129419.09999990463,125830.196,125819.79999995232,125846.774,129446.771,1,16,12,
sequence,flow.Sequence,4_11,2023-11-27T18:30:44.794Z,,,,,,,,,,,3572.3259999046277,completion,,,,,,,low,high,,,,,,,true,,,,,false,129419.79999995232,129419.09999990463,125830.196,125819.70000004768,125846.774,129446.771,1,16,,
trial,html.Screen,4_12_0,2023-11-27T18:30:47.787Z,,,,0,-0.9244148283103414,0.9712966348713286,,,true,hl,2965.6289998569555,response,0.9653573371180936,1.2,-1.2,-0.854766800381037,1.2,-1.2,high,low,,ISIC_7927525.JPG,,ISIC_9640145.JPG,,26,true,0.4500000000000003,hl,keypress(j),100,false,132412.59999990463,132412.39999985695,129430.176,129420,129446.771,132430.061,1,16,13,
sequence,flow.Sequence,4_12,2023-11-27T18:30:47.787Z,,,,,,,,,,,2965.6289998569555,completion,,,,,,,high,low,,,,,,,true,,,,,false,132412.59999990463,132412.39999985695,129430.176,129420,129446.771,132430.061,1,16,,
trial,html.Screen,4_13_0,2023-11-27T18:30:51.388Z,,,,0,-0.8867328775712738,1.0063426986460375,,,true,hl,3583.2389999523293,response,0.8513427412482127,1.2,-1.2,-0.9295303568095064,1.2,-1.2,high,low,,ISIC_0055759.JPG,,ISIC_0034164.JPG,,26,true,0.4500000000000003,hl,keypress(j),100,false,136013.70000004768,136013.29999995232,132413.399,132412.79999995232,132430.061,136046.715,1,16,14,
sequence,flow.Sequence,4_13,2023-11-27T18:30:51.388Z,,,,,,,,,,,3583.2389999523293,completion,,,,,,,high,low,,,,,,,true,,,,,false,136014.20000004768,136013.29999995232,132413.399,132412.79999995232,132430.061,136046.715,1,16,,
trial,html.Screen,4_14_0,2023-11-27T18:30:58.383Z,,,,0,-1.045301444872812,1.0872560254441277,,,true,hl,6961.485000047687,response,0.8719231363109603,1.2,-1.2,-0.7704280220140033,1.2,-1.2,high,low,,ISIC_4507700.JPG,,ISIC_0029453.JPG,,26,true,0.4500000000000003,hl,keypress(j),100,false,143008.5,143008.20000004768,136013.454,136014.39999985695,136046.715,143046.697,1,16,15,
sequence,flow.Sequence,4_14,2023-11-27T18:30:58.383Z,,,,,,,,,,,6961.485000047687,completion,,,,,,,high,low,,,,,,,true,,,,,false,143009,143008.20000004768,136013.454,136014.39999985695,136046.715,143046.697,1,16,,
trial,html.Screen,4_15_0,2023-11-27T18:31:04.344Z,,,,0,-0.8067116931297591,1.215898074058027,,,true,hl,5922.503000047698,response,0.8513427412482127,1.2,-1.2,-0.9295303568095064,1.2,-1.2,high,low,,ISIC_1457687.JPG,,ISIC_0034164.JPG,,26,true,0.4500000000000003,hl,keypress(j),100,false,148969.5,148969.20000004768,143013.43,143009.29999995232,143046.697,148996.684,1,16,16,
sequence,flow.Sequence,4_15,2023-11-27T18:31:04.344Z,,,,,,,,,,,5922.503000047698,completion,,,,,,,high,low,,,,,,,true,,,,,false,148970,148969.20000004768,143013.43,143009.20000004768,143046.697,148996.684,1,16,,
demonstration_loop,flow.Loop,4,2023-11-27T18:31:04.344Z,,,,,,,,,,,89355.52500004768,completion,,,,,,,,,,,,,,,true,,,,,false,148970.39999985695,148969.20000004768,59597.237,59601.700000047684,59613.675,148996.684,1,16,,
practice_instructions,html.Screen,5,2023-11-27T18:31:20.503Z,,,,,,,,,,,16124.21599985694,response,,,,,,,,,,,,,,,,,continue,click button,,,165128.89999985695,165120.89999985695,148980.134,148970.5,148996.684,165146.634,,,,
trial,html.Screen,6_0_0,2023-11-27T18:31:36.506Z,,,,1,1.058275612142778,-0.7824898568540655,,,,,16016.667000000016,timeout,-0.8307508446051526,1.2,-1.2,1.1707575338936729,1.2,-1.2,low,high,,ISIC_4906385.JPG,,ISIC_0028606.JPG,,27,true,0.40000000000000024,,,0,false,181130.79999995232,181130.59999990463,165113.593,165129,165146.634,181163.301,1,40,1,
sequence,flow.Sequence,6_0,2023-11-27T18:31:36.506Z,,,,,,,,,,,15983.965999904642,completion,,,,,,,low,high,,,,,,,true,,,,,false,181131.09999990463,181130.59999990463,165113.593,165129,165146.634,181163.301,1,40,,
trial,html.Screen,6_1_0,2023-11-27T18:31:44.931Z,,,,1,-1.2033647433750492,-1.0718012192341555,,,true,hh,8392.098999856942,response,1.1441960791049337,1.2,-1.2,1.0156321899655198,1.2,-1.2,high,high,,ISIC_0061606.JPG,,ISIC_4023381.JPG,,265,true,0.4500000000000003,hh,keypress(i),0,false,189555.70000004768,189555.39999985695,181146.663,181131.20000004768,181163.301,189579.943,1,40,2,
sequence,flow.Sequence,6_1,2023-11-27T18:31:44.931Z,,,,,,,,,,,8392.098999856942,completion,,,,,,,high,high,,,,,,,true,,,,,false,189556.09999990463,189555.39999985695,181146.663,181131.20000004768,181163.301,189579.943,1,40,,
trial,html.Screen,6_2_0,2023-11-27T18:31:54.618Z,,,,1,1.3379750533585932,1.1671342614509763,,,true,ll,9662.95699985695,response,-1.2033647433750492,1.2,-1.2,-1.0718012192341555,1.2,-1.2,low,low,,ISIC_0063556.JPG,,ISIC_0061606.JPG,,30,true,0.13,ll,keypress(f),0,false,199243.29999995232,199242.89999985695,189563.256,189556.29999995232,189579.943,199246.559,1,40,3,
sequence,flow.Sequence,6_2,2023-11-27T18:31:54.619Z,,,,,,,,,,,9662.95699985695,completion,,,,,,,low,low,,,,,,,true,,,,,false,199243.59999990463,199242.89999985695,189563.256,189556.29999995232,189579.943,199246.559,1,40,,
trial,html.Screen,6_3_0,2023-11-27T18:31:59.122Z,,,,1,1.2100527057059796,1.2159112471537263,,,true,ll,4500.440999999992,response,-1.2749714218614645,1.2,-1.2,-1.1578619398362149,1.2,-1.2,low,low,,ISIC_0008055.JPG,,ISIC_0024999.JPG,,40,true,0.14,ll,keypress(f),0,false,203747.20000004768,203747,199229.832,199243.79999995232,199246.559,203763.363,1,40,4,
sequence,flow.Sequence,6_3,2023-11-27T18:31:59.123Z,,,,,,,,,,,4500.440999999992,completion,,,,,,,low,low,,,,,,,true,,,,,false,203747.59999990463,203747,199229.832,199243.70000004768,199246.559,203763.363,1,40,,
trial,html.Screen,6_4_0,2023-11-27T18:32:04.122Z,,,,1,1.2246024683501224,1.2904526351590244,,,true,ll,4983.536999856937,response,-1.14454137020797,1.2,-1.2,-1.1082302786512033,1.2,-1.2,low,low,,ISIC_4730066.JPG,,ISIC_0065128.JPG,,40,true,0.14,ll,keypress(f),0,false,208747.20000004768,208746.89999985695,203746.585,203747.89999985695,203763.363,208763.174,1,40,5,
sequence,flow.Sequence,6_4,2023-11-27T18:32:04.123Z,,,,,,,,,,,4983.536999856937,completion,,,,,,,low,low,,,,,,,true,,,,,false,208747.59999990463,208746.89999985695,203746.585,203747.79999995232,203763.363,208763.174,1,40,,
trial,html.Screen,6_5_0,2023-11-27T18:32:12.298Z,,,,1,-1.2646773654288392,0.952963803634235,,,true,hl,8159.72599985695,response,1.2578167348825195,1.2,-1.2,-0.8371819698254004,1.2,-1.2,high,low,,ISIC_1996356.JPG,,ISIC_9613570.JPG,,26,true,0.4500000000000003,hl,keypress(j),0,false,216923.09999990463,216922.89999985695,208746.591,208747.79999995232,208763.174,216929.841,1,40,6,
sequence,flow.Sequence,6_5,2023-11-27T18:32:12.298Z,,,,,,,,,,,8159.72599985695,completion,,,,,,,high,low,,,,,,,true,,,,,false,216923.59999990463,216922.89999985695,208746.591,208747.70000004768,208763.174,216929.841,1,40,,
trial,html.Screen,6_6_0,2023-11-27T18:32:21.338Z,,,,1,1.058275612142778,-0.7824898568540655,,,true,lh,9032.859000047698,response,-1.0116417541846066,1.2,-1.2,1.033442916947398,1.2,-1.2,low,high,,ISIC_4906385.JPG,,ISIC_0031389.JPG,,27,true,0.40000000000000024,lh,keypress(e),0,false,225962.89999985695,225962.70000004768,216913.119,216923.70000004768,216929.841,225979.819,1,40,7,
sequence,flow.Sequence,6_6,2023-11-27T18:32:21.338Z,,,,,,,,,,,9032.859000047698,completion,,,,,,,low,high,,,,,,,true,,,,,false,225963.29999995232,225962.70000004768,216913.119,216923.70000004768,216929.841,225979.819,1,40,,
trial,html.Screen,6_7_0,2023-11-27T18:32:27.611Z,,,,1,1.199471562817528,-0.8631260534979347,,,true,lh,6256.08099985696,response,-0.9662688541319592,1.2,-1.2,0.929746784178986,1.2,-1.2,low,high,,ISIC_0030754.JPG,,ISIC_0011077.JPG,,40,true,0.4500000000000003,lh,keypress(e),0,false,232236.20000004768,232235.89999985695,225963.147,225963.39999985695,225979.819,232246.471,1,40,8,
sequence,flow.Sequence,6_7,2023-11-27T18:32:27.612Z,,,,,,,,,,,6256.08099985696,completion,,,,,,,low,high,,,,,,,true,,,,,false,232236.70000004768,232235.89999985695,225963.147,225963.39999985695,225979.819,232246.471,1,40,,
trial,html.Screen,6_8_0,2023-11-27T18:32:32.986Z,,,,1,1.2253191093367526,1.241905252673026,,,true,ll,5363.428999856958,response,-1.2637655821850098,1.2,-1.2,-0.8883896910883083,1.2,-1.2,low,low,,ISIC_1195689.JPG,,ISIC_0032005.JPG,,359,true,0.4500000000000003,ll,keypress(f),0,false,237610,237609.89999985695,232229.729,232236.79999995232,232246.471,237613.117,1,40,9,
sequence,flow.Sequence,6_8,2023-11-27T18:32:32.986Z,,,,,,,,,,,5363.428999856958,completion,,,,,,,low,low,,,,,,,true,,,,,false,237610.09999990463,237609.89999985695,232229.729,232236.79999995232,232246.471,237613.117,1,40,,
trial,html.Screen,6_9_0,2023-11-27T18:32:39.004Z,,,,1,-1.0773466327271526,-1.1601445610079184,,,true,hh,6014.583000047685,response,1.252716660627398,1.2,-1.2,1.183977080937476,1.2,-1.2,high,high,,ISIC_0055169.JPG,,ISIC_0034194.JPG,,25,true,0.14,hh,keypress(i),0,false,243628,243627.70000004768,237596.566,237610.20000004768,237613.117,243646.873,1,40,10,
sequence,flow.Sequence,6_9,2023-11-27T18:32:39.004Z,,,,,,,,,,,6014.583000047685,completion,,,,,,,high,high,,,,,,,true,,,,,false,243628.39999985695,243627.70000004768,237596.566,237610.20000004768,237613.117,243646.873,1,40,,
trial,html.Screen,6_10_0,2023-11-27T18:32:48.233Z,,,,1,-1.045301444872812,1.0872560254441277,,,true,hl,9210.627000000008,response,0.7883321712536753,1.2,-1.2,-1.0011430756825364,1.2,-1.2,high,low,,ISIC_4507700.JPG,,ISIC_9828853.JPG,,26,true,0.4500000000000003,hl,keypress(j),0,false,252857.59999990463,252857.5,243613.099,243628.59999990463,243646.873,252863.096,1,40,11,
sequence,flow.Sequence,6_10,2023-11-27T18:32:48.233Z,,,,,,,,,,,9210.627000000008,completion,,,,,,,high,low,,,,,,,true,,,,,false,252857.70000004768,252857.5,243613.099,243628.59999990463,243646.873,252863.096,1,40,,
trial,html.Screen,6_11_0,2023-11-27T18:32:57.124Z,,,,1,0.8034318937720549,-1.0024917298189338,,,true,lh,8884.503999904642,response,-0.9089402323867112,1.2,-1.2,0.8034544077281132,1.2,-1.2,low,high,,ISIC_0032766.JPG,,ISIC_3585381.JPG,,27,true,0.40000000000000024,lh,keypress(e),0,false,261748,261747.59999990463,252846.261,252857.79999995232,252863.096,261763.047,1,40,12,
sequence,flow.Sequence,6_11,2023-11-27T18:32:57.124Z,,,,,,,,,,,8884.503999904642,completion,,,,,,,low,high,,,,,,,true,,,,,false,261748.70000004768,261747.59999990463,252846.261,252857.79999995232,252863.096,261763.047,1,40,,
trial,html.Screen,6_12_0,2023-11-27T18:33:02.811Z,,,,1,-0.8867328775712738,1.0063426986460375,,,true,hl,5672.252999952325,response,1.199471562817528,1.2,-1.2,-0.8631260534979347,1.2,-1.2,high,low,,ISIC_0055759.JPG,,ISIC_0030754.JPG,,26,true,0.4500000000000003,hl,keypress(j),0,false,267435.59999990463,267435.2999999523,261746.115,261749.09999990463,261763.047,267446.375,1,40,13,
sequence,flow.Sequence,6_12,2023-11-27T18:33:02.812Z,,,,,,,,,,,5672.252999952325,completion,,,,,,,high,low,,,,,,,true,,,,,false,267435.89999985695,267435.2999999523,261746.115,261749,261763.047,267446.375,1,40,,
trial,html.Screen,6_13_0,2023-11-27T18:33:11.795Z,,,,1,1.2054195059663604,-0.7760611240296147,,,true,lh,8972.625,response,-0.9662688541319592,1.2,-1.2,0.929746784178986,1.2,-1.2,low,high,,ISIC_8712559.JPG,,ISIC_0011077.JPG,,27,true,0.40000000000000024,lh,keypress(e),0,false,276419.2999999523,276419,267429.756,267436,267446.375,276429.708,1,40,14,
sequence,flow.Sequence,6_13,2023-11-27T18:33:11.795Z,,,,,,,,,,,8972.625,completion,,,,,,,low,high,,,,,,,true,,,,,false,276419.7000000477,276419,267429.756,267436,267446.375,276429.708,1,40,,
trial,html.Screen,6_14_0,2023-11-27T18:33:19.801Z,,,,1,-1.1243896694621007,-1.1772340944704969,,,true,hh,7995.691999856965,response,0.764893988285809,1.2,-1.2,1.055978100098093,1.2,-1.2,high,high,,ISIC_0062765.JPG,,ISIC_2077116.JPG,,265,true,0.4500000000000003,hh,keypress(i),0,false,284425.5,284425.39999985695,276412.894,276419.7999999523,276429.708,284429.634,1,40,15,
sequence,flow.Sequence,6_14,2023-11-27T18:33:19.801Z,,,,,,,,,,,7995.691999856965,completion,,,,,,,high,high,,,,,,,true,,,,,false,284425.59999990463,284425.39999985695,276412.894,276419.7999999523,276429.708,284429.634,1,40,,
trial,html.Screen,6_15_0,2023-11-27T18:33:24.403Z,,,,1,-1.266079261381142,-1.312161506160336,,,true,hh,4597.066000047664,response,1.0943527860463682,1.2,-1.2,1.124481746658104,1.2,-1.2,high,high,,ISIC_0065449.JPG,,ISIC_0438136.JPG,,25,true,0.14,hh,keypress(i),0,false,289027,289026.7000000477,284412.892,284425.59999990463,284429.634,289029.676,1,40,16,
sequence,flow.Sequence,6_15,2023-11-27T18:33:24.403Z,,,,,,,,,,,4597.066000047664,completion,,,,,,,high,high,,,,,,,true,,,,,false,289027.39999985695,289026.7000000477,284412.892,284425.59999990463,284429.634,289029.676,1,40,,
trial,html.Screen,6_16_0,2023-11-27T18:33:30.347Z,,,,1,-1.0849202097813322,-1.0851127310415287,,,true,hh,5941.123999952339,response,1.1870093485714288,1.2,-1.2,1.3339880978442629,1.2,-1.2,high,high,,ISIC_0010289.JPG,,ISIC_8592235.JPG,,25,true,0.14,hh,keypress(i),0,false,294971,294970.7999999523,289013.078,289027.59999990463,289029.676,294979.623,1,40,17,
sequence,flow.Sequence,6_16,2023-11-27T18:33:30.347Z,,,,,,,,,,,5941.123999952339,completion,,,,,,,high,high,,,,,,,true,,,,,false,294971.5,294970.7999999523,289013.078,289027.59999990463,289029.676,294979.623,1,40,,
trial,html.Screen,6_17_0,2023-11-27T18:33:36.460Z,,,,1,1.252716660627398,1.183977080937476,,,true,ll,6103.276999856927,response,-1.1048559518249943,1.2,-1.2,-1.2252457981338687,1.2,-1.2,low,low,,ISIC_0034194.JPG,,ISIC_0060817.JPG,,30,true,0.13,ll,keypress(f),0,false,301083.2000000477,301082.89999985695,294962.972,294971.7000000477,294979.623,301096.256,1,40,18,
sequence,flow.Sequence,6_17,2023-11-27T18:33:36.460Z,,,,,,,,,,,6103.276999856927,completion,,,,,,,low,low,,,,,,,true,,,,,false,301083.59999990463,301082.89999985695,294962.972,294971.59999990463,294979.623,301096.256,1,40,,
trial,html.Screen,6_18_0,2023-11-27T18:33:45.868Z,,,,1,1.0329549150636406,-1.01584100839286,,,true,lh,9395.244000000006,response,-0.9617893983965208,1.2,-1.2,0.9453006131304652,1.2,-1.2,low,high,,ISIC_0054670.JPG,,ISIC_4229473.JPG,,27,true,0.40000000000000024,lh,keypress(e),0,false,310491.59999990463,310491.5,301079.738,301083.7999999523,301096.256,310496.225,1,40,19,
sequence,flow.Sequence,6_18,2023-11-27T18:33:45.869Z,,,,,,,,,,,9395.244000000006,completion,,,,,,,low,high,,,,,,,true,,,,,false,310492.09999990463,310491.5,301079.738,301083.7000000477,301096.256,310496.225,1,40,,
trial,html.Screen,6_19_0,2023-11-27T18:33:53.571Z,,,,1,1.1684835186766898,1.2921331918483707,,,true,ll,7698.475000047707,response,-1.3776511372249582,1.2,-1.2,-0.7696109085687102,1.2,-1.2,low,low,,ISIC_5920470.JPG,,ISIC_1693572.JPG,,359,true,0.4500000000000003,ll,keypress(f),0,false,318195,318194.7000000477,310479.375,310492.2000000477,310496.225,318212.857,1,40,20,
sequence,flow.Sequence,6_19,2023-11-27T18:33:53.572Z,,,,,,,,,,,7698.475000047707,completion,,,,,,,low,low,,,,,,,true,,,,,false,318195.5,318194.7000000477,310479.375,310492.2000000477,310496.225,318212.857,1,40,,
trial,html.Screen,6_20_0,2023-11-27T18:33:54.787Z,,,,1,-0.9244148283103414,0.9712966348713286,,,false,hl,1197.7429999046144,response,0.8034318937720549,1.2,-1.2,-1.0024917298189338,1.2,-1.2,high,low,,ISIC_7927525.JPG,,ISIC_0032766.JPG,,26,true,0.4500000000000003,ll,keypress(f),0,false,319410.89999985695,319410.59999990463,318179.543,318195.59999990463,318212.857,319430.005,1,40,21,
sequence,flow.Sequence,6_20,2023-11-27T18:33:54.788Z,,,,,,,,,,,1197.7429999046144,completion,,,,,,,high,low,,,,,,,true,,,,,false,319411.2999999523,319410.59999990463,318179.543,318195.5,318212.857,319430.005,1,40,,
trial,html.Screen,6_21_0,2023-11-27T18:33:58.522Z,,,,1,-1.2691569063625474,-1.1264228993232308,,,true,hh,3715.4949999999953,response,1.3319935350898373,1.2,-1.2,0.8715393829038907,1.2,-1.2,high,high,,ISIC_4980656.JPG,,ISIC_9851899.JPG,,203,true,0.40000000000000024,hh,keypress(i),0,false,323145.59999990463,323145.5,319396.399,319411.39999985695,319430.005,323163.433,1,40,22,
sequence,flow.Sequence,6_21,2023-11-27T18:33:58.522Z,,,,,,,,,,,3715.4949999999953,completion,,,,,,,high,high,,,,,,,true,,,,,false,323145.7000000477,323145.5,319396.399,319411.2999999523,319430.005,323163.433,1,40,,
trial,html.Screen,6_22_0,2023-11-27T18:34:05.996Z,,,,1,1.3246728710248594,1.1527736000922424,,,true,ll,7456.066999999981,response,-1.268445326285509,1.2,-1.2,-1.173734476257662,1.2,-1.2,low,low,,ISIC_6876281.JPG,,ISIC_5216586.JPG,,30,true,0.13,ll,keypress(f),0,false,330619.7000000477,330619.5,323129.555,323145.7999999523,323163.433,330646.164,1,40,23,
sequence,flow.Sequence,6_22,2023-11-27T18:34:05.997Z,,,,,,,,,,,7456.066999999981,completion,,,,,,,low,low,,,,,,,true,,,,,false,330620.09999990463,330619.5,323129.555,323145.7999999523,323163.433,330646.164,1,40,,
trial,html.Screen,6_23_0,2023-11-27T18:34:11.331Z,,,,1,1.2578167348825195,-0.8371819698254004,,,true,lh,5308.235999856959,response,-1.0685314915436992,1.2,-1.2,0.8203833713472237,1.2,-1.2,low,high,,ISIC_9613570.JPG,,ISIC_0029374.JPG,,27,true,0.40000000000000024,lh,keypress(e),0,false,335954.7000000477,335954.39999985695,330612.892,330620.2999999523,330646.164,335962.857,1,40,24,
sequence,flow.Sequence,6_23,2023-11-27T18:34:11.332Z,,,,,,,,,,,5308.235999856959,completion,,,,,,,low,high,,,,,,,true,,,,,false,335955,335954.39999985695,330612.892,330620.2000000477,330646.164,335962.857,1,40,,
trial,html.Screen,6_24_0,2023-11-27T18:34:17.274Z,,,,1,-1.1048559518249943,-1.2252457981338687,,,true,hh,5934.942999952298,response,0.8044219203899928,1.2,-1.2,0.7681076927463542,1.2,-1.2,high,high,,ISIC_0060817.JPG,,ISIC_0028768.JPG,,265,true,0.4500000000000003,hh,keypress(i),0,false,341898,341897.7999999523,335946.27,335955.2000000477,335962.857,341912.811,1,40,25,
sequence,flow.Sequence,6_24,2023-11-27T18:34:17.275Z,,,,,,,,,,,5934.942999952298,completion,,,,,,,high,high,,,,,,,true,,,,,false,341898.09999990463,341897.7999999523,335946.27,335955.2000000477,335962.857,341912.811,1,40,,
trial,html.Screen,6_25_0,2023-11-27T18:34:23.883Z,,,,1,1.075512775389519,-1.0454702683049502,,,true,lh,6593.588999856962,response,-0.9633172970727744,1.2,-1.2,0.8472659344792351,1.2,-1.2,low,high,,ISIC_0033603.JPG,,ISIC_0067172.JPG,,27,true,0.40000000000000024,lh,keypress(e),0,false,348506.7000000477,348506.39999985695,341896.132,341898.2000000477,341912.811,348512.814,1,40,26,
sequence,flow.Sequence,6_25,2023-11-27T18:34:23.884Z,,,,,,,,,,,6593.588999856962,completion,,,,,,,low,high,,,,,,,true,,,,,false,348507.09999990463,348506.39999985695,341896.132,341898.2000000477,341912.811,348512.814,1,40,,
trial,html.Screen,6_26_0,2023-11-27T18:34:27.716Z,,,,1,1.0329549150636406,-1.01584100839286,,,true,lh,3826.7859999046195,response,-1.0788024398087033,1.2,-1.2,0.9911875460374616,1.2,-1.2,low,high,,ISIC_0054670.JPG,,ISIC_5951430.JPG,,40,true,0.4500000000000003,lh,keypress(e),0,false,352339.89999985695,352339.59999990463,348496.04,348507.2999999523,348512.814,352346.114,1,40,27,
sequence,flow.Sequence,6_26,2023-11-27T18:34:27.717Z,,,,,,,,,,,3826.7859999046195,completion,,,,,,,low,high,,,,,,,true,,,,,false,352340.39999985695,352339.59999990463,348496.04,348507.2999999523,348512.814,352346.114,1,40,,
trial,html.Screen,6_27_0,2023-11-27T18:34:36.756Z,,,,1,-1.045301444872812,1.0872560254441277,,,true,hl,9032.485999904631,response,0.989300717252516,1.2,-1.2,-0.7908280206937478,1.2,-1.2,high,low,,ISIC_4507700.JPG,,ISIC_6416533.JPG,,26,true,0.4500000000000003,hl,keypress(j),0,false,361378.89999985695,361378.59999990463,352329.497,352340.59999990463,352346.114,361396.267,1,40,28,
sequence,flow.Sequence,6_27,2023-11-27T18:34:36.757Z,,,,,,,,,,,9032.485999904631,completion,,,,,,,high,low,,,,,,,true,,,,,false,361379.2999999523,361378.59999990463,352329.497,352340.5,352346.114,361396.267,1,40,,
trial,html.Screen,6_28_0,2023-11-27T18:34:40.909Z,,,,1,-1.1441767540243375,-1.0949087392471728,,,true,hh,4135.233000000007,response,0.82868450251632,1.2,-1.2,1.2407642249743125,1.2,-1.2,high,high,,ISIC_0054146.JPG,,ISIC_0010671.JPG,,203,true,0.40000000000000024,hh,keypress(i),0,false,365531.7000000477,365531.5,361379.409,361379.39999985695,361396.267,365546.084,1,40,29,
sequence,flow.Sequence,6_28,2023-11-27T18:34:40.909Z,,,,,,,,,,,4135.233000000007,completion,,,,,,,high,high,,,,,,,true,,,,,false,365532.2000000477,365531.5,361379.409,361379.2999999523,361396.267,365546.084,1,40,,
trial,html.Screen,6_29_0,2023-11-27T18:34:48.539Z,,,,1,-0.90812608370647,1.2720026872926935,,,true,hl,7615.315999856975,response,0.9754077946987664,1.2,-1.2,-1.1821868813141057,1.2,-1.2,high,low,,ISIC_0450295.JPG,,ISIC_0024317.JPG,,26,true,0.4500000000000003,hl,keypress(j),0,false,373161.59999990463,373161.39999985695,365529.424,365532.39999985695,365546.084,373180.386,1,40,30,
sequence,flow.Sequence,6_29,2023-11-27T18:34:48.539Z,,,,,,,,,,,7615.315999856975,completion,,,,,,,high,low,,,,,,,true,,,,,false,373161.7000000477,373161.39999985695,365529.424,365532.39999985695,365546.084,373180.386,1,40,,
trial,html.Screen,6_30_0,2023-11-27T18:34:55.460Z,,,,1,-1.2020012168275056,0.923753102263735,,,true,hl,6901.913999952318,response,0.8034318937720549,1.2,-1.2,-1.0024917298189338,1.2,-1.2,high,low,,ISIC_0000022.JPG,,ISIC_0032766.JPG,,26,true,0.4500000000000003,hl,keypress(j),0,false,380082.2999999523,380082.2999999523,373145.854,373161.7000000477,373180.386,380112.727,1,40,31,
sequence,flow.Sequence,6_30,2023-11-27T18:34:55.460Z,,,,,,,,,,,6901.913999952318,completion,,,,,,,high,low,,,,,,,true,,,,,false,380082.59999990463,380082.2999999523,373145.854,373161.7000000477,373180.386,380112.727,1,40,,
trial,html.Screen,6_31_0,2023-11-27T18:34:58.532Z,,,,1,-0.8500530224490773,1.0893360711742854,,,true,hl,3041.7729999999865,response,0.9754077946987664,1.2,-1.2,-1.1821868813141057,1.2,-1.2,high,low,,ISIC_2998367.JPG,,ISIC_0024317.JPG,,26,true,0.4500000000000003,hl,keypress(j),0,false,383154.7000000477,383154.5,380079.44,380082.7000000477,380112.727,383162.708,1,40,32,
sequence,flow.Sequence,6_31,2023-11-27T18:34:58.532Z,,,,,,,,,,,3041.7729999999865,completion,,,,,,,high,low,,,,,,,true,,,,,false,383155.09999990463,383154.5,380079.44,380082.7000000477,380112.727,383162.708,1,40,,
trial,html.Screen,6_32_0,2023-11-27T18:35:00.123Z,,,,1,-0.9244148283103414,0.9712966348713286,,,true,hl,1582.4920000476995,response,0.7518277461369444,1.2,-1.2,-1.3860759020802074,1.2,-1.2,high,low,,ISIC_7927525.JPG,,ISIC_7967397.JPG,,26,true,0.4500000000000003,hl,keypress(j),0,false,384745.39999985695,384745.2000000477,383145.972,383155.2999999523,383162.708,384763.495,1,40,33,
sequence,flow.Sequence,6_32,2023-11-27T18:35:00.123Z,,,,,,,,,,,1582.4920000476995,completion,,,,,,,high,low,,,,,,,true,,,,,false,384745.5,384745.2000000477,383145.972,383155.2000000477,383162.708,384763.495,1,40,,
trial,html.Screen,6_33_0,2023-11-27T18:35:05.532Z,,,,1,1.2246024683501224,1.2904526351590244,,,true,ll,5391.205000047688,response,-0.8721011160837115,1.2,-1.2,-0.9005344308932209,1.2,-1.2,low,low,,ISIC_4730066.JPG,,ISIC_0025744.JPG,,288,true,0.40000000000000024,ll,keypress(f),0,false,390155,390154.7000000477,384729.497,384745.59999990463,384763.495,390179.339,1,40,34,
sequence,flow.Sequence,6_33,2023-11-27T18:35:05.533Z,,,,,,,,,,,5391.205000047688,completion,,,,,,,low,low,,,,,,,true,,,,,false,390155.39999985695,390154.7000000477,384729.497,384745.59999990463,384763.495,390179.339,1,40,,
trial,html.Screen,6_34_0,2023-11-27T18:35:11.548Z,,,,1,1.2362557973341337,-1.2548266183352603,,,true,lh,5990.861000047706,response,-0.8307508446051526,1.2,-1.2,1.1707575338936729,1.2,-1.2,low,high,,ISIC_0033886.JPG,,ISIC_0028606.JPG,,27,true,0.40000000000000024,lh,keypress(e),0,false,396170.39999985695,396170.2000000477,390146.118,390155.5,390179.339,396179.351,1,40,35,
sequence,flow.Sequence,6_34,2023-11-27T18:35:11.548Z,,,,,,,,,,,5990.861000047706,completion,,,,,,,low,high,,,,,,,true,,,,,false,396170.89999985695,396170.2000000477,390146.118,390155.5,390179.339,396179.351,1,40,,
trial,html.Screen,6_35_0,2023-11-27T18:35:17.148Z,,,,1,-0.9544693251394116,1.0727539917203766,,,true,hl,5591.148999999976,response,0.8830264383952469,1.2,-1.2,-0.8635562538060516,1.2,-1.2,high,low,,ISIC_0055147.JPG,,ISIC_0032258.JPG,,26,true,0.4500000000000003,hl,keypress(j),0,false,401770.7999999523,401770.5,396162.517,396171.09999990463,396179.351,401779.343,1,40,36,
sequence,flow.Sequence,6_35,2023-11-27T18:35:17.148Z,,,,,,,,,,,5591.148999999976,completion,,,,,,,high,low,,,,,,,true,,,,,false,401771.2000000477,401770.5,396162.517,396171.09999990463,396179.351,401779.343,1,40,,
trial,html.Screen,6_36_0,2023-11-27T18:35:19.571Z,,,,1,-1.0769708994456726,-1.2196503533725178,,,false,hh,2414.256999904639,response,0.9249180304825352,1.2,-1.2,0.9557254346276748,1.2,-1.2,high,high,,ISIC_0063824.JPG,,ISIC_6778515.JPG,,203,true,0.40000000000000024,hl,keypress(j),0,false,404193.7000000477,404193.59999990463,401762.549,401771.2999999523,401779.343,404195.968,1,40,37,
sequence,flow.Sequence,6_36,2023-11-27T18:35:19.571Z,,,,,,,,,,,2414.256999904639,completion,,,,,,,high,high,,,,,,,true,,,,,false,404193.89999985695,404193.59999990463,401762.549,401771.2000000477,401779.343,404195.968,1,40,,
trial,html.Screen,6_37_0,2023-11-27T18:35:23.971Z,,,,1,1.3379750533585932,1.1671342614509763,,,true,ll,4397.5320000000065,response,-1.14454137020797,1.2,-1.2,-1.1082302786512033,1.2,-1.2,low,low,,ISIC_0063556.JPG,,ISIC_0065128.JPG,,30,true,0.13,ll,keypress(f),0,false,408593.5,408593.5,404179.412,404193.89999985695,404195.968,408596.011,1,40,38,
sequence,flow.Sequence,6_37,2023-11-27T18:35:23.971Z,,,,,,,,,,,4397.5320000000065,completion,,,,,,,low,low,,,,,,,true,,,,,false,408593.7999999523,408593.5,404179.412,404193.89999985695,404195.968,408596.011,1,40,,
trial,html.Screen,6_38_0,2023-11-27T18:35:31.284Z,,,,1,1.0659165756604234,1.0867497316848906,,,true,ll,7310.38899985695,response,-1.1936751736668425,1.2,-1.2,-1.2584308630745344,1.2,-1.2,low,low,,ISIC_5807608.JPG,,ISIC_0061265.JPG,,40,true,0.14,ll,keypress(f),0,false,415906.7000000477,415906.39999985695,408579.432,408593.7999999523,408596.011,415912.631,1,40,39,
sequence,flow.Sequence,6_38,2023-11-27T18:35:31.284Z,,,,,,,,,,,7310.38899985695,completion,,,,,,,low,low,,,,,,,true,,,,,false,415907.09999990463,415906.39999985695,408579.432,408593.7999999523,408596.011,415912.631,1,40,,
trial,html.Screen,6_39_0,2023-11-27T18:35:36.381Z,,,,1,-1.266079261381142,-1.312161506160336,,,true,hh,5089.768999856955,response,1.2219550761700546,1.2,-1.2,1.2809901875733454,1.2,-1.2,high,high,,ISIC_0065449.JPG,,ISIC_6463417.JPG,,25,true,0.14,hh,keypress(i),0,false,421002.7999999523,421002.39999985695,415895.868,415907.39999985695,415912.631,421012.608,1,40,40,
sequence,flow.Sequence,6_39,2023-11-27T18:35:36.381Z,,,,,,,,,,,5089.768999856955,completion,,,,,,,high,high,,,,,,,true,,,,,false,421003.2000000477,421002.39999985695,415895.868,415907.2999999523,415912.631,421012.608,1,40,,
practice_loop,flow.Loop,6,2023-11-27T18:35:36.381Z,,,,,,,,,,,255855.76599985696,completion,,,,,,,,,,,,,,,true,,,,,false,421003.5,421002.39999985695,165113.593,165129,165146.634,421012.608,1,40,,
stair_instructions,html.Screen,7,2023-11-27T18:35:45.987Z,,,,,,,,,,,9595.391999999993,response,,,,,,,,,,,,,,,,,continue,click button,,,430608.5,430608,420995.799,421003.59999990463,421012.608,430629.226,,,,
trial,html.Screen,8_0_0,2023-11-27T18:35:57.189Z,,,,2,-0.0065172941585523,0.0118857043117315,,0.04,false,lh,11181.873999904608,response,-1.0685314915436992,1.2,-1.2,0.8203833713472237,1.2,-1.2,low,high,,ISIC_6119202.JPG,,ISIC_0029374.JPG,28,27,false,0.40000000000000024,ll,keypress(f),0,true,441811.39999985695,441811.09999990463,430596.13,430608.59999990463,430629.226,441829.209,1,40,1,
sequence,flow.Sequence,8_0,2023-11-27T18:35:57.190Z,,,,,,,,,,,11181.873999904608,completion,,,,,,,low,high,,,,,,,false,,,,,true,441811.7000000477,441811.09999990463,430596.13,430608.59999990463,430629.226,441829.209,1,40,,
trial,html.Screen,8_1_0,2023-11-27T18:36:07.645Z,,,,2,0.0009714874637896,-0.0174815595031679,,0.04,false,hl,10437.39099990466,response,0.9653573371180936,1.15,-1.15,-0.854766800381037,1.2,-1.15,high,low,,ISIC_9848743.JPG,,ISIC_9640145.JPG,28,26,false,0.40000000000000024,ll,keypress(f),0,true,452266.89999985695,452266.59999990463,441812.589,441811.89999985695,441829.209,452279.263,1,40,2,
sequence,flow.Sequence,8_1,2023-11-27T18:36:07.645Z,,,,,,,,,,,10437.39099990466,completion,,,,,,,high,low,,,,,,,false,,,,,true,452267.39999985695,452266.59999990463,441812.589,441811.89999985695,441829.209,452279.263,1,40,,
trial,html.Screen,8_2_0,2023-11-27T18:36:13.908Z,,,,2,-0.0074667911845194,0.018500200317654,,0.04,true,ll,6250.9370000477065,response,-1.0887084502656488,1.15,-1.15,-1.0539327766106836,1.15,-1.15,low,low,,ISIC_0058723.JPG,,ISIC_0030417.JPG,28,27,false,0.1,ll,keypress(f),0,true,458530.39999985695,458530.2000000477,452262.419,452267.5,452279.263,458545.828,1,40,3,
sequence,flow.Sequence,8_2,2023-11-27T18:36:13.909Z,,,,,,,,,,,6250.9370000477065,completion,,,,,,,low,low,,,,,,,false,,,,,true,458530.7999999523,458530.2000000477,452262.419,452267.5,452279.263,458545.828,1,40,,
trial,html.Screen,8_3_0,2023-11-27T18:36:21.852Z,,,,2,0.0367744112927588,0.0324865661712824,,0.04,false,lh,7927.872000047704,response,-0.6761608723588025,1.15,-0.9043497884958602,1.0058174828582729,1.15,-0.9043497884958602,low,high,,ISIC_4523565.JPG,,ISIC_1343302.JPG,28,29,false,0.2500000000000001,hh,keypress(i),0,true,466473.7000000477,466473.7000000477,458529.108,458531,458545.828,466479.162,1,40,4,
sequence,flow.Sequence,8_3,2023-11-27T18:36:21.852Z,,,,,,,,,,,7927.872000047704,completion,,,,,,,low,high,,,,,,,false,,,,,true,466473.7999999523,466473.7000000477,458529.108,458530.89999985695,458545.828,466479.162,1,40,,
trial,html.Screen,8_4_0,2023-11-27T18:36:29.924Z,,,,2,-0.039520186367207,-0.0377961575607372,,0.04,true,hh,8066.937999904621,response,1.0777929856705222,1.15,-0.9543497884958603,1.0139833925057518,1.15,-0.9043497884958602,high,high,,ISIC_6356149.JPG,,ISIC_6171084.JPG,28,27,false,0.14,hh,keypress(i),0,true,474546.2000000477,474546.09999990463,466462.479,466473.7999999523,466479.162,474562.636,1,40,5,
sequence,flow.Sequence,8_4,2023-11-27T18:36:29.924Z,,,,,,,,,,,8066.937999904621,completion,,,,,,,high,high,,,,,,,false,,,,,true,474546.2999999523,474546.09999990463,466462.479,466473.7999999523,466479.162,474562.636,1,40,,
trial,html.Screen,8_5_0,2023-11-27T18:36:43.598Z,,,,2,0.0220026381002083,-0.0170756452911772,,0.04,false,hh,13656.26399985695,response,1.151139267005652,1.15,-0.9543497884958603,1.0838749490501327,0.9958881890881368,-0.9043497884958602,high,high,,ISIC_5347806.JPG,,ISIC_0002566.JPG,28,27,false,0.12,ll,keypress(f),0,true,488219.39999985695,488218.89999985695,474545.821,474546.39999985695,474562.636,488229.113,1,40,6,
sequence,flow.Sequence,8_5,2023-11-27T18:36:43.599Z,,,,,,,,,,,13656.26399985695,completion,,,,,,,high,high,,,,,,,false,,,,,true,488219.7000000477,488218.89999985695,474545.821,474546.2999999523,474562.636,488229.113,1,40,,
trial,html.Screen,8_6_0,2023-11-27T18:36:49.660Z,,,,2,0.0009714874637896,-0.0174815595031679,,0.04,false,hh,6052.4869999046205,response,1.151139267005652,1.15,-0.9543497884958603,1.0838749490501327,1.0458881890881369,-0.9043497884958602,high,high,,ISIC_9848743.JPG,,ISIC_0002566.JPG,28,29,false,0.13,ll,keypress(f),0,true,494281.59999990463,494281.59999990463,488212.135,488220,488229.113,494295.769,1,40,7,
sequence,flow.Sequence,8_6,2023-11-27T18:36:49.661Z,,,,,,,,,,,6052.4869999046205,completion,,,,,,,high,high,,,,,,,false,,,,,true,494281.7999999523,494281.59999990463,488212.135,488219.89999985695,488229.113,494295.769,1,40,,
trial,html.Screen,8_7_0,2023-11-27T18:37:00.996Z,,,,2,0.0119001144851157,-0.0063430114540141,,0.04,false,lh,11321.530999952345,response,-1.2020012168275056,1.15,-0.9543497884958603,0.923753102263735,1.095888189088137,-0.9043497884958602,low,high,,ISIC_0003822.JPG,,ISIC_0000022.JPG,28,28,false,0.2600000000000001,hl,keypress(j),0,true,505617.2999999523,505617.2999999523,494279.031,494281.7999999523,494295.769,505629.216,1,40,8,
sequence,flow.Sequence,8_7,2023-11-27T18:37:00.996Z,,,,,,,,,,,11321.530999952345,completion,,,,,,,low,high,,,,,,,false,,,,,true,505617.5,505617.2999999523,494279.031,494281.7999999523,494295.769,505629.216,1,40,,
trial,html.Screen,8_8_0,2023-11-27T18:37:07.820Z,,,,2,0.0308384937406319,-0.0038396364323947,,0.04,true,ll,6812.083999952301,response,-0.9179483069507334,1.15,-1.0043497884958603,-0.8157414137646586,1.145888189088137,-0.9043497884958602,low,low,,ISIC_0029825.JPG,,ISIC_0032892.JPG,28,36,false,0.1,ll,keypress(f),0,true,512441.39999985695,512441.2999999523,505612.222,505617.59999990463,505629.216,512445.699,1,40,9,
sequence,flow.Sequence,8_8,2023-11-27T18:37:07.820Z,,,,,,,,,,,6812.083999952301,completion,,,,,,,low,low,,,,,,,false,,,,,true,512441.5,512441.2999999523,505612.222,505617.59999990463,505629.216,512445.699,1,40,,
trial,html.Screen,8_9_0,2023-11-27T18:37:10.997Z,,,,2,0.0258224118104549,-0.0029364553353019,,0.04,true,ll,3172.7009998569265,response,-0.9500911450995304,1.15,-1.0043497884958603,-0.8685004638027202,1.145888189088137,-0.9043497884958602,low,low,,ISIC_8325226.JPG,,ISIC_0011094.JPG,28,36,false,0.1,ll,keypress(f),0,true,515618.59999990463,515618.39999985695,512428.995,512441.5,512445.699,515629.025,1,40,10,
sequence,flow.Sequence,8_9,2023-11-27T18:37:10.998Z,,,,,,,,,,,3172.7009998569265,completion,,,,,,,low,low,,,,,,,false,,,,,true,515619.09999990463,515618.39999985695,512428.995,512441.5,512445.699,515629.025,1,40,,
trial,html.Screen,8_10_0,2023-11-27T18:37:22.518Z,,,,2,0.0220026381002083,-0.0170756452911772,,0.04,false,hl,11509.374999856926,response,1.1797246542163315,1.15,-0.7921209387836894,-0.5881499989296397,1.145888189088137,-0.7921209387836894,high,low,,ISIC_5347806.JPG,,ISIC_0031741.JPG,28,26,false,0.2300000000000001,hh,keypress(i),0,true,527138.7000000477,527138.399999857,515612.522,515619.2999999523,515629.025,527145.662,1,40,11,
sequence,flow.Sequence,8_10,2023-11-27T18:37:22.518Z,,,,,,,,,,,11509.374999856926,completion,,,,,,,high,low,,,,,,,false,,,,,true,527139.2000000477,527138.399999857,515612.522,515619.2000000477,515629.025,527145.662,1,40,,
trial,html.Screen,8_11_0,2023-11-27T18:37:30.636Z,,,,2,-0.0199950873045219,-0.0172506388509166,,0.04,false,lh,8111.937999904621,response,-0.678931451947854,1.15,-0.7921209387836894,0.9976887721741746,1.145888189088137,-0.8421209387836894,low,high,,ISIC_0029906.JPG,,ISIC_1137915.JPG,28,28,false,0.22000000000000008,hh,keypress(i),0,true,535257.7000000477,535257.5999999046,527128.613,527139.399999857,527145.662,535262.303,1,40,12,
sequence,flow.Sequence,8_11,2023-11-27T18:37:30.637Z,,,,,,,,,,,8111.937999904621,completion,,,,,,,low,high,,,,,,,false,,,,,true,535257.7999999523,535257.5999999046,527128.613,527139.2999999523,527145.662,535262.303,1,40,,
trial,html.Screen,8_12_0,2023-11-27T18:37:42.694Z,,,,2,0.0076984477620101,0.0069458408496562,,0.04,false,lh,12051.796999904676,response,-0.6493357552537865,1.15,-0.8421209387836894,1.085710894474977,1.145888189088137,-0.8421209387836894,low,high,,ISIC_0000434.JPG,,ISIC_0013644.JPG,28,25,false,0.22000000000000008,ll,keypress(f),0,true,547314.5,547314.0999999046,535245.61,535257.899999857,535262.303,547328.94,1,40,13,
sequence,flow.Sequence,8_12,2023-11-27T18:37:42.694Z,,,,,,,,,,,12051.796999904676,completion,,,,,,,low,high,,,,,,,false,,,,,true,547314.899999857,547314.0999999046,535245.61,535257.899999857,535262.303,547328.94,1,40,,
trial,html.Screen,8_13_0,2023-11-27T18:37:51.951Z,,,,2,-0.0088741920055285,-0.0058246074740588,,0.04,true,hh,9242.159999904688,response,1.1870093485714288,1.15,-0.8421209387836894,1.3339880978442629,1.195888189088137,-0.8421209387836894,high,high,,ISIC_4136663.JPG,,ISIC_8592235.JPG,28,25,false,0.14,hh,keypress(i),0,true,556571.399999857,556571.0999999046,547311.974,547315,547328.94,556578.923,1,40,14,
sequence,flow.Sequence,8_13,2023-11-27T18:37:51.951Z,,,,,,,,,,,9242.159999904688,completion,,,,,,,high,high,,,,,,,false,,,,,true,556571.7999999523,556571.0999999046,547311.974,547315,547328.94,556578.923,1,40,,
trial,html.Screen,8_14_0,2023-11-27T18:37:56.670Z,,,,2,-0.0199950873045219,-0.0172506388509166,,0.04,true,hh,4711.277000047732,response,1.274417010249866,1.1604987232078456,-0.8421209387836894,1.0725495669014795,1.195888189088137,-0.8421209387836894,high,high,,ISIC_0029906.JPG,,ISIC_8849004.JPG,28,27,false,0.15000000000000002,hh,keypress(i),0,true,561290.5,561290.2000000477,556561.963,556572,556578.923,561295.565,1,40,15,
sequence,flow.Sequence,8_14,2023-11-27T18:37:56.670Z,,,,,,,,,,,4711.277000047732,completion,,,,,,,high,high,,,,,,,false,,,,,true,561290.899999857,561290.2000000477,556561.963,556571.899999857,556578.923,561295.565,1,40,,
trial,html.Screen,8_15_0,2023-11-27T18:38:07.444Z,,,,2,0.0283578106329894,-0.0088840758711548,,0.04,true,ll,10768.734999952372,response,-0.7544107015739535,1.1604987232078456,-0.8421209387836894,-0.781438724006539,1.1234832885756727,-0.8421209387836894,low,low,,ISIC_0060707.JPG,,ISIC_0021271.JPG,28,56,false,0.1,ll,keypress(f),0,true,572064.399999857,572064.2999999523,561279.003,561291.0999999046,561295.565,572078.887,1,40,16,
sequence,flow.Sequence,8_15,2023-11-27T18:38:07.444Z,,,,,,,,,,,10768.734999952372,completion,,,,,,,low,low,,,,,,,false,,,,,true,572064.399999857,572064.2999999523,561279.003,561291.0999999046,561295.565,572078.887,1,40,,
trial,html.Screen,8_16_0,2023-11-27T18:38:15.031Z,,,,2,-0.0388181790775959,0.0049623405709465,,0.04,false,ll,7572.212999904645,response,-0.8145814609211571,1.1604987232078456,-0.7179247127902462,-0.7591292272911163,1.1234832885756727,-0.8421209387836894,low,low,,ISIC_0061880.JPG,,ISIC_0011434.JPG,28,71,false,0.1,lh,keypress(e),0,true,579651.2999999523,579651.0999999046,572062.076,572064.5,572078.887,579662.169,1,40,17,
sequence,flow.Sequence,8_16,2023-11-27T18:38:15.031Z,,,,,,,,,,,7572.212999904645,completion,,,,,,,low,low,,,,,,,false,,,,,true,579651.7999999523,579651.0999999046,572062.076,572064.5,572078.887,579662.169,1,40,,
trial,html.Screen,8_17_0,2023-11-27T18:38:21.582Z,,,,2,0.0308384937406319,-0.0038396364323947,,0.04,true,hh,6540.230999856954,response,1.2946277435220357,1.1604987232078456,-0.7179247127902462,1.255157480204324,1.1234832885756727,-0.8921209387836895,high,high,,ISIC_0029825.JPG,,ISIC_1870309.JPG,28,26,false,0.14,hh,keypress(i),0,true,586202.7000000477,586202.399999857,579645.282,579652,579662.169,586212.168,1,40,18,
sequence,flow.Sequence,8_17,2023-11-27T18:38:21.583Z,,,,,,,,,,,6540.230999856954,completion,,,,,,,high,high,,,,,,,false,,,,,true,586203.0999999046,586202.399999857,579645.282,579651.899999857,579662.169,586212.168,1,40,,
trial,html.Screen,8_18_0,2023-11-27T18:38:26.135Z,,,,2,0.0009714874637896,-0.0174815595031679,,0.04,false,hl,4542.832000000053,response,1.0369885917487718,1.1748926118631797,-0.7179247127902462,-0.8486937878412699,1.1234832885756727,-0.8921209387836895,high,low,,ISIC_9848743.JPG,,ISIC_6917681.JPG,28,28,false,0.30000000000000016,ll,keypress(f),0,true,590755.2000000477,590755,586195.343,586203.2999999523,586212.168,590762.151,1,40,19,
sequence,flow.Sequence,8_18,2023-11-27T18:38:26.135Z,,,,,,,,,,,4542.832000000053,completion,,,,,,,high,low,,,,,,,false,,,,,true,590755.5999999046,590755,586195.343,586203.2999999523,586212.168,590762.151,1,40,,
trial,html.Screen,8_19_0,2023-11-27T18:38:33.326Z,,,,2,0.0076984477620101,0.0069458408496562,,0.04,false,hl,7183.148999952362,response,0.930804711032185,1.1748926118631797,-0.7179247127902462,-0.7294067991476295,1.1234832885756727,-0.8921209387836895,high,low,,ISIC_0000434.JPG,,ISIC_5067317.JPG,28,28,false,0.30000000000000016,lh,keypress(e),0,true,597945.5,597945.2999999523,590745.461,590755.7999999523,590762.151,597962.12,1,40,20,
sequence,flow.Sequence,8_19,2023-11-27T18:38:33.326Z,,,,,,,,,,,7183.148999952362,completion,,,,,,,high,low,,,,,,,false,,,,,true,597945.7000000477,597945.2999999523,590745.461,590755.7000000477,590762.151,597962.12,1,40,,
trial,html.Screen,8_20_0,2023-11-27T18:38:43.583Z,,,,2,0.0009714874637896,-0.0174815595031679,,0.04,false,hl,10240.080000047688,response,1.0453124399868816,1.1748926118631797,-0.7179247127902462,-0.8986747280184286,1.1234832885756727,-0.9421209387836895,high,low,,ISIC_9848743.JPG,,ISIC_0013967.JPG,28,26,false,0.30000000000000016,ll,keypress(f),0,true,608202.399999857,608202.2000000477,597945.374,597945.899999857,597962.12,608212.105,1,40,21,
sequence,flow.Sequence,8_20,2023-11-27T18:38:43.583Z,,,,,,,,,,,10240.080000047688,completion,,,,,,,high,low,,,,,,,false,,,,,true,608202.7999999523,608202.2000000477,597945.374,597945.899999857,597962.12,608212.105,1,40,,
trial,html.Screen,8_21_0,2023-11-27T18:38:53.390Z,,,,2,-0.0065172941585523,0.0118857043117315,,0.04,false,hl,9797.794999856967,response,1.2054195059663604,1.1748926118631797,-0.7179247127902462,-0.7760611240296147,1.1234832885756727,-0.9421209387836895,high,low,,ISIC_6119202.JPG,,ISIC_8712559.JPG,28,26,false,0.30000000000000016,hh,keypress(i),0,true,618010.2000000477,618009.899999857,608195.073,608203,608212.105,618029.368,1,40,22,
sequence,flow.Sequence,8_21,2023-11-27T18:38:53.391Z,,,,,,,,,,,9797.794999856967,completion,,,,,,,high,low,,,,,,,false,,,,,true,618010.5999999046,618009.899999857,608195.073,608203,608212.105,618029.368,1,40,,
trial,html.Screen,8_22_0,2023-11-27T18:38:57.615Z,,,,2,-0.0388181790775959,0.0049623405709465,,0.04,false,lh,4204.731999904616,response,-0.6284406742939498,1.1748926118631797,-0.7179247127902462,0.9882196642247332,1.1234832885756727,-0.9921209387836896,low,high,,ISIC_0061880.JPG,,ISIC_0014255.JPG,28,27,false,0.20000000000000007,ll,keypress(f),0,true,622234.399999857,622234.0999999046,617995.113,618010.7999999523,618029.368,622245.455,1,40,23,
sequence,flow.Sequence,8_22,2023-11-27T18:38:57.615Z,,,,,,,,,,,4204.731999904616,completion,,,,,,,low,high,,,,,,,false,,,,,true,622234.7999999523,622234.0999999046,617995.113,618010.7999999523,618029.368,622245.455,1,40,,
trial,html.Screen,8_23_0,2023-11-27T18:39:02.455Z,,,,2,-0.0088741920055285,-0.0058246074740588,,0.04,false,hh,4828.6449999046745,response,1.2219550761700546,1.1748926118631797,-0.6679247127902461,1.2809901875733454,1.1734832885756727,-0.9921209387836896,high,high,,ISIC_4136663.JPG,,ISIC_6463417.JPG,28,26,false,0.15000000000000002,ll,keypress(f),0,true,627074.399999857,627074.0999999046,622228.727,622234.899999857,622245.455,627095.417,1,40,24,
sequence,flow.Sequence,8_23,2023-11-27T18:39:02.455Z,,,,,,,,,,,4828.6449999046745,completion,,,,,,,high,high,,,,,,,false,,,,,true,627074.7000000477,627074.0999999046,622228.727,622234.899999857,622245.455,627095.417,1,40,,
trial,html.Screen,8_24_0,2023-11-27T18:39:10.735Z,,,,2,0.0286056110007553,0.036125199756515,,0.04,false,lh,8258.682999904617,response,-0.6545252668717846,1.1748926118631797,-0.6679247127902461,1.2205481992327876,1.1734832885756727,-0.9921209387836896,low,high,,ISIC_6535558.JPG,,ISIC_9927221.JPG,28,27,false,0.19000000000000006,ll,keypress(f),0,true,635354.2999999523,635354.0999999046,627062.151,627074.899999857,627095.417,635362.032,1,40,25,
sequence,flow.Sequence,8_24,2023-11-27T18:39:10.735Z,,,,,,,,,,,8258.682999904617,completion,,,,,,,low,high,,,,,,,false,,,,,true,635354.7000000477,635354.0999999046,627062.151,627074.899999857,627095.417,635362.032,1,40,,
trial,html.Screen,8_25_0,2023-11-27T18:39:20.096Z,,,,2,-0.0199950873045219,-0.0172506388509166,,0.04,false,lh,9352.867999856942,response,-0.6545252668717846,1.1748926118631797,-0.6679247127902461,1.2205481992327876,1.1734832885756727,-0.9921209387836896,low,high,,ISIC_0029906.JPG,,ISIC_9927221.JPG,28,27,false,0.19000000000000006,hh,keypress(i),0,true,644715.2999999523,644714.899999857,635345.361,635355,635362.032,644728.767,1,40,26,
sequence,flow.Sequence,8_25,2023-11-27T18:39:20.096Z,,,,,,,,,,,9352.867999856942,completion,,,,,,,low,high,,,,,,,false,,,,,true,644715.899999857,644714.899999857,635345.361,635354.7999999523,635362.032,644728.767,1,40,,
trial,html.Screen,8_26_0,2023-11-27T18:39:28.487Z,,,,2,0.0283578106329894,-0.0088840758711548,,0.04,false,ll,8378.032999952324,response,-0.6382636208156365,1.1748926118631797,-0.7179247127902462,-0.9453634913219188,1.1734832885756727,-0.9921209387836896,low,low,,ISIC_0060707.JPG,,ISIC_0011490.JPG,28,54,false,0.1,hl,keypress(j),0,true,653107.0999999046,653106.7999999523,644711.797,644716.0999999046,644728.767,653111.959,1,40,27,
sequence,flow.Sequence,8_26,2023-11-27T18:39:28.488Z,,,,,,,,,,,8378.032999952324,completion,,,,,,,low,low,,,,,,,false,,,,,true,653107.399999857,653106.7999999523,644711.797,644716,644728.767,653111.959,1,40,,
trial,html.Screen,8_27_0,2023-11-27T18:39:34.343Z,,,,2,0,-0.0102871556606504,,0.04,true,ll,5849.840999952285,response,-0.8179322126045343,1.1748926118631797,-0.7679247127902462,-0.9445915945560848,1.1734832885756727,-0.9921209387836896,low,low,,ISIC_1805163.JPG,,ISIC_0056364.JPG,28,48,false,0.1,ll,keypress(f),0,true,658962,658961.7999999523,653095.142,653107.5999999046,653111.959,658978.622,1,40,28,
sequence,flow.Sequence,8_27,2023-11-27T18:39:34.344Z,,,,,,,,,,,5849.840999952285,completion,,,,,,,low,low,,,,,,,false,,,,,true,658962.399999857,658961.7999999523,653095.142,653107.5999999046,653111.959,658978.622,1,40,,
trial,html.Screen,8_28_0,2023-11-27T18:39:42.935Z,,,,2,-0.0109416414475118,-0.005246498750811,,0.04,true,hl,8575.378000000026,response,0.9237241143561707,1.1748926118631797,-0.7679247127902462,-0.7102087839245512,1.1734832885756727,-0.8312619035803095,high,low,,ISIC_0064279.JPG,,ISIC_0058661.JPG,28,28,false,0.27000000000000013,hl,keypress(j),0,true,667554.2999999523,667554,658961.997,658962.7000000477,658978.622,667561.945,1,40,29,
sequence,flow.Sequence,8_28,2023-11-27T18:39:42.936Z,,,,,,,,,,,8575.378000000026,completion,,,,,,,high,low,,,,,,,false,,,,,true,667554.5999999046,667554,658961.997,658962.5999999046,658978.622,667561.945,1,40,,
trial,html.Screen,8_29_0,2023-11-27T18:39:47.878Z,,,,2,0.0009714874637896,-0.0174815595031679,,0.04,true,ll,4935.055000000051,response,-0.6941362816263195,1.1748926118631797,-0.7679247127902462,-0.8847340651948885,1.1734832885756727,-0.8312619035803095,low,low,,ISIC_9848743.JPG,,ISIC_0046664.JPG,28,66,false,0.1,ll,keypress(f),0,true,672497,672497,667545.227,667554.7999999523,667561.945,672512.033,1,40,30,
sequence,flow.Sequence,8_29,2023-11-27T18:39:47.878Z,,,,,,,,,,,4935.055000000051,completion,,,,,,,low,low,,,,,,,false,,,,,true,672497.2000000477,672497,667545.227,667554.7999999523,667561.945,672512.033,1,40,,
trial,html.Screen,8_30_0,2023-11-27T18:39:55.144Z,,,,2,0.0283578106329894,-0.0088840758711548,,0.04,true,hh,7250.966999999946,response,1.1684835186766898,1.1748926118631797,-0.7474714245597198,1.2921331918483707,1.1734832885756727,-0.7474714245597198,high,high,,ISIC_0060707.JPG,,ISIC_5920470.JPG,28,26,false,0.15000000000000002,hh,keypress(i),0,true,679763.2999999523,679763,672495.39,672497.2999999523,672512.033,679778.625,1,40,31,
sequence,flow.Sequence,8_30,2023-11-27T18:39:55.145Z,,,,,,,,,,,7250.966999999946,completion,,,,,,,high,high,,,,,,,false,,,,,true,679763.7000000477,679763,672495.39,672497.2999999523,672512.033,679778.625,1,40,,
trial,html.Screen,8_31_0,2023-11-27T18:39:57.600Z,,,,2,0.0367744112927588,0.0324865661712824,,0.04,true,hh,2439.6749999523163,response,1.0943527860463682,1.1248926118631797,-0.7474714245597198,1.124481746658104,1.1234832885756727,-0.7474714245597198,high,high,,ISIC_4523565.JPG,,ISIC_0438136.JPG,28,25,false,0.13,hh,keypress(i),0,true,682218.5999999046,682218.2999999523,679761.899,679763.899999857,679778.625,682228.633,1,40,32,
sequence,flow.Sequence,8_31,2023-11-27T18:39:57.600Z,,,,,,,,,,,2439.6749999523163,completion,,,,,,,high,high,,,,,,,false,,,,,true,682218.899999857,682218.2999999523,679761.899,679763.7999999523,679778.625,682228.633,1,40,,
trial,html.Screen,8_32_0,2023-11-27T18:40:05.734Z,,,,2,0.0118382036798625,0.0300588245877227,,0.04,false,ll,8123.966999904602,response,-0.8351262413411394,1.1248926118631797,-0.7474714245597198,-0.7640141718413127,1.1234832885756727,-0.7474714245597198,low,low,,ISIC_4748605.JPG,,ISIC_0029363.JPG,28,69,false,0.1,lh,keypress(e),0,true,690352.5999999046,690352.5999999046,682212.112,682219.0999999046,682228.633,690361.878,1,40,33,
sequence,flow.Sequence,8_32,2023-11-27T18:40:05.734Z,,,,,,,,,,,8123.966999904602,completion,,,,,,,low,low,,,,,,,false,,,,,true,690352.7000000477,690352.5999999046,682212.112,682219,682228.633,690361.878,1,40,,
trial,html.Screen,8_33_0,2023-11-27T18:40:11.840Z,,,,2,-0.0388334549081915,0.0303399972963369,,0.04,true,lh,6096.521999856923,response,-0.598447767053731,1.1248926118631797,-0.7474714245597198,1.0185275168641534,1.1234832885756727,-0.7974714245597199,low,high,,ISIC_4961708.JPG,,ISIC_7604870.JPG,28,26,false,0.20000000000000007,lh,keypress(e),0,true,696458.5999999046,696458.399999857,690345.186,690352.7999999523,690361.878,696461.892,1,40,34,
sequence,flow.Sequence,8_33,2023-11-27T18:40:11.840Z,,,,,,,,,,,6096.521999856923,completion,,,,,,,low,high,,,,,,,false,,,,,true,696459,696458.399999857,690345.186,690352.7999999523,690361.878,696461.892,1,40,,
trial,html.Screen,8_34_0,2023-11-27T18:40:20.951Z,,,,2,-0.0388181790775959,0.0049623405709465,,0.04,true,hl,9108.308000047691,response,1.0453124399868816,1.1248926118631797,-0.6974714245597198,-0.8986747280184286,1.0734832885756727,-0.7974714245597199,high,low,,ISIC_0061880.JPG,,ISIC_0013967.JPG,28,26,false,0.2300000000000001,hl,keypress(j),0,true,705570.399999857,705570.2000000477,696444.993,696459.2000000477,696461.892,705578.548,1,40,35,
sequence,flow.Sequence,8_34,2023-11-27T18:40:20.952Z,,,,,,,,,,,9108.308000047691,completion,,,,,,,high,low,,,,,,,false,,,,,true,705570.7999999523,705570.2000000477,696444.993,696459.0999999046,696461.892,705578.548,1,40,,
trial,html.Screen,8_35_0,2023-11-27T18:40:27.488Z,,,,2,-0.0109416414475118,-0.005246498750811,,0.04,true,ll,6528.152000047732,response,-0.7398963495705471,1.0748926118631796,-0.6974714245597198,-0.7880820832288019,1.0734832885756727,-0.7974714245597199,low,low,,ISIC_0064279.JPG,,ISIC_0011778.JPG,28,70,false,0.1,ll,keypress(f),0,true,712106.899999857,712106.7000000477,705561.786,705571,705578.548,712111.819,1,40,36,
sequence,flow.Sequence,8_35,2023-11-27T18:40:27.488Z,,,,,,,,,,,6528.152000047732,completion,,,,,,,low,low,,,,,,,false,,,,,true,712107.399999857,712106.7000000477,705561.786,705570.899999857,705578.548,712111.819,1,40,,
trial,html.Screen,8_36_0,2023-11-27T18:40:34.769Z,,,,2,-0.0388181790775959,0.0049623405709465,,0.04,false,hl,7274.680999999982,response,0.937244118871122,1.0748926118631796,-0.6974714245597198,-0.6016155161011499,1.0734832885756727,-0.7139892163996744,high,low,,ISIC_0061880.JPG,,ISIC_0031611.JPG,28,28,false,0.18000000000000005,hh,keypress(i),0,true,719386.7999999523,719386.5,712095.061,712107.5999999046,712111.819,719395.161,1,40,37,
sequence,flow.Sequence,8_36,2023-11-27T18:40:34.769Z,,,,,,,,,,,7274.680999999982,completion,,,,,,,high,low,,,,,,,false,,,,,true,719387.2999999523,719386.5,712095.061,712107.5,712111.819,719395.161,1,40,,
trial,html.Screen,8_37_0,2023-11-27T18:40:43.463Z,,,,2,0.0044063257337227,0.0172548282859886,,0.04,true,lh,8685.438999904669,response,-0.6761608723588025,1.0748926118631796,-0.6974714245597198,1.0058174828582729,1.0734832885756727,-0.7639892163996744,low,high,,ISIC_7413786.JPG,,ISIC_1343302.JPG,28,26,false,0.17000000000000004,lh,keypress(e),0,true,728080.7000000477,728080.5999999046,719378.465,719387.5,719395.161,728095.078,1,40,38,
sequence,flow.Sequence,8_37,2023-11-27T18:40:43.463Z,,,,,,,,,,,8685.438999904669,completion,,,,,,,low,high,,,,,,,false,,,,,true,728080.899999857,728080.5999999046,719378.465,719387.5,719395.161,728095.078,1,40,,
trial,html.Screen,8_38_0,2023-11-27T18:40:48.671Z,,,,2,0.0220026381002083,-0.0170756452911772,,0.04,false,hl,5193.721999952337,response,0.8828738626295417,1.0748926118631796,-0.6474714245597197,-0.8288177599439582,1.0734832885756727,-0.7639892163996744,high,low,,ISIC_5347806.JPG,,ISIC_0056041.JPG,28,27,false,0.20000000000000007,ll,keypress(f),0,true,733288.7999999523,733288.7999999523,728078.182,728080.899999857,728095.078,733295.102,1,40,39,
sequence,flow.Sequence,8_38,2023-11-27T18:40:48.671Z,,,,,,,,,,,5193.721999952337,completion,,,,,,,high,low,,,,,,,false,,,,,true,733288.899999857,733288.7999999523,728078.182,728080.899999857,728095.078,733295.102,1,40,,
trial,html.Screen,8_39_0,2023-11-27T18:40:54.679Z,,,,2,0.0367744112927588,0.0324865661712824,,0.04,true,hh,6002.197999952361,response,1.0943527860463682,1.1248926118631797,-0.6474714245597197,1.124481746658104,1.0734832885756727,-0.7639892163996744,high,high,,ISIC_4523565.JPG,,ISIC_0438136.JPG,28,28,false,0.12,hh,keypress(i),0,true,739297.5999999046,739297.2999999523,733278.466,733289,733295.102,739311.831,1,40,40,
sequence,flow.Sequence,8_39,2023-11-27T18:40:54.680Z,,,,,,,,,,,6002.197999952361,completion,,,,,,,high,high,,,,,,,false,,,,,true,739298.0999999046,739297.2999999523,733278.466,733288.899999857,733295.102,739311.831,1,40,,
stair_loop,flow.Loop,8,2023-11-27T18:40:54.680Z,,,,,,,,,,,308668.0739999523,completion,,,,,,,,,,,,,,,false,,,,,true,739298.399999857,739297.2999999523,430596.13,430608.59999990463,430629.226,739311.831,1,40,,
exp_instructions,html.Screen,9,2023-11-27T18:41:51.376Z,,,,,,,,,,,56680.96899995231,response,,,,,,,,,,,,,,,,,continue,keypress(Space),,,795993.5,795992.7999999523,739295.186,739298.5999999046,739311.831,796012.869,,,,
trial,html.Screen,10_0_0,2023-11-27T18:42:07.047Z,,,,1,-0.001445457736793,-0.0165307427449982,,0.04,false,hh,15651.730999904685,response,1.2253191093367526,1.1423926118631802,-0.7126980686749829,1.241905252673026,1.1284832885756728,-0.8570138365193578,high,high,,ISIC_0027350.JPG,9,ISIC_1195689.JPG,28,30,false,0.14,hl,keypress(j),0,false,811664.7999999523,811664.5999999046,795992.953,795993.899999857,796012.869,811678.398,5,600,1,
break,html.Screen,10_0_1,2023-11-27T18:42:07.047Z,,,,,,,,,,,NaN,,,,,,,,high,high,,,,,,,false,,,,,false,811665.0999999046,811665,,811664.899999857,,811678.398,5,600,,
break_continue,html.Screen,10_0_2,2023-11-27T18:42:07.048Z,,,,,,,,,,,NaN,,,,,,,,high,high,,,,,,,false,,,,,false,811665.399999857,811665.2999999523,,811665.2000000477,,811678.398,5,600,,
sequence,flow.Sequence,10_0,2023-11-27T18:42:07.048Z,,,,,,,,,,,15652.430999952368,completion,,,,,,,high,high,,,,,,,false,,,,,false,811665.399999857,811665.2999999523,795992.953,795993.899999857,796012.869,811678.398,5,600,,
trial,html.Screen,10_1_0,2023-11-27T18:42:13.288Z,,,,1,0.0044063257337227,0.0172548282859886,,0.04,false,hh,6226.901999952272,response,1.033832433609739,1.1423926118631802,-0.7126980686749829,1.139863018685685,1.1284832885756728,-0.8570138365193578,high,high,,ISIC_7413786.JPG,9,ISIC_0008510.JPG,28,30,false,0.14,ll,keypress(f),0,false,817905.5999999046,817905.2999999523,811661.201,811665.5999999046,811678.398,817911.533,5,600,2,
break,html.Screen,10_1_1,2023-11-27T18:42:13.289Z,,,,,,,,,,,NaN,,,,,,,,high,high,,,,,,,false,,,,,false,817906.5,817906.2999999523,,817905.899999857,,817911.533,5,600,,
break_continue,html.Screen,10_1_2,2023-11-27T18:42:13.289Z,,,,,,,,,,,NaN,,,,,,,,high,high,,,,,,,false,,,,,false,817907.2000000477,817906.899999857,,817906.7000000477,,817911.533,5,600,,
sequence,flow.Sequence,10_1,2023-11-27T18:42:13.290Z,,,,,,,,,,,6228.501999856904,completion,,,,,,,high,high,,,,,,,false,,,,,false,817907.5,817906.899999857,811661.201,811665.5,811678.398,817911.533,5,600,,
trial,html.Screen,10_2_0,2023-11-27T18:42:18.593Z,,,,1,-0.0388334549081915,0.0303399972963369,,0.04,true,hh,5298.766999952262,response,1.1055382068806878,1.1423926118631802,-0.7126980686749829,1.0166010471189206,1.1284832885756728,-0.8570138365193578,high,high,,ISIC_4961708.JPG,8,ISIC_5420979.JPG,28,30,false,0.14,hh,keypress(i),0,false,823210.5,823210.2999999523,817894.795,817907.5999999046,817911.533,823228.245,5,600,3,
break,html.Screen,10_2_1,2023-11-27T18:42:18.594Z,,,,,,,,,,,NaN,,,,,,,,high,high,,,,,,,false,,,,,false,823211.399999857,823211.2999999523,,823210.899999857,,823228.245,5,600,,
break_continue,html.Screen,10_2_2,2023-11-27T18:42:18.594Z,,,,,,,,,,,NaN,,,,,,,,high,high,,,,,,,false,,,,,false,823212.0999999046,823211.899999857,,823211.7000000477,,823228.245,5,600,,
sequence,flow.Sequence,10_2,2023-11-27T18:42:18.595Z,,,,,,,,,,,5300.366999856895,completion,,,,,,,high,high,,,,,,,false,,,,,false,823212.399999857,823211.899999857,817894.795,817907.5,817911.533,823228.245,5,600,,
trial,html.Screen,10_3_0,2023-11-27T18:42:24.824Z,,,,1,0.0367744112927588,0.0324865661712824,,0.04,true,lh,6213.1549998569535,response,-0.6866466162921743,1.1423926118631802,-0.7126980686749829,0.9993010401520164,1.1284832885756728,-0.8570138365193578,low,high,,ISIC_4523565.JPG,10,ISIC_6155782.JPG,28,27,false,0.20000000000000007,lh,keypress(e),0,false,829441.5999999046,829441.399999857,823194.931,823212.5999999046,823228.245,829444.866,5,600,4,
break,html.Screen,10_3_1,2023-11-27T18:42:24.825Z,,,,,,,,,,,NaN,,,,,,,,low,high,,,,,,,false,,,,,false,829442.7000000477,829442.5,,829442,,829444.866,5,600,,
break_continue,html.Screen,10_3_2,2023-11-27T18:42:24.826Z,,,,,,,,,,,NaN,,,,,,,,low,high,,,,,,,false,,,,,false,829443.399999857,829443.2000000477,,829442.899999857,,829444.866,5,600,,
sequence,flow.Sequence,10_3,2023-11-27T18:42:24.826Z,,,,,,,,,,,6214.955000047688,completion,,,,,,,low,high,,,,,,,false,,,,,false,829443.7000000477,829443.2000000477,823194.931,823212.5,823228.245,829444.866,5,600,,
trial,html.Screen,10_4_0,2023-11-27T18:42:32.984Z,,,,1,-0.0065172941585523,0.0118857043117315,,0.04,true,lh,8156.633999999962,response,-0.5738217991759597,1.1423926118631802,-0.7126980686749829,0.9902998139515892,1.1284832885756728,-0.8570138365193578,low,high,,ISIC_6119202.JPG,9,ISIC_6496370.JPG,28,27,false,0.20000000000000007,lh,keypress(e),0,false,837601.7999999523,837601.5,829428.335,829443.899999857,829444.866,837611.48,5,600,5,
break,html.Screen,10_4_1,2023-11-27T18:42:32.985Z,,,,,,,,,,,NaN,,,,,,,,low,high,,,,,,,false,,,,,false,837602.7999999523,837602.5999999046,,837602.2000000477,,837611.48,5,600,,
break_continue,html.Screen,10_4_2,2023-11-27T18:42:32.986Z,,,,,,,,,,,NaN,,,,,,,,low,high,,,,,,,false,,,,,false,837603.5999999046,837603.2000000477,,837603.0999999046,,837611.48,5,600,,
sequence,flow.Sequence,10_4,2023-11-27T18:42:32.986Z,,,,,,,,,,,8158.3340000476455,completion,,,,,,,low,high,,,,,,,false,,,,,false,837603.899999857,837603.2000000477,829428.335,829443.7999999523,829444.866,837611.48,5,600,,
trial,html.Screen,10_5_0,2023-11-27T18:42:42.862Z,,,,1,-0.0198696495649504,0.0387952353063878,,0.04,false,hl,9868.020000000019,response,1.0794043929240107,1.1423926118631802,-0.7126980686749829,-0.6422352972056817,1.1284832885756728,-0.8570138365193578,high,low,,ISIC_6735970.JPG,9,ISIC_2106823.JPG,28,27,false,0.2600000000000001,lh,keypress(e),0,false,847479.7000000477,847479.5,837594.614,837604.0999999046,837611.48,847511.476,5,600,6,
break,html.Screen,10_5_1,2023-11-27T18:42:42.862Z,,,,,,,,,,,NaN,,,,,,,,high,low,,,,,,,false,,,,,false,847480.0999999046,847480,,847479.899999857,,847511.476,5,600,,
break_continue,html.Screen,10_5_2,2023-11-27T18:42:42.863Z,,,,,,,,,,,NaN,,,,,,,,high,low,,,,,,,false,,,,,false,847480.399999857,847480.2999999523,,847480.2000000477,,847511.476,5,600,,
sequence,flow.Sequence,10_5,2023-11-27T18:42:42.863Z,,,,,,,,,,,9868.819999952335,completion,,,,,,,high,low,,,,,,,false,,,,,false,847480.5,847480.2999999523,837594.614,837604,837611.48,847511.476,5,600,,
trial,html.Screen,10_6_0,2023-11-27T18:42:53.903Z,,,,1,-0.0199950873045219,-0.0172506388509166,,0.04,true,ll,11008.22400004766,response,-0.7195729696054269,1.1423926118631802,-0.7126980686749829,-0.7751162193317498,1.1284832885756728,-0.8570138365193578,low,low,,ISIC_0029906.JPG,10,ISIC_0034036.JPG,28,73,false,0.1,ll,keypress(f),0,false,858519.7000000477,858519.7000000477,847494.787,847480.7000000477,847511.476,858528.087,5,600,7,
break,html.Screen,10_6_1,2023-11-27T18:42:53.904Z,,,,,,,,,,,NaN,,,,,,,,low,low,,,,,,,false,,,,,false,858520.0999999046,858520,,858519.7999999523,,858528.087,5,600,,
break_continue,html.Screen,10_6_2,2023-11-27T18:42:53.904Z,,,,,,,,,,,NaN,,,,,,,,low,low,,,,,,,false,,,,,false,858520.399999857,858520.2999999523,,858520.0999999046,,858528.087,5,600,,
sequence,flow.Sequence,10_6,2023-11-27T18:42:53.904Z,,,,,,,,,,,11008.823999952292,completion,,,,,,,low,low,,,,,,,false,,,,,false,858520.5,858520.2999999523,847494.787,847480.5999999046,847511.476,858528.087,5,600,,
trial,html.Screen,10_7_0,2023-11-27T18:43:02.545Z,,,,1,0.0076984477620101,0.0069458408496562,,0.04,false,hl,8633.212999952259,response,1.3046390428588206,1.1423926118631802,-0.7126980686749829,-0.7942099232219556,1.1284832885756728,-0.8570138365193578,high,low,,ISIC_0000434.JPG,10,ISIC_0013096.JPG,28,27,false,0.2600000000000001,lh,keypress(e),0,false,867161.5,867161.2999999523,858511.38,858520.5,858528.087,867178.052,5,600,8,
break,html.Screen,10_7_1,2023-11-27T18:43:02.546Z,,,,,,,,,,,NaN,,,,,,,,high,low,,,,,,,false,,,,,false,867162.2000000477,867162.0999999046,,867161.7000000477,,867178.052,5,600,,
break_continue,html.Screen,10_7_2,2023-11-27T18:43:02.546Z,,,,,,,,,,,NaN,,,,,,,,high,low,,,,,,,false,,,,,false,867162.7000000477,867162.5,,867162.399999857,,867178.052,5,600,,
sequence,flow.Sequence,10_7,2023-11-27T18:43:02.546Z,,,,,,,,,,,8634.412999999942,completion,,,,,,,high,low,,,,,,,false,,,,,false,867162.899999857,867162.5,858511.38,858520.5,858528.087,867178.052,5,600,,
trial,html.Screen,10_8_0,2023-11-27T18:43:13.257Z,,,,1,0.0258224118104549,-0.0029364553353019,,0.04,false,hl,10695.347999856924,response,1.203269031614007,1.1423926118631802,-0.7126980686749829,-0.6961047103031557,1.1284832885756728,-0.8570138365193578,high,low,,ISIC_8325226.JPG,9,ISIC_0002639.JPG,28,27,false,0.2600000000000001,hh,keypress(i),0,false,877873.7999999523,877873.399999857,867161.101,867163,867178.052,877894.745,5,600,9,
break,html.Screen,10_8_1,2023-11-27T18:43:13.258Z,,,,,,,,,,,NaN,,,,,,,,high,low,,,,,,,false,,,,,false,877874.7000000477,877874.5999999046,,877874.0999999046,,877894.745,5,600,,
break_continue,html.Screen,10_8_2,2023-11-27T18:43:13.259Z,,,,,,,,,,,NaN,,,,,,,,high,low,,,,,,,false,,,,,false,877875.5,877875.2000000477,,877874.899999857,,877894.745,5,600,,
sequence,flow.Sequence,10_8,2023-11-27T18:43:13.259Z,,,,,,,,,,,10697.148000047659,completion,,,,,,,high,low,,,,,,,false,,,,,false,877875.7000000477,877875.2000000477,867161.101,867163,867178.052,877894.745,5,600,,
trial,html.Screen,10_9_0,2023-11-27T18:43:19.928Z,,,,1,0.0367706518941078,-0.0161069838272154,,0.04,false,hl,6649.455000047688,response,0.8828738626295417,1.1423926118631802,-0.7126980686749829,-0.8288177599439582,1.1284832885756728,-0.8570138365193578,high,low,,ISIC_0033419.JPG,10,ISIC_0056041.JPG,28,27,false,0.2600000000000001,ll,keypress(f),0,false,884544.2999999523,884544.2000000477,877861.576,877876,877894.745,884578.183,5,600,10,
break,html.Screen,10_9_1,2023-11-27T18:43:19.928Z,,,,,,,,,,,NaN,,,,,,,,high,low,,,,,,,false,,,,,false,884544.5999999046,884544.5,,884544.399999857,,884578.183,5,600,,
break_continue,html.Screen,10_9_2,2023-11-27T18:43:19.928Z,,,,,,,,,,,NaN,,,,,,,,high,low,,,,,,,false,,,,,false,884544.899999857,884544.7000000477,,884544.7000000477,,884578.183,5,600,,
sequence,flow.Sequence,10_9,2023-11-27T18:43:19.928Z,,,,,,,,,,,6649.955000047688,completion,,,,,,,high,low,,,,,,,false,,,,,false,884544.899999857,884544.7000000477,877861.576,877875.899999857,877894.745,884578.183,5,600,,
trial,html.Screen,10_10_0,2023-11-27T18:43:32.874Z,,,,1,0.0009714874637896,-0.0174815595031679,,0.04,true,hl,12912.116999952355,response,1.0453124399868816,1.1423926118631802,-0.7126980686749829,-0.8986747280184286,1.1284832885756728,-0.8570138365193578,high,low,,ISIC_9848743.JPG,9,ISIC_0013967.JPG,28,27,false,0.2600000000000001,hl,keypress(j),0,false,897490.5999999046,897490.2999999523,884561.439,884545,884578.183,897494.647,5,600,11,
break,html.Screen,10_10_1,2023-11-27T18:43:32.875Z,,,,,,,,,,,NaN,,,,,,,,high,low,,,,,,,false,,,,,false,897491.399999857,897491.2999999523,,897490.7999999523,,897494.647,5,600,,
break_continue,html.Screen,10_10_2,2023-11-27T18:43:32.876Z,,,,,,,,,,,NaN,,,,,,,,high,low,,,,,,,false,,,,,false,897492.2000000477,897491.7999999523,,897491.7000000477,,897494.647,5,600,,
sequence,flow.Sequence,10_10,2023-11-27T18:43:32.876Z,,,,,,,,,,,12913.616999952355,completion,,,,,,,high,low,,,,,,,false,,,,,false,897492.2999999523,897491.7999999523,884561.439,884545,884578.183,897494.647,5,600,,
trial,html.Screen,10_11_0,2023-11-27T18:43:44.042Z,,,,1,0.0076984477620101,0.0069458408496562,,0.04,false,ll,11163.353000000003,response,-0.8008551215425942,1.1423926118631802,-0.7126980686749829,-0.7774584068239597,1.1284832885756728,-0.8570138365193578,low,low,,ISIC_0000434.JPG,8,ISIC_0025904.JPG,28,73,false,0.1,hl,keypress(j),0,false,908658.399999857,908658,897478.083,897492.5,897494.647,908661.33,5,600,12,
break,html.Screen,10_11_1,2023-11-27T18:43:44.043Z,,,,,,,,,,,NaN,,,,,,,,low,low,,,,,,,false,,,,,false,908659.2999999523,908659.0999999046,,908658.5999999046,,908661.33,5,600,,
break_continue,html.Screen,10_11_2,2023-11-27T18:43:44.044Z,,,,,,,,,,,NaN,,,,,,,,low,low,,,,,,,false,,,,,false,908660.0999999046,908659.7000000477,,908659.5,,908661.33,5,600,,
sequence,flow.Sequence,10_11,2023-11-27T18:43:44.044Z,,,,,,,,,,,11165.053000047687,completion,,,,,,,low,low,,,,,,,false,,,,,false,908660.399999857,908659.7000000477,897478.083,897492.5,897494.647,908661.33,5,600,,
trial,html.Screen,10_12_0,2023-11-27T18:43:49.009Z,,,,1,-0.0164027439304477,0.0082910758715273,,0.04,true,hh,4963.870000047726,response,1.1055382068806878,1.1423926118631802,-0.7126980686749829,1.0166010471189206,1.1284832885756728,-0.8570138365193578,high,high,,ISIC_7381224.JPG,9,ISIC_5420979.JPG,28,30,false,0.14,hh,keypress(i),0,false,913625.5,913625.2000000477,908644.843,908660.5,908661.33,913628.012,5,600,13,
break,html.Screen,10_12_1,2023-11-27T18:43:49.010Z,,,,,,,,,,,NaN,,,,,,,,high,high,,,,,,,false,,,,,false,913626.5,913626.2000000477,,913625.899999857,,913628.012,5,600,,
break_continue,html.Screen,10_12_2,2023-11-27T18:43:49.011Z,,,,,,,,,,,NaN,,,,,,,,high,high,,,,,,,false,,,,,false,913627.2999999523,913626.899999857,,913626.7000000477,,913628.012,5,600,,
sequence,flow.Sequence,10_12,2023-11-27T18:43:49.011Z,,,,,,,,,,,4965.569999856991,completion,,,,,,,high,high,,,,,,,false,,,,,false,913627.5,913626.899999857,908644.843,908660.5,908661.33,913628.012,5,600,,
trial,html.Screen,10_13_0,2023-11-27T18:43:57.514Z,,,,1,-0.0065172941585523,0.0118857043117315,,0.04,true,ll,8501.387999856961,response,-0.7544107015739535,1.1423926118631802,-0.7126980686749829,-0.781438724006539,1.1284832885756728,-0.8570138365193578,low,low,,ISIC_6119202.JPG,9,ISIC_0021271.JPG,28,73,false,0.1,ll,keypress(f),0,false,922129.7000000477,922129.399999857,913611.353,913627.7999999523,913628.012,922144.629,5,600,14,
break,html.Screen,10_13_1,2023-11-27T18:43:57.515Z,,,,,,,,,,,NaN,,,,,,,,low,low,,,,,,,false,,,,,false,922130.7000000477,922130.399999857,,922130,,922144.629,5,600,,
break_continue,html.Screen,10_13_2,2023-11-27T18:43:57.516Z,,,,,,,,,,,NaN,,,,,,,,low,low,,,,,,,false,,,,,false,922131.5,922131.0999999046,,922130.899999857,,922144.629,5,600,,
sequence,flow.Sequence,10_13,2023-11-27T18:43:57.516Z,,,,,,,,,,,8503.087999904645,completion,,,,,,,low,low,,,,,,,false,,,,,false,922131.5999999046,922131.0999999046,913611.353,913627.7000000477,913628.012,922144.629,5,600,,
trial,html.Screen,10_14_0,2023-11-27T18:44:07.866Z,,,,1,0.0308384937406319,-0.0038396364323947,,0.04,false,ll,10336.470999904675,response,-0.708900242752142,1.1423926118631802,-0.7126980686749829,-0.7801028150877221,1.1284832885756728,-0.8570138365193578,low,low,,ISIC_0029825.JPG,9,ISIC_0056979.JPG,28,73,false,0.1,hh,keypress(i),0,false,932481.399999857,932481.0999999046,922127.779,922131.899999857,922144.629,932494.56,5,600,15,
break,html.Screen,10_14_1,2023-11-27T18:44:07.867Z,,,,,,,,,,,NaN,,,,,,,,low,low,,,,,,,false,,,,,false,932482.399999857,932482.2000000477,,932481.7999999523,,932494.56,5,600,,
break_continue,html.Screen,10_14_2,2023-11-27T18:44:07.867Z,,,,,,,,,,,NaN,,,,,,,,low,low,,,,,,,false,,,,,false,932483.0999999046,932482.7999999523,,932482.5,,932494.56,5,600,,
sequence,flow.Sequence,10_14,2023-11-27T18:44:07.868Z,,,,,,,,,,,10338.17099995236,completion,,,,,,,low,low,,,,,,,false,,,,,false,932483.2999999523,932482.7999999523,922127.779,922131.7999999523,922144.629,932494.56,5,600,,
trial,html.Screen,10_15_0,2023-11-27T18:44:23.258Z,,,,1,0.0367744112927588,0.0324865661712824,,0.04,true,lh,15378.839999856893,response,-0.5292541665914369,1.1423926118631802,-0.7126980686749829,1.1016228675339437,1.1284832885756728,-0.8570138365193578,low,high,,ISIC_4523565.JPG,10,ISIC_1768733.JPG,28,27,false,0.20000000000000007,lh,keypress(e),0,false,947873.7000000477,947873.399999857,932478.103,932483.5,932494.56,947877.917,5,600,16,
break,html.Screen,10_15_1,2023-11-27T18:44:23.259Z,,,,,,,,,,,NaN,,,,,,,,low,high,,,,,,,false,,,,,false,947874.5999999046,947874.5,,947874.0999999046,,947877.917,5,600,,
break_continue,html.Screen,10_15_2,2023-11-27T18:44:23.260Z,,,,,,,,,,,NaN,,,,,,,,low,high,,,,,,,false,,,,,false,947875.399999857,947875,,947874.899999857,,947877.917,5,600,,
sequence,flow.Sequence,10_15,2023-11-27T18:44:23.260Z,,,,,,,,,,,15380.439999999944,completion,,,,,,,low,high,,,,,,,false,,,,,false,947875.7000000477,947875,932478.103,932483.5,932494.56,947877.917,5,600,,
trial,html.Screen,10_16_0,2023-11-27T18:44:31.378Z,,,,1,-0.0164027439304477,0.0082910758715273,,0.04,false,hl,8115.182999904617,response,1.3046390428588206,1.1423926118631802,-0.7126980686749829,-0.7942099232219556,1.1284832885756728,-0.8570138365193578,high,low,,ISIC_7381224.JPG,10,ISIC_0013096.JPG,28,27,false,0.2600000000000001,hh,keypress(i),0,false,955993.399999857,955993.0999999046,947860.985,947875.899999857,947877.917,956011.154,5,600,17,
break,html.Screen,10_16_1,2023-11-27T18:44:31.379Z,,,,,,,,,,,NaN,,,,,,,,high,low,,,,,,,false,,,,,false,955994.5999999046,955994.2999999523,,955993.899999857,,956011.154,5,600,,
break_continue,html.Screen,10_16_2,2023-11-27T18:44:31.380Z,,,,,,,,,,,NaN,,,,,,,,high,low,,,,,,,false,,,,,false,955995.399999857,955995,,955994.7999999523,,956011.154,5,600,,
sequence,flow.Sequence,10_16,2023-11-27T18:44:31.380Z,,,,,,,,,,,8117.082999999984,completion,,,,,,,high,low,,,,,,,false,,,,,false,955995.7000000477,955995,947860.985,947875.7999999523,947877.917,956011.154,5,600,,
trial,html.Screen,10_17_0,2023-11-27T18:44:44.826Z,,,,1,0.0200295718112167,0.0155559071275806,,0.04,false,lh,13429.945999904652,response,-0.6003604172800366,1.1423926118631802,-0.7126980686749829,0.958948179228,1.1284832885756728,-0.8570138365193578,low,high,,ISIC_0061343.JPG,8,ISIC_7696538.JPG,28,27,false,0.20000000000000007,hh,keypress(i),0,false,969441.399999857,969441.0999999046,955994.286,955995.899999857,956011.154,969444.514,5,600,18,
break,html.Screen,10_17_1,2023-11-27T18:44:44.827Z,,,,,,,,,,,NaN,,,,,,,,low,high,,,,,,,false,,,,,false,969442.2000000477,969442.0999999046,,969441.7999999523,,969444.514,5,600,,
break_continue,html.Screen,10_17_2,2023-11-27T18:44:44.827Z,,,,,,,,,,,NaN,,,,,,,,low,high,,,,,,,false,,,,,false,969442.899999857,969442.7000000477,,969442.399999857,,969444.514,5,600,,
sequence,flow.Sequence,10_17,2023-11-27T18:44:44.828Z,,,,,,,,,,,13431.546000047703,completion,,,,,,,low,high,,,,,,,false,,,,,false,969443.2000000477,969442.7000000477,955994.286,955995.7999999523,956011.154,969444.514,5,600,,
trial,html.Screen,10_18_0,2023-11-27T18:44:49.802Z,,,,1,-0.0109416414475118,-0.005246498750811,,0.04,false,lh,4972.686000047717,response,-0.5292541665914369,1.1423926118631802,-0.7126980686749829,1.1016228675339437,1.1284832885756728,-0.8570138365193578,low,high,,ISIC_0064279.JPG,9,ISIC_1768733.JPG,28,27,false,0.20000000000000007,ll,keypress(f),0,false,974417.5,974417.2000000477,969427.781,969443.399999857,969444.514,974427.828,5,600,19,
break,html.Screen,10_18_1,2023-11-27T18:44:49.803Z,,,,,,,,,,,NaN,,,,,,,,low,high,,,,,,,false,,,,,false,974418.5,974418.2000000477,,974417.7999999523,,974427.828,5,600,,
break_continue,html.Screen,10_18_2,2023-11-27T18:44:49.804Z,,,,,,,,,,,NaN,,,,,,,,low,high,,,,,,,false,,,,,false,974419.2000000477,974418.7999999523,,974418.7000000477,,974427.828,5,600,,
sequence,flow.Sequence,10_18,2023-11-27T18:44:49.804Z,,,,,,,,,,,4974.28599995235,completion,,,,,,,low,high,,,,,,,false,,,,,false,974419.5,974418.7999999523,969427.781,969443.2999999523,969444.514,974427.828,5,600,,
trial,html.Screen,10_19_0,2023-11-27T18:44:59.099Z,,,,1,-0.0088741920055285,-0.0058246074740588,,0.04,false,ll,9285.57199985697,response,-0.6632108882930783,1.1423926118631802,-0.7126980686749829,-0.9365358249762208,1.1284832885756728,-0.8570138365193578,low,low,,ISIC_4136663.JPG,9,ISIC_0071951.JPG,28,73,false,0.1,lh,keypress(e),0,false,983713.5999999046,983713.399999857,974411.199,974419.7000000477,974427.828,983727.765,5,600,20,
break,html.Screen,10_19_1,2023-11-27T18:44:59.100Z,,,,,,,,,,,NaN,,,,,,,,low,low,,,,,,,false,,,,,false,983714.399999857,983714.2999999523,,983713.899999857,,983727.765,5,600,,
break_continue,html.Screen,10_19_2,2023-11-27T18:44:59.100Z,,,,,,,,,,,NaN,,,,,,,,low,low,,,,,,,false,,,,,false,983715.0999999046,983714.7999999523,,983714.5999999046,,983727.765,5,600,,
sequence,flow.Sequence,10_19,2023-11-27T18:44:59.100Z,,,,,,,,,,,9286.971999952337,completion,,,,,,,low,low,,,,,,,false,,,,,false,983715.2000000477,983714.7999999523,974411.199,974419.5999999046,974427.828,983727.765,5,600,,
trial,html.Screen,10_20_0,2023-11-27T18:45:05.322Z,,,,1,-0.0199950873045219,-0.0172506388509166,,0.04,false,lh,6208.93500004767,response,-0.6284406742939498,1.1423926118631802,-0.7126980686749829,0.9882196642247332,1.1284832885756728,-0.8570138365193578,low,high,,ISIC_0029906.JPG,9,ISIC_0014255.JPG,28,27,false,0.20000000000000007,ll,keypress(f),0,false,989937,989936.7000000477,983711.199,983715.399999857,983727.765,989944.392,5,600,21,
break,html.Screen,10_20_1,2023-11-27T18:45:05.323Z,,,,,,,,,,,NaN,,,,,,,,low,high,,,,,,,false,,,,,false,989938,989937.7999999523,,989937.399999857,,989944.392,5,600,,
break_continue,html.Screen,10_20_2,2023-11-27T18:45:05.324Z,,,,,,,,,,,NaN,,,,,,,,low,high,,,,,,,false,,,,,false,989938.7000000477,989938.5,,989938.2000000477,,989944.392,5,600,,
sequence,flow.Sequence,10_20,2023-11-27T18:45:05.324Z,,,,,,,,,,,6210.734999999986,completion,,,,,,,low,high,,,,,,,false,,,,,false,989939,989938.5,983711.199,983715.399999857,983727.765,989944.392,5,600,,
trial,html.Screen,10_21_0,2023-11-27T18:45:14.004Z,,,,1,-0.0198696495649504,0.0387952353063878,,0.04,true,hh,8673.907999952324,response,1.2268098550740514,1.1423926118631802,-0.7126980686749829,1.000470054909676,1.1284832885756728,-0.8570138365193578,high,high,,ISIC_6735970.JPG,10,ISIC_9562157.JPG,28,30,false,0.14,hh,keypress(i),0,false,998618.5999999046,998618.2999999523,989927.631,989939.2000000477,989944.392,998627.683,5,600,22,
break,html.Screen,10_21_1,2023-11-27T18:45:14.005Z,,,,,,,,,,,NaN,,,,,,,,high,high,,,,,,,false,,,,,false,998619.5,998619.2999999523,,998618.899999857,,998627.683,5,600,,
break_continue,html.Screen,10_21_2,2023-11-27T18:45:14.005Z,,,,,,,,,,,NaN,,,,,,,,high,high,,,,,,,false,,,,,false,998620.2999999523,998620,,998619.7000000477,,998627.683,5,600,,
sequence,flow.Sequence,10_21,2023-11-27T18:45:14.006Z,,,,,,,,,,,8675.608000000007,completion,,,,,,,high,high,,,,,,,false,,,,,false,998620.5999999046,998620,989927.631,989939.2000000477,989944.392,998627.683,5,600,,
trial,html.Screen,10_22_0,2023-11-27T18:45:20.849Z,,,,1,0.0200295718112167,0.0155559071275806,,0.04,true,ll,6836.616999952355,response,-0.772342084429769,1.1423926118631802,-0.7126980686749829,-0.8755566396204548,1.1284832885756728,-0.8570138365193578,low,low,,ISIC_0061343.JPG,9,ISIC_0071430.JPG,28,73,false,0.1,ll,keypress(f),0,false,1005464.399999857,1005464.2999999523,998611.084,998620.7999999523,998627.683,1005477.672,5,600,23,
break,html.Screen,10_22_1,2023-11-27T18:45:20.850Z,,,,,,,,,,,NaN,,,,,,,,low,low,,,,,,,false,,,,,false,1005464.7000000477,1005464.5999999046,,1005464.399999857,,1005477.672,5,600,,
break_continue,html.Screen,10_22_2,2023-11-27T18:45:20.850Z,,,,,,,,,,,NaN,,,,,,,,low,low,,,,,,,false,,,,,false,1005464.7999999523,1005464.7000000477,,1005464.7000000477,,1005477.672,5,600,,
sequence,flow.Sequence,10_22,2023-11-27T18:45:20.850Z,,,,,,,,,,,6837.017000047723,completion,,,,,,,low,low,,,,,,,false,,,,,false,1005464.899999857,1005464.7000000477,998611.084,998620.7000000477,998627.683,1005477.672,5,600,,
trial,html.Screen,10_23_0,2023-11-27T18:45:28.499Z,,,,1,-0.001445457736793,-0.0165307427449982,,0.04,false,hh,7635.627999952296,response,1.1018283884093611,1.1423926118631802,-0.7126980686749829,1.053767307212406,1.1284832885756728,-0.8570138365193578,high,high,,ISIC_0027350.JPG,9,ISIC_6785249.JPG,28,30,false,0.14,hl,keypress(j),0,false,1013113.5999999046,1013113.2999999523,1005461.054,1005464.899999857,1005477.672,1013127.727,5,600,24,
break,html.Screen,10_23_1,2023-11-27T18:45:28.500Z,,,,,,,,,,,NaN,,,,,,,,high,high,,,,,,,false,,,,,false,1013114.5,1013114.399999857,,1013114,,1013127.727,5,600,,
break_continue,html.Screen,10_23_2,2023-11-27T18:45:28.500Z,,,,,,,,,,,NaN,,,,,,,,high,high,,,,,,,false,,,,,false,1013115.2999999523,1013115,,1013114.7999999523,,1013127.727,5,600,,
sequence,flow.Sequence,10_23,2023-11-27T18:45:28.501Z,,,,,,,,,,,7637.3279999999795,completion,,,,,,,high,high,,,,,,,false,,,,,false,1013115.5999999046,1013115,1005461.054,1005464.899999857,1005477.672,1013127.727,5,600,,
trial,html.Screen,10_24_0,2023-11-27T18:45:32.474Z,,,,1,0.0308384937406319,-0.0038396364323947,,0.04,true,ll,3961.072999952361,response,-0.6230813977501845,1.1423926118631802,-0.7126980686749829,-0.7913364921396514,1.1284832885756728,-0.8570138365193578,low,low,,ISIC_0029825.JPG,9,ISIC_9471156.JPG,28,73,false,0.1,ll,keypress(f),0,false,1017089.0999999046,1017088.7999999523,1013111.093,1013115.7000000477,1013127.727,1017111.015,5,600,25,
break,html.Screen,10_24_1,2023-11-27T18:45:32.475Z,,,,,,,,,,,NaN,,,,,,,,low,low,,,,,,,false,,,,,false,1017090,1017089.7999999523,,1017089.399999857,,1017111.015,5,600,,
break_continue,html.Screen,10_24_2,2023-11-27T18:45:32.476Z,,,,,,,,,,,NaN,,,,,,,,low,low,,,,,,,false,,,,,false,1017090.5999999046,1017090.399999857,,1017090.2000000477,,1017111.015,5,600,,
sequence,flow.Sequence,10_24,2023-11-27T18:45:32.476Z,,,,,,,,,,,3962.6729998569936,completion,,,,,,,low,low,,,,,,,false,,,,,false,1017090.899999857,1017090.399999857,1013111.093,1013115.7000000477,1013127.727,1017111.015,5,600,,
trial,html.Screen,10_25_0,2023-11-27T18:45:43.099Z,,,,1,0.0119001144851157,-0.0063430114540141,,0.04,false,lh,10602.384999856935,response,-0.8067116931297591,1.1423926118631802,-0.7126980686749829,1.215898074058027,1.1284832885756728,-0.8570138365193578,low,high,,ISIC_0003822.JPG,9,ISIC_1457687.JPG,28,27,false,0.20000000000000007,hh,keypress(i),0,false,1027713.5999999046,1027713.399999857,1017077.758,1017091,1017111.015,1027727.631,5,600,26,
break,html.Screen,10_25_1,2023-11-27T18:45:43.100Z,,,,,,,,,,,NaN,,,,,,,,low,high,,,,,,,false,,,,,false,1027714.5999999046,1027714.399999857,,1027713.899999857,,1027727.631,5,600,,
break_continue,html.Screen,10_25_2,2023-11-27T18:45:43.100Z,,,,,,,,,,,NaN,,,,,,,,low,high,,,,,,,false,,,,,false,1027715.2000000477,1027714.899999857,,1027714.7999999523,,1027727.631,5,600,,
sequence,flow.Sequence,10_25,2023-11-27T18:45:43.101Z,,,,,,,,,,,10603.884999856935,completion,,,,,,,low,high,,,,,,,false,,,,,false,1027715.5,1027714.899999857,1017077.758,1017091,1017111.015,1027727.631,5,600,,
trial,html.Screen,10_26_0,2023-11-27T18:45:46.714Z,,,,1,0.0220026381002083,-0.0170756452911772,,0.04,true,hh,3601.4689999045804,response,1.0067659067144603,1.1423926118631802,-0.7126980686749829,1.1702231398575993,1.1284832885756728,-0.8570138365193578,high,high,,ISIC_5347806.JPG,9,ISIC_0064784.JPG,28,30,false,0.14,hh,keypress(i),0,false,1031329.399999857,1031329.0999999046,1027711.188,1027715.7000000477,1027727.631,1031344.455,5,600,27,
break,html.Screen,10_26_1,2023-11-27T18:45:46.715Z,,,,,,,,,,,NaN,,,,,,,,high,high,,,,,,,false,,,,,false,1031330.399999857,1031330.2000000477,,1031329.7000000477,,1031344.455,5,600,,
break_continue,html.Screen,10_26_2,2023-11-27T18:45:46.716Z,,,,,,,,,,,NaN,,,,,,,,high,high,,,,,,,false,,,,,false,1031331.0999999046,1031330.7999999523,,1031330.5999999046,,1031344.455,5,600,,
sequence,flow.Sequence,10_26,2023-11-27T18:45:46.716Z,,,,,,,,,,,3603.168999952264,completion,,,,,,,high,high,,,,,,,false,,,,,false,1031331.399999857,1031330.7999999523,1027711.188,1027715.5999999046,1027727.631,1031344.455,5,600,,
trial,html.Screen,10_27_0,2023-11-27T18:45:54.107Z,,,,1,0.0283578106329894,-0.0088840758711548,,0.04,false,ll,7376.6449999046745,response,-0.8012162547419382,1.1423926118631802,-0.7126980686749829,-0.8312065193439409,1.1284832885756728,-0.8570138365193578,low,low,,ISIC_0060707.JPG,9,ISIC_0056740.JPG,28,73,false,0.1,lh,keypress(e),0,false,1038721.399999857,1038721.0999999046,1031327.786,1031331.5999999046,1031344.455,1038727.568,5,600,28,
break,html.Screen,10_27_1,2023-11-27T18:45:54.108Z,,,,,,,,,,,NaN,,,,,,,,low,low,,,,,,,false,,,,,false,1038722.399999857,1038722,,1038721.5999999046,,1038727.568,5,600,,
break_continue,html.Screen,10_27_2,2023-11-27T18:45:54.109Z,,,,,,,,,,,NaN,,,,,,,,low,low,,,,,,,false,,,,,false,1038723,1038722.7000000477,,1038722.5,,1038727.568,5,600,,
sequence,flow.Sequence,10_27,2023-11-27T18:45:54.109Z,,,,,,,,,,,7378.245000047726,completion,,,,,,,low,low,,,,,,,false,,,,,false,1038723.2999999523,1038722.7000000477,1031327.786,1031331.5999999046,1031344.455,1038727.568,5,600,,
trial,html.Screen,10_28_0,2023-11-27T18:46:04.803Z,,,,1,-0.0065172941585523,0.0118857043117315,,0.04,true,ll,10689.531999904662,response,-0.7973802899836573,1.1423926118631802,-0.7126980686749829,-0.7843891838063659,1.1284832885756728,-0.8570138365193578,low,low,,ISIC_6119202.JPG,9,ISIC_0033473.JPG,28,73,false,0.1,ll,keypress(f),0,false,1049417.2999999523,1049417.0999999046,1038711.097,1038723.5,1038727.568,1049427.567,5,600,29,
break,html.Screen,10_28_1,2023-11-27T18:46:04.804Z,,,,,,,,,,,NaN,,,,,,,,low,low,,,,,,,false,,,,,false,1049418.2000000477,1049418.0999999046,,1049417.7000000477,,1049427.567,5,600,,
break_continue,html.Screen,10_28_2,2023-11-27T18:46:04.805Z,,,,,,,,,,,NaN,,,,,,,,low,low,,,,,,,false,,,,,false,1049418.899999857,1049418.5999999046,,1049418.399999857,,1049427.567,5,600,,
sequence,flow.Sequence,10_28,2023-11-27T18:46:04.805Z,,,,,,,,,,,10691.031999904662,completion,,,,,,,low,low,,,,,,,false,,,,,false,1049419.2000000477,1049418.5999999046,1038711.097,1038723.399999857,1038727.568,1049427.567,5,600,,
trial,html.Screen,10_29_0,2023-11-27T18:46:08.025Z,,,,1,0.0308384937406319,-0.0038396364323947,,0.04,false,hl,3211.932999999961,response,0.8926515927689261,1.1423926118631802,-0.7126980686749829,-0.7935960767768927,1.1284832885756728,-0.8570138365193578,high,low,,ISIC_0029825.JPG,9,ISIC_8901371.JPG,28,27,false,0.2600000000000001,ll,keypress(f),0,false,1052639.7000000477,1052639.5,1049411.12,1049419.2999999523,1049427.567,1052644.223,5,600,30,
break,html.Screen,10_29_1,2023-11-27T18:46:08.026Z,,,,,,,,,,,NaN,,,,,,,,high,low,,,,,,,false,,,,,false,1052640,1052639.7999999523,,1052639.7000000477,,1052644.223,5,600,,
break_continue,html.Screen,10_29_2,2023-11-27T18:46:08.026Z,,,,,,,,,,,NaN,,,,,,,,high,low,,,,,,,false,,,,,false,1052640.0999999046,1052640,,1052640,,1052644.223,5,600,,
sequence,flow.Sequence,10_29,2023-11-27T18:46:08.026Z,,,,,,,,,,,3212.432999999961,completion,,,,,,,high,low,,,,,,,false,,,,,false,1052640.2000000477,1052640,1049411.12,1049419.2999999523,1049427.567,1052644.223,5,600,,
trial,html.Screen,10_30_0,2023-11-27T18:46:14.011Z,,,,1,0.0308384937406319,-0.0038396364323947,,0.04,false,lh,5980.777000000002,response,-0.678931451947854,1.1423926118631802,-0.7126980686749829,0.9976887721741746,1.1284832885756728,-0.8570138365193578,low,high,,ISIC_0029825.JPG,8,ISIC_1137915.JPG,28,27,false,0.20000000000000007,ll,keypress(f),0,false,1058625.2000000477,1058625,1052627.726,1052640.2000000477,1052644.223,1058627.577,5,600,31,
break,html.Screen,10_30_1,2023-11-27T18:46:14.012Z,,,,,,,,,,,NaN,,,,,,,,low,high,,,,,,,false,,,,,false,1058626,1058625.7999999523,,1058625.5,,1058627.577,5,600,,
break_continue,html.Screen,10_30_2,2023-11-27T18:46:14.012Z,,,,,,,,,,,NaN,,,,,,,,low,high,,,,,,,false,,,,,false,1058626.5,1058626.2999999523,,1058626.0999999046,,1058627.577,5,600,,
sequence,flow.Sequence,10_30,2023-11-27T18:46:14.013Z,,,,,,,,,,,5982.076999952318,completion,,,,,,,low,high,,,,,,,false,,,,,false,1058626.7000000477,1058626.2999999523,1052627.726,1052640.2000000477,1052644.223,1058627.577,5,600,,
trial,html.Screen,10_31_0,2023-11-27T18:46:22.809Z,,,,1,-0.0199950873045219,-0.0172506388509166,,0.04,false,lh,8795.722999952268,response,-0.678931451947854,1.1423926118631802,-0.7126980686749829,0.9976887721741746,1.1284832885756728,-0.8570138365193578,low,high,,ISIC_0029906.JPG,8,ISIC_1137915.JPG,28,27,false,0.20000000000000007,hh,keypress(i),0,false,1067423.399999857,1067423.2999999523,1058610.894,1058626.899999857,1058627.577,1067427.486,5,600,32,
break,html.Screen,10_31_1,2023-11-27T18:46:22.810Z,,,,,,,,,,,NaN,,,,,,,,low,high,,,,,,,false,,,,,false,1067424,1067423.7999999523,,1067423.5999999046,,1067427.486,5,600,,
break_continue,html.Screen,10_31_2,2023-11-27T18:46:22.810Z,,,,,,,,,,,NaN,,,,,,,,low,high,,,,,,,false,,,,,false,1067424.399999857,1067424.0999999046,,1067424.0999999046,,1067427.486,5,600,,
sequence,flow.Sequence,10_31,2023-11-27T18:46:22.810Z,,,,,,,,,,,8796.522999904584,completion,,,,,,,low,high,,,,,,,false,,,,,false,1067424.5,1067424.0999999046,1058610.894,1058626.7999999523,1058627.577,1067427.486,5,600,,
trial,html.Screen,10_32_0,2023-11-27T18:46:29.010Z,,,,1,-0.0388334549081915,0.0303399972963369,,0.04,false,hl,6196.113999904599,response,1.0329549150636406,1.1423926118631802,-0.7126980686749829,-1.01584100839286,1.1284832885756728,-0.8570138365193578,high,low,,ISIC_4961708.JPG,10,ISIC_0054670.JPG,28,27,false,0.2600000000000001,hh,keypress(i),0,false,1073623.7000000477,1073623.5999999046,1067410.961,1067424.5,1067427.486,1073627.472,5,600,33,
break,html.Screen,10_32_1,2023-11-27T18:46:29.010Z,,,,,,,,,,,NaN,,,,,,,,high,low,,,,,,,false,,,,,false,1073623.899999857,1073623.899999857,,1073623.7999999523,,1073627.472,5,600,,
break_continue,html.Screen,10_32_2,2023-11-27T18:46:29.010Z,,,,,,,,,,,NaN,,,,,,,,high,low,,,,,,,false,,,,,false,1073624.2000000477,1073624.0999999046,,1073624,,1073627.472,5,600,,
sequence,flow.Sequence,10_32,2023-11-27T18:46:29.010Z,,,,,,,,,,,6196.613999904599,completion,,,,,,,high,low,,,,,,,false,,,,,false,1073624.2999999523,1073624.0999999046,1067410.961,1067424.5,1067427.486,1073627.472,5,600,,
trial,html.Screen,10_33_0,2023-11-27T18:46:33.779Z,,,,1,0.0118382036798625,0.0300588245877227,,0.04,true,ll,4765.728000047617,response,-0.6262675594380931,1.1423926118631802,-0.7126980686749829,-0.7653350470412937,1.1284832885756728,-0.8570138365193578,low,low,,ISIC_4748605.JPG,8,ISIC_0010271.JPG,28,73,false,0.1,ll,keypress(f),0,false,1078393.5,1078393.2000000477,1073610.861,1073624.2999999523,1073627.472,1078410.816,5,600,34,
break,html.Screen,10_33_1,2023-11-27T18:46:33.780Z,,,,,,,,,,,NaN,,,,,,,,low,low,,,,,,,false,,,,,false,1078394.399999857,1078394.2999999523,,1078393.7999999523,,1078410.816,5,600,,
break_continue,html.Screen,10_33_2,2023-11-27T18:46:33.781Z,,,,,,,,,,,NaN,,,,,,,,low,low,,,,,,,false,,,,,false,1078395.2000000477,1078394.899999857,,1078394.7000000477,,1078410.816,5,600,,
sequence,flow.Sequence,10_33,2023-11-27T18:46:33.781Z,,,,,,,,,,,4767.427999856882,completion,,,,,,,low,low,,,,,,,false,,,,,false,1078395.5,1078394.899999857,1073610.861,1073624.2999999523,1073627.472,1078410.816,5,600,,
trial,html.Screen,10_34_0,2023-11-27T18:46:41.266Z,,,,1,0.0283578106329894,-0.0088840758711548,,0.04,false,hh,7468.983999952208,response,1.109799097093339,1.1423926118631802,-0.7126980686749829,1.091507924157762,1.1284832885756728,-0.8570138365193578,high,high,,ISIC_0060707.JPG,9,ISIC_0765584.JPG,28,30,false,0.14,ll,keypress(f),0,false,1085879.899999857,1085879.7999999523,1078394.107,1078395.5999999046,1078410.816,1085894.29,5,600,35,
break,html.Screen,10_34_1,2023-11-27T18:46:41.266Z,,,,,,,,,,,NaN,,,,,,,,high,high,,,,,,,false,,,,,false,1085880.2000000477,1085880.0999999046,,1085880,,1085894.29,5,600,,
break_continue,html.Screen,10_34_2,2023-11-27T18:46:41.266Z,,,,,,,,,,,NaN,,,,,,,,high,high,,,,,,,false,,,,,false,1085880.2999999523,1085880.2000000477,,1085880.2000000477,,1085894.29,5,600,,
sequence,flow.Sequence,10_34,2023-11-27T18:46:41.266Z,,,,,,,,,,,7469.384000047576,completion,,,,,,,high,high,,,,,,,false,,,,,false,1085880.399999857,1085880.2000000477,1078394.107,1078395.5999999046,1078410.816,1085894.29,5,600,,
trial,html.Screen,10_35_0,2023-11-27T18:46:46.809Z,,,,1,0.0367744112927588,0.0324865661712824,,0.04,true,ll,5528.809999904595,response,-0.8010128234618513,1.1423926118631802,-0.7126980686749829,-0.9031251164933652,1.1284832885756728,-0.8570138365193578,low,low,,ISIC_4523565.JPG,10,ISIC_0058768.JPG,28,73,false,0.1,ll,keypress(f),0,false,1091423.2000000477,1091423.0999999046,1085877.626,1085880.5,1085894.29,1091427.434,5,600,36,
break,html.Screen,10_35_1,2023-11-27T18:46:46.810Z,,,,,,,,,,,NaN,,,,,,,,low,low,,,,,,,false,,,,,false,1091423.7000000477,1091423.5999999046,,1091423.399999857,,1091427.434,5,600,,
break_continue,html.Screen,10_35_2,2023-11-27T18:46:46.810Z,,,,,,,,,,,NaN,,,,,,,,low,low,,,,,,,false,,,,,false,1091424,1091423.899999857,,1091423.7999999523,,1091427.434,5,600,,
sequence,flow.Sequence,10_35,2023-11-27T18:46:46.810Z,,,,,,,,,,,5529.609999856912,completion,,,,,,,low,low,,,,,,,false,,,,,false,1091424.0999999046,1091423.899999857,1085877.626,1085880.5,1085894.29,1091427.434,5,600,,
trial,html.Screen,10_36_0,2023-11-27T18:46:50.987Z,,,,1,0.0200295718112167,0.0155559071275806,,0.04,true,ll,4173.266000047792,response,-0.6186549246026665,1.1423926118631802,-0.7126980686749829,-0.8138444884076459,1.1284832885756728,-0.8570138365193578,low,low,,ISIC_0061343.JPG,10,ISIC_5675703.JPG,28,73,false,0.1,ll,keypress(f),0,false,1095601,1095600.7000000477,1091410.947,1091424.2000000477,1091427.434,1095610.762,5,600,37,
break,html.Screen,10_36_1,2023-11-27T18:46:50.988Z,,,,,,,,,,,NaN,,,,,,,,low,low,,,,,,,false,,,,,false,1095601.7999999523,1095601.7000000477,,1095601.2000000477,,1095610.762,5,600,,
break_continue,html.Screen,10_36_2,2023-11-27T18:46:50.988Z,,,,,,,,,,,NaN,,,,,,,,low,low,,,,,,,false,,,,,false,1095602.5,1095602.0999999046,,1095602,,1095610.762,5,600,,
sequence,flow.Sequence,10_36,2023-11-27T18:46:50.989Z,,,,,,,,,,,4174.665999904741,completion,,,,,,,low,low,,,,,,,false,,,,,false,1095602.7000000477,1095602.0999999046,1091410.947,1091424.2000000477,1091427.434,1095610.762,5,600,,
trial,html.Screen,10_37_0,2023-11-27T18:46:56.525Z,,,,1,0.0283578106329894,-0.0088840758711548,,0.04,false,hh,5526.938000047579,response,1.109799097093339,1.1423926118631802,-0.7126980686749829,1.091507924157762,1.1284832885756728,-0.8570138365193578,high,high,,ISIC_0060707.JPG,10,ISIC_0765584.JPG,28,30,false,0.14,ll,keypress(f),0,false,1101138,1101137.7000000477,1095593.998,1095602.899999857,1095610.762,1101144.097,5,600,38,
break,html.Screen,10_37_1,2023-11-27T18:46:56.525Z,,,,,,,,,,,NaN,,,,,,,,high,high,,,,,,,false,,,,,false,1101139,1101138.7999999523,,1101138.2999999523,,1101144.097,5,600,,
break_continue,html.Screen,10_37_2,2023-11-27T18:46:56.526Z,,,,,,,,,,,NaN,,,,,,,,high,high,,,,,,,false,,,,,false,1101139.7000000477,1101139.399999857,,1101139.2000000477,,1101144.097,5,600,,
