sender,sender_type,sender_id,timestamp,meta,,age,blockNo,c1,c2,condition,control_tolerance,correct,correctResponse,duration,ended_on,f1,f1_high,f1_low,f2,f2_high,f2_low,feature_level1,feature_level2,gender,img_left,img_reveal,img_right,n_control_images,n_target_images,practice,range_tolerance,response,response_action,selection_duration,staircase,time_commit,time_end,time_render,time_run,time_show,time_switch,total_blocks,total_trials,trialNo,url
informed_consent,html.Screen,0,2023-11-27T17:15:50.358Z,"{""labjs_version"":""20.2.4"",""labjs_build"":{""flavor"":""development"",""commit"":""f5b4a49f956347addd546a832a3327688c2c0fef""},""location"":""https://labjs.felixhenninger.com/api/labjs_preview/index.html"",""userAgent"":""Mozilla/5.0 (Windows NT 10.0; Win64; x64) AppleWebKit/537.36 (KHTML, like Gecko) Chrome/119.0.0.0 Safari/537.36"",""platform"":""Win32"",""language"":""en-US"",""locale"":""en-US"",""timeZone"":""America/Chicago"",""timezoneOffset"":360,""screen_width"":1920,""screen_height"":1080,""scroll_width"":945,""scroll_height"":918,""window_innerWidth"":945,""window_innerHeight"":966,""devicePixelRatio"":1}",,,,,,,,,,51464.67199990463,response,,,,,,,,,,,,,,,,,consent,click button,,,52317,52316.09999990463,834.705,1059.7999999523163,851.428,52101.487,,,,{}
Demography form,html.Form,1,2023-11-27T17:15:57.142Z,,,18,,,,,,,,6998.713000047683,form submission,,,,,,,,,male,,,,,,,,,,,,59100.39999985695,59100.200000047684,52084.812,52317.299999952316,52101.487,58884.579,,,,
Welcome,html.Screen,2,2023-11-27T17:16:05.583Z,,,,,,,"[""bor"",""col""]",,,,8655.421000000002,response,,,,,,,,,,,,,,,,,continue,click button,,,67540.5,67540,58867.968,59100.5,58884.579,67317.895,,,,
demo_instructions,html.Screen,3,2023-11-27T17:16:38.319Z,,,,,,,,,,,32958.104999999996,response,,,,,,,,,,,,,,,,,continue,click button,,,100276.5,100276,67301.309,67540.59999990463,67317.895,100051.102,,,,
trial,html.Screen,4_0_0,2023-11-27T17:16:51.794Z,,,,0,-1.0849202097813322,-1.0851127310415287,,,true,hh,13700.398000000001,response,1.109799097093339,1.2,-1.2,1.091507924157762,1.2,-1.2,high,high,,ISIC_0010289.JPG,,ISIC_0765584.JPG,,25,true,0.14,hh,keypress(i),100,false,113751.70000004768,113751.5,100034.678,100276.70000004768,100051.102,113534.689,1,16,1,
sequence,flow.Sequence,4_0,2023-11-27T17:16:51.801Z,,,,,,,,,,,13700.398000000001,completion,,,,,,,high,high,,,,,,,true,,,,,false,113759.09999990463,113751.5,100034.678,100276.70000004768,100051.102,113534.689,1,16,,
trial,html.Screen,4_1_0,2023-11-27T17:17:00.272Z,,,,0,-1.0849202097813322,-1.0851127310415287,,,true,hh,8693.910999904634,response,1.2600330864275875,1.2,-1.2,1.0958628838888655,1.2,-1.2,high,high,,ISIC_0010289.JPG,,ISIC_0026996.JPG,,25,true,0.14,hh,keypress(i),100,false,122229.09999990463,122228.59999990463,113517.778,113759.09999990463,113534.689,122017.928,1,16,2,
sequence,flow.Sequence,4_1,2023-11-27T17:17:00.273Z,,,,,,,,,,,8693.910999904634,completion,,,,,,,high,high,,,,,,,true,,,,,false,122229.79999995232,122228.59999990463,113517.778,113759.09999990463,113534.689,122017.928,1,16,,
trial,html.Screen,4_2_0,2023-11-27T17:17:18.113Z,,,,0,-1.0769708994456726,-1.2196503533725178,,,true,hh,18051.572,response,1.274752206258116,1.2,-1.2,1.2988509166163749,1.2,-1.2,high,high,,ISIC_0063824.JPG,,ISIC_6704623.JPG,,25,true,0.14,hh,keypress(i),100,false,140070,140069.5,122001.148,122230.09999990463,122017.928,139851.001,1,16,3,
sequence,flow.Sequence,4_2,2023-11-27T17:17:18.113Z,,,,,,,,,,,18051.572,completion,,,,,,,high,high,,,,,,,true,,,,,false,140070.59999990463,140069.5,122001.148,122230,122017.928,139851.001,1,16,,
trial,html.Screen,4_3_0,2023-11-27T17:17:22.018Z,,,,0,-1.0769708994456726,-1.2196503533725178,,,true,hh,4124.098999904643,response,1.2946277435220357,1.2,-1.2,1.255157480204324,1.2,-1.2,high,high,,ISIC_0063824.JPG,,ISIC_1870309.JPG,,25,true,0.14,hh,keypress(i),100,false,143975.59999990463,143975.09999990463,139834.433,140071,139851.001,143767.879,1,16,4,
sequence,flow.Sequence,4_3,2023-11-27T17:17:22.019Z,,,,,,,,,,,4124.098999904643,completion,,,,,,,high,high,,,,,,,true,,,,,false,143976.20000004768,143975.09999990463,139834.433,140070.89999985695,139851.001,143767.879,1,16,,
trial,html.Screen,4_4_0,2023-11-27T17:17:31.875Z,,,,0,1.077278111180185,1.1530533996184025,,,true,ll,10064.321000047697,response,-1.186629690487006,1.2,-1.2,-1.3269945600040771,1.2,-1.2,low,low,,ISIC_9525136.JPG,,ISIC_0015390.JPG,,30,true,0.13,ll,keypress(f),100,false,153832.59999990463,153832.20000004768,143751.086,143976.59999990463,143767.879,153617.852,1,16,5,
sequence,flow.Sequence,4_4,2023-11-27T17:17:31.876Z,,,,,,,,,,,10064.321000047697,completion,,,,,,,low,low,,,,,,,true,,,,,false,153833.29999995232,153832.20000004768,143751.086,143976.5,143767.879,153617.852,1,16,,
trial,html.Screen,4_5_0,2023-11-27T17:17:44.723Z,,,,0,1.2541318165695772,1.085289936617366,,,true,ll,13061.947999952303,response,-1.236306205926646,1.2,-1.2,-1.116612676102794,1.2,-1.2,low,low,,ISIC_4277207.JPG,,ISIC_0054341.JPG,,40,true,0.14,ll,keypress(f),100,false,166680.29999995232,166679.79999995232,153601.041,153833.59999990463,153617.852,166467.772,1,16,6,
sequence,flow.Sequence,4_5,2023-11-27T17:17:44.724Z,,,,,,,,,,,13061.947999952303,completion,,,,,,,low,low,,,,,,,true,,,,,false,166680.79999995232,166679.79999995232,153601.041,153833.5,153617.852,166467.772,1,16,,
trial,html.Screen,4_6_0,2023-11-27T17:17:50.354Z,,,,0,1.0659165756604234,1.0867497316848906,,,true,ll,5843.4280000476865,response,-1.3307612087763094,1.2,-1.2,-1.075775252699004,1.2,-1.2,low,low,,ISIC_5807608.JPG,,ISIC_0063601.JPG,,40,true,0.14,ll,keypress(f),100,false,172311.59999990463,172311.20000004768,166451.01,166681.09999990463,166467.772,172100.962,1,16,7,
sequence,flow.Sequence,4_6,2023-11-27T17:17:50.355Z,,,,,,,,,,,5843.4280000476865,completion,,,,,,,low,low,,,,,,,true,,,,,false,172312.20000004768,172311.20000004768,166451.01,166681,166467.772,172100.962,1,16,,
trial,html.Screen,4_7_0,2023-11-27T17:17:54.785Z,,,,0,1.2724293858920366,1.149360738769835,,,true,ll,4640.5380000000005,response,-1.071085024260525,1.2,-1.2,-1.3393124611420348,1.2,-1.2,low,low,,ISIC_1264725.JPG,,ISIC_0072496.JPG,,40,true,0.14,ll,keypress(f),100,false,176741.79999995232,176741.5,172084.328,172312.5,172100.962,176534.23,1,16,8,
sequence,flow.Sequence,4_7,2023-11-27T17:17:54.785Z,,,,,,,,,,,4640.5380000000005,completion,,,,,,,low,low,,,,,,,true,,,,,false,176742.5,176741.5,172084.328,172312.29999995232,172100.962,176534.23,1,16,,
trial,html.Screen,4_8_0,2023-11-27T17:18:04.236Z,,,,0,0.8110121381849364,-0.7563142141851558,,,true,lh,9657.369999904622,response,-0.9089402323867112,1.2,-1.2,0.8034544077281132,1.2,-1.2,low,high,,ISIC_0033605.JPG,,ISIC_3585381.JPG,,27,true,0.40000000000000024,lh,keypress(e),100,false,186191.89999985695,186191.59999990463,176517.642,176742.70000004768,176534.23,185984.22,1,16,9,
sequence,flow.Sequence,4_8,2023-11-27T17:18:04.237Z,,,,,,,,,,,9657.369999904622,completion,,,,,,,low,high,,,,,,,true,,,,,false,186192.59999990463,186191.59999990463,176517.642,176742.70000004768,176534.23,185984.22,1,16,,
trial,html.Screen,4_9_0,2023-11-27T17:18:10.734Z,,,,0,1.0329549150636406,-1.01584100839286,,,true,lh,6705.379999904631,response,-1.0685314915436992,1.2,-1.2,0.8203833713472237,1.2,-1.2,low,high,,ISIC_0054670.JPG,,ISIC_0029374.JPG,,40,true,0.4500000000000003,lh,keypress(e),100,false,192689.89999985695,192689.59999990463,185967.604,186192.89999985695,185984.22,192467.542,1,16,10,
sequence,flow.Sequence,4_9,2023-11-27T17:18:10.735Z,,,,,,,,,,,6705.379999904631,completion,,,,,,,low,high,,,,,,,true,,,,,false,192690.39999985695,192689.59999990463,185967.604,186192.89999985695,185984.22,192467.542,1,16,,
trial,html.Screen,4_10_0,2023-11-27T17:18:25.040Z,,,,0,0.9653573371180936,-0.854766800381037,,,true,lh,14528.25799995233,response,-0.8307508446051526,1.2,-1.2,1.1707575338936729,1.2,-1.2,low,high,,ISIC_9640145.JPG,,ISIC_0028606.JPG,,40,true,0.4500000000000003,lh,keypress(e),100,false,206996.09999990463,206995.79999995232,192451.077,192690.5,192467.542,206784.152,1,16,11,
sequence,flow.Sequence,4_10,2023-11-27T17:18:25.041Z,,,,,,,,,,,14528.25799995233,completion,,,,,,,low,high,,,,,,,true,,,,,false,206996.79999995232,206995.79999995232,192451.077,192690.5,192467.542,206784.152,1,16,,
trial,html.Screen,4_11_0,2023-11-27T17:18:38.844Z,,,,0,1.0329549150636406,-1.01584100839286,,,true,lh,14015.247999856947,response,-0.7692916291112835,1.2,-1.2,0.7818604706992622,1.2,-1.2,low,high,,ISIC_0054670.JPG,,ISIC_7844825.JPG,,40,true,0.4500000000000003,lh,keypress(e),100,false,220799.70000004768,220799.39999985695,206767.548,206997,206784.152,220584.116,1,16,12,
sequence,flow.Sequence,4_11,2023-11-27T17:18:38.845Z,,,,,,,,,,,14015.247999856947,completion,,,,,,,low,high,,,,,,,true,,,,,false,220800.20000004768,220799.39999985695,206767.548,206996.89999985695,206784.152,220584.116,1,16,,
trial,html.Screen,4_12_0,2023-11-27T17:18:43.998Z,,,,0,-1.045301444872812,1.0872560254441277,,,true,hl,5368.883999999991,response,1.2054195059663604,1.2,-1.2,-0.7760611240296147,1.2,-1.2,high,low,,ISIC_4507700.JPG,,ISIC_8712559.JPG,,26,true,0.4500000000000003,hl,keypress(j),100,false,225953.39999985695,225953,220567.485,220800.5,220584.116,225750.779,1,16,13,
sequence,flow.Sequence,4_12,2023-11-27T17:18:43.998Z,,,,,,,,,,,5368.883999999991,completion,,,,,,,high,low,,,,,,,true,,,,,false,225953.89999985695,225953,220567.485,220800.5,220584.116,225750.779,1,16,,
trial,html.Screen,4_13_0,2023-11-27T17:18:46.706Z,,,,0,-0.90812608370647,1.2720026872926935,,,true,hl,2910.421000047674,response,1.0887164761389951,1.2,-1.2,-1.5357518752548716,1.2,-1.2,high,low,,ISIC_0450295.JPG,,ISIC_0028127.JPG,,26,true,0.4500000000000003,hl,keypress(j),100,false,228661.5,228661.20000004768,225717.533,225954.09999990463,225750.779,228450.989,1,16,14,
sequence,flow.Sequence,4_13,2023-11-27T17:18:46.706Z,,,,,,,,,,,2910.421000047674,completion,,,,,,,high,low,,,,,,,true,,,,,false,228662.09999990463,228661.20000004768,225717.533,225954,225750.779,228450.989,1,16,,
trial,html.Screen,4_14_0,2023-11-27T17:18:51.626Z,,,,0,-0.8067116931297591,1.215898074058027,,,true,hl,5130.211000047682,response,0.8830264383952469,1.2,-1.2,-0.8635562538060516,1.2,-1.2,high,low,,ISIC_1457687.JPG,,ISIC_0032258.JPG,,26,true,0.4500000000000003,hl,keypress(j),100,false,233581.5,233581.20000004768,228434.202,228662.29999995232,228450.989,233367.421,1,16,15,
sequence,flow.Sequence,4_14,2023-11-27T17:18:51.626Z,,,,,,,,,,,5130.211000047682,completion,,,,,,,high,low,,,,,,,true,,,,,false,233582,233581.20000004768,228434.202,228662.20000004768,228450.989,233367.421,1,16,,
trial,html.Screen,4_15_0,2023-11-27T17:18:53.431Z,,,,0,-1.168911077628813,1.2181838235193114,,,true,hl,2018.578999999998,response,1.075512775389519,1.2,-1.2,-1.0454702683049502,1.2,-1.2,high,low,,ISIC_7358691.JPG,,ISIC_0033603.JPG,,26,true,0.4500000000000003,hl,keypress(j),100,false,235386.29999995232,235386,233350.85,233582.20000004768,233367.421,235167.425,1,16,16,
sequence,flow.Sequence,4_15,2023-11-27T17:18:53.431Z,,,,,,,,,,,2018.578999999998,completion,,,,,,,high,low,,,,,,,true,,,,,false,235386.79999995232,235386,233350.85,233582.09999990463,233367.421,235167.425,1,16,,
demonstration_loop,flow.Loop,4,2023-11-27T17:18:53.431Z,,,,,,,,,,,135334.898,completion,,,,,,,,,,,,,,,true,,,,,false,235387.09999990463,235386,100034.678,100276.70000004768,100051.102,235167.425,1,16,,
practice_instructions,html.Screen,5,2023-11-27T17:19:02.536Z,,,,,,,,,,,9316.174999904644,response,,,,,,,,,,,,,,,,,continue,click button,,,244491.70000004768,244483.59999990463,235150.839,235387.20000004768,235167.425,244284.067,,,,
trial,html.Screen,6_0_0,2023-11-27T17:19:14.832Z,,,,1,0.9754077946987664,-1.1821868813141057,,,true,lh,12496.332999856939,response,-1.2020012168275056,1.2,-1.2,0.923753102263735,1.2,-1.2,low,high,,ISIC_0024317.JPG,,ISIC_0000022.JPG,,27,true,0.40000000000000024,lh,keypress(e),0,false,256787.70000004768,256780.39999985695,244234.287,244491.79999995232,244284.067,256567.352,1,40,1,
sequence,flow.Sequence,6_0,2023-11-27T17:19:14.832Z,,,,,,,,,,,12496.332999856939,completion,,,,,,,low,high,,,,,,,true,,,,,false,256787.79999995232,256780.39999985695,244234.287,244491.79999995232,244284.067,256567.352,1,40,,
trial,html.Screen,6_1_0,2023-11-27T17:19:19.458Z,,,,1,0.8472024037189965,-0.986370061404882,,,false,lh,4846.047999856935,response,-1.423867498658875,1.2,-1.2,0.7901771595160324,1.2,-1.2,low,high,,ISIC_0054355.JPG,,ISIC_3136228.JPG,,40,true,0.4500000000000003,hh,keypress(i),0,false,261413.59999990463,261413.39999985695,256550.693,256787.79999995232,256567.352,261184.051,1,40,2,
sequence,flow.Sequence,6_1,2023-11-27T17:19:19.459Z,,,,,,,,,,,4846.047999856935,completion,,,,,,,low,high,,,,,,,true,,,,,false,261414,261413.39999985695,256550.693,256787.79999995232,256567.352,261184.051,1,40,,
trial,html.Screen,6_2_0,2023-11-27T17:19:23.819Z,,,,1,-1.2194553326562725,-1.2381726989215684,,,true,hh,4590.448999999993,response,0.9253985598518948,1.2,-1.2,0.8253785649083512,1.2,-1.2,high,high,,ISIC_0068975.JPG,,ISIC_7509837.JPG,,265,true,0.4500000000000003,hh,keypress(i),0,false,265774.7000000477,265774.5,261167.413,261414.20000004768,261184.051,265550.732,1,40,3,
sequence,flow.Sequence,6_2,2023-11-27T17:19:23.820Z,,,,,,,,,,,4590.448999999993,completion,,,,,,,high,high,,,,,,,true,,,,,false,265775.09999990463,265774.5,261167.413,261414.09999990463,261184.051,265550.732,1,40,,
trial,html.Screen,6_3_0,2023-11-27T17:19:32.315Z,,,,1,-1.1048559518249943,-1.2252457981338687,,,true,hh,8719.067999952298,response,1.077278111180185,1.2,-1.2,1.1530533996184025,1.2,-1.2,high,high,,ISIC_0060817.JPG,,ISIC_9525136.JPG,,25,true,0.14,hh,keypress(i),0,false,274270.09999990463,274269.7999999523,265534.15,265775.2999999523,265550.732,274051.621,1,40,4,
sequence,flow.Sequence,6_3,2023-11-27T17:19:32.315Z,,,,,,,,,,,8719.067999952298,completion,,,,,,,high,high,,,,,,,true,,,,,false,274270.59999990463,274269.7999999523,265534.15,265775.2000000477,265550.732,274051.621,1,40,,
trial,html.Screen,6_4_0,2023-11-27T17:19:34.842Z,,,,1,-1.168911077628813,1.2181838235193114,,,false,hl,2745.8790000000154,response,1.3046390428588206,1.2,-1.2,-0.7942099232219556,1.2,-1.2,high,low,,ISIC_7358691.JPG,,ISIC_0013096.JPG,,26,true,0.4500000000000003,hh,keypress(i),0,false,276797.7000000477,276797.5,274017.186,274270.7999999523,274051.621,276567.296,1,40,5,
sequence,flow.Sequence,6_4,2023-11-27T17:19:34.843Z,,,,,,,,,,,2745.8790000000154,completion,,,,,,,high,low,,,,,,,true,,,,,false,276798,276797.5,274017.186,274270.7000000477,274051.621,276567.296,1,40,,
trial,html.Screen,6_5_0,2023-11-27T17:19:41.842Z,,,,1,1.2578167348825195,-0.8371819698254004,,,false,lh,7229.503999952343,response,-0.8307508446051526,1.2,-1.2,1.1707575338936729,1.2,-1.2,low,high,,ISIC_9613570.JPG,,ISIC_0028606.JPG,,27,true,0.40000000000000024,ll,keypress(f),0,false,283797,283796.7999999523,276550.758,276798.2000000477,276567.296,283567.25,1,40,6,
sequence,flow.Sequence,6_5,2023-11-27T17:19:41.842Z,,,,,,,,,,,7229.503999952343,completion,,,,,,,low,high,,,,,,,true,,,,,false,283797.2999999523,283796.7999999523,276550.758,276798.2000000477,276567.296,283567.25,1,40,,
trial,html.Screen,6_6_0,2023-11-27T17:19:44.729Z,,,,1,1.2804054832904397,1.171271535505083,,,false,ll,3117.3499999046326,response,-1.10562749024409,1.2,-1.2,-0.9001696721297474,1.2,-1.2,low,low,,ISIC_7889838.JPG,,ISIC_0072748.JPG,,359,true,0.4500000000000003,hh,keypress(i),0,false,286684.7000000477,286684.59999990463,283550.628,283797.39999985695,283567.25,286450.622,1,40,7,
sequence,flow.Sequence,6_6,2023-11-27T17:19:44.729Z,,,,,,,,,,,3117.3499999046326,completion,,,,,,,low,low,,,,,,,true,,,,,false,286684.7999999523,286684.59999990463,283550.628,283797.2999999523,283567.25,286450.622,1,40,,
trial,html.Screen,6_7_0,2023-11-27T17:19:47.537Z,,,,1,-1.2014901828022857,-1.1484096197304636,,,true,hh,3041.57800004771,response,1.2600330864275875,1.2,-1.2,1.0958628838888655,1.2,-1.2,high,high,,ISIC_0067808.JPG,,ISIC_0026996.JPG,,25,true,0.14,hh,keypress(i),0,false,289492.2000000477,289492.2000000477,286434.139,286685,286450.622,289267.417,1,40,8,
sequence,flow.Sequence,6_7,2023-11-27T17:19:47.537Z,,,,,,,,,,,3041.57800004771,completion,,,,,,,high,high,,,,,,,true,,,,,false,289492.2999999523,289492.2000000477,286434.139,286685,286450.622,289267.417,1,40,,
trial,html.Screen,6_8_0,2023-11-27T17:19:54.282Z,,,,1,-1.2118207001489876,-1.3164676315545727,,,false,hh,6969.8829999523,response,1.109799097093339,1.2,-1.2,1.091507924157762,1.2,-1.2,high,high,,ISIC_0066476.JPG,,ISIC_0765584.JPG,,25,true,0.14,lh,keypress(e),0,false,296237.59999990463,296237.2999999523,289250.671,289492.39999985695,289267.417,296017.244,1,40,9,
sequence,flow.Sequence,6_8,2023-11-27T17:19:54.283Z,,,,,,,,,,,6969.8829999523,completion,,,,,,,high,high,,,,,,,true,,,,,false,296238.09999990463,296237.2999999523,289250.671,289492.39999985695,289267.417,296017.244,1,40,,
trial,html.Screen,6_9_0,2023-11-27T17:19:58.428Z,,,,1,1.0329549150636406,-1.01584100839286,,,false,lh,4364.55599995231,response,-1.0788024398087033,1.2,-1.2,0.9911875460374616,1.2,-1.2,low,high,,ISIC_0054670.JPG,,ISIC_5951430.JPG,,27,true,0.40000000000000024,ll,keypress(f),0,false,300382.09999990463,300381.7999999523,296000.607,296238.2999999523,296017.244,300150.585,1,40,10,
sequence,flow.Sequence,6_9,2023-11-27T17:19:58.429Z,,,,,,,,,,,4364.55599995231,completion,,,,,,,low,high,,,,,,,true,,,,,false,300382.5,300381.7999999523,296000.607,296238.2000000477,296017.244,300150.585,1,40,,
trial,html.Screen,6_10_0,2023-11-27T17:20:01.277Z,,,,1,-1.1117876838408909,-1.2957497771092716,,,false,hh,3079.6150000476628,response,0.8073835700282378,1.2,-1.2,1.0079605779898853,1.2,-1.2,high,high,,ISIC_0061915.JPG,,ISIC_5335139.JPG,,265,true,0.4500000000000003,ll,keypress(f),0,false,303230.39999985695,303230.2000000477,300133.951,300382.7000000477,300150.585,303017.193,1,40,11,
sequence,flow.Sequence,6_10,2023-11-27T17:20:01.277Z,,,,,,,,,,,3079.6150000476628,completion,,,,,,,high,high,,,,,,,true,,,,,false,303230.7999999523,303230.2000000477,300133.951,300382.7000000477,300150.585,303017.193,1,40,,
trial,html.Screen,6_11_0,2023-11-27T17:20:05.660Z,,,,1,1.058275612142778,-0.7824898568540655,,,false,lh,4596.306999999972,response,-0.9662688541319592,1.2,-1.2,0.929746784178986,1.2,-1.2,low,high,,ISIC_4906385.JPG,,ISIC_0011077.JPG,,27,true,0.40000000000000024,ll,keypress(f),0,false,307613.7999999523,307613.5,302983.826,303230.89999985695,303017.193,307383.867,1,40,12,
sequence,flow.Sequence,6_11,2023-11-27T17:20:05.661Z,,,,,,,,,,,4596.306999999972,completion,,,,,,,low,high,,,,,,,true,,,,,false,307614.2000000477,307613.5,302983.826,303230.7999999523,303017.193,307383.867,1,40,,
trial,html.Screen,6_12_0,2023-11-27T17:20:08.669Z,,,,1,1.2246024683501224,1.2904526351590244,,,false,ll,3238.732999904605,response,-1.0063353542987443,1.2,-1.2,-0.9468739614220908,1.2,-1.2,low,low,,ISIC_4730066.JPG,,ISIC_0072382.JPG,,359,true,0.4500000000000003,hh,keypress(i),0,false,310622.7999999523,310622.59999990463,307367.227,307614.5,307383.867,310400.543,1,40,13,
sequence,flow.Sequence,6_12,2023-11-27T17:20:08.670Z,,,,,,,,,,,3238.732999904605,completion,,,,,,,low,low,,,,,,,true,,,,,false,310623.2999999523,310622.59999990463,307367.227,307614.39999985695,307383.867,310400.543,1,40,,
trial,html.Screen,6_13_0,2023-11-27T17:20:11.061Z,,,,1,0.7882758084023446,-0.8296405881378283,,,false,lh,2613.756999952311,response,-1.045301444872812,1.2,-1.2,1.0872560254441277,1.2,-1.2,low,high,,ISIC_0065882.JPG,,ISIC_4507700.JPG,,27,true,0.40000000000000024,ll,keypress(f),0,false,313014.59999990463,313014.2999999523,310383.847,310623.5,310400.543,312783.871,1,40,14,
sequence,flow.Sequence,6_13,2023-11-27T17:20:11.061Z,,,,,,,,,,,2613.756999952311,completion,,,,,,,low,high,,,,,,,true,,,,,false,313014.89999985695,313014.2999999523,310383.847,310623.39999985695,310400.543,312783.871,1,40,,
trial,html.Screen,6_14_0,2023-11-27T17:20:17.891Z,,,,1,-1.2081146885025262,1.195668832085049,,,false,hl,7060.829000047699,response,0.8472024037189965,1.2,-1.2,-0.986370061404882,1.2,-1.2,high,low,,ISIC_7369690.JPG,,ISIC_0054355.JPG,,26,true,0.4500000000000003,lh,keypress(e),0,false,319844.7999999523,319844.7000000477,312767.361,313015.09999990463,312783.871,319617.38,1,40,15,
sequence,flow.Sequence,6_14,2023-11-27T17:20:17.891Z,,,,,,,,,,,7060.829000047699,completion,,,,,,,high,low,,,,,,,true,,,,,false,319844.89999985695,319844.7000000477,312767.361,313015.09999990463,312783.871,319617.38,1,40,,
trial,html.Screen,6_15_0,2023-11-27T17:20:21.404Z,,,,1,-1.1117876838408909,-1.2957497771092716,,,true,hh,3740.320000047679,response,0.8796516667961567,1.2,-1.2,1.1452798229083057,1.2,-1.2,high,high,,ISIC_0061915.JPG,,ISIC_4808298.JPG,,203,true,0.40000000000000024,hh,keypress(i),0,false,323358,323357.7000000477,319600.291,319844.89999985695,319617.38,323134.114,1,40,16,
sequence,flow.Sequence,6_15,2023-11-27T17:20:21.405Z,,,,,,,,,,,3740.320000047679,completion,,,,,,,high,high,,,,,,,true,,,,,false,323358.39999985695,323357.7000000477,319600.291,319844.89999985695,319617.38,323134.114,1,40,,
trial,html.Screen,6_16_0,2023-11-27T17:20:24.260Z,,,,1,-1.0915173513546716,-1.266840220031473,,,true,hh,3079.485999904631,response,1.151139267005652,1.2,-1.2,1.0838749490501327,1.2,-1.2,high,high,,ISIC_8241457.JPG,,ISIC_0002566.JPG,,25,true,0.14,hh,keypress(i),0,false,326213.89999985695,326213.59999990463,323117.188,323358.59999990463,323134.114,325983.831,1,40,17,
sequence,flow.Sequence,6_16,2023-11-27T17:20:24.261Z,,,,,,,,,,,3079.485999904631,completion,,,,,,,high,high,,,,,,,true,,,,,false,326214.39999985695,326213.59999990463,323117.188,323358.59999990463,323134.114,325983.831,1,40,,
trial,html.Screen,6_17_0,2023-11-27T17:20:28.427Z,,,,1,1.0943527860463682,1.124481746658104,,,true,ll,4396.668999999994,response,-1.1117876838408909,1.2,-1.2,-1.2957497771092716,1.2,-1.2,low,low,,ISIC_0438136.JPG,,ISIC_0061915.JPG,,30,true,0.13,ll,keypress(f),0,false,330380.5,330380.5,325967.198,326214.5,325983.831,330150.467,1,40,18,
sequence,flow.Sequence,6_17,2023-11-27T17:20:28.427Z,,,,,,,,,,,4396.668999999994,completion,,,,,,,low,low,,,,,,,true,,,,,false,330380.59999990463,330380.5,325967.198,326214.5,325983.831,330150.467,1,40,,
trial,html.Screen,6_18_0,2023-11-27T17:20:34.123Z,,,,1,1.0369885917487718,-0.8486937878412699,,,false,lh,5925.932999856945,response,-1.2020012168275056,1.2,-1.2,0.923753102263735,1.2,-1.2,low,high,,ISIC_6917681.JPG,,ISIC_0000022.JPG,,27,true,0.40000000000000024,hl,keypress(j),0,false,336076.5,336076.39999985695,330133.898,330380.7000000477,330150.467,335850.546,1,40,19,
sequence,flow.Sequence,6_18,2023-11-27T17:20:34.123Z,,,,,,,,,,,5925.932999856945,completion,,,,,,,low,high,,,,,,,true,,,,,false,336076.59999990463,336076.39999985695,330133.898,330380.59999990463,330150.467,335850.546,1,40,,
trial,html.Screen,6_19_0,2023-11-27T17:20:37.556Z,,,,1,-1.2118207001489876,-1.3164676315545727,,,false,hh,3658.853999856976,response,0.8482399573167824,1.2,-1.2,1.2276600934505035,1.2,-1.2,high,high,,ISIC_0066476.JPG,,ISIC_0026344.JPG,,265,true,0.4500000000000003,hl,keypress(j),0,false,339509.59999990463,339509.39999985695,335833.789,336076.59999990463,335850.546,339283.769,1,40,20,
sequence,flow.Sequence,6_19,2023-11-27T17:20:37.556Z,,,,,,,,,,,3658.853999856976,completion,,,,,,,high,high,,,,,,,true,,,,,false,339510,339509.39999985695,335833.789,336076.59999990463,335850.546,339283.769,1,40,,
trial,html.Screen,6_20_0,2023-11-27T17:20:39.794Z,,,,1,-0.9633172970727744,0.8472659344792351,,,false,hl,2464.1309998569777,response,0.8830264383952469,1.2,-1.2,-0.8635562538060516,1.2,-1.2,high,low,,ISIC_0067172.JPG,,ISIC_0032258.JPG,,26,true,0.4500000000000003,hh,keypress(i),0,false,341748,341747.89999985695,339267.231,339510.2000000477,339283.769,341517.251,1,40,21,
sequence,flow.Sequence,6_20,2023-11-27T17:20:39.794Z,,,,,,,,,,,2464.1309998569777,completion,,,,,,,high,low,,,,,,,true,,,,,false,341748.09999990463,341747.89999985695,339267.231,339510.2000000477,339283.769,341517.251,1,40,,
trial,html.Screen,6_21_0,2023-11-27T17:20:46.396Z,,,,1,1.2724293858920366,1.149360738769835,,,false,ll,6832.249000000011,response,-0.9619672413799648,1.2,-1.2,-1.000847348662667,1.2,-1.2,low,low,,ISIC_1264725.JPG,,ISIC_0067205.JPG,,288,true,0.40000000000000024,lh,keypress(e),0,false,348349.7999999523,348349.5,341500.688,341748.09999990463,341517.251,348117.081,1,40,22,
sequence,flow.Sequence,6_21,2023-11-27T17:20:46.396Z,,,,,,,,,,,6832.249000000011,completion,,,,,,,low,low,,,,,,,true,,,,,false,348350.09999990463,348349.5,341500.688,341748.09999990463,341517.251,348117.081,1,40,,
trial,html.Screen,6_22_0,2023-11-27T17:20:49.468Z,,,,1,-1.2749714218614645,-1.1578619398362149,,,true,hh,3304.3189998569433,response,1.2100527057059796,1.2,-1.2,1.2159112471537263,1.2,-1.2,high,high,,ISIC_0024999.JPG,,ISIC_0008055.JPG,,25,true,0.14,hh,keypress(i),0,false,351421.59999990463,351421.39999985695,348100.415,348350.39999985695,348117.081,351200.625,1,40,23,
sequence,flow.Sequence,6_22,2023-11-27T17:20:49.468Z,,,,,,,,,,,3304.3189998569433,completion,,,,,,,high,high,,,,,,,true,,,,,false,351422.09999990463,351421.39999985695,348100.415,348350.39999985695,348117.081,351200.625,1,40,,
trial,html.Screen,6_23_0,2023-11-27T17:20:54.412Z,,,,1,1.1409143352872226,1.1323007949069106,,,true,ll,5164.774999856949,response,-1.266079261381142,1.2,-1.2,-1.312161506160336,1.2,-1.2,low,low,,ISIC_0030291.JPG,,ISIC_0065449.JPG,,30,true,0.13,ll,keypress(f),0,false,356365.7000000477,356365.39999985695,351183.972,351422.2999999523,351200.625,356167.045,1,40,24,
sequence,flow.Sequence,6_23,2023-11-27T17:20:54.412Z,,,,,,,,,,,5164.774999856949,completion,,,,,,,low,low,,,,,,,true,,,,,false,356366.2000000477,356365.39999985695,351183.972,351422.2000000477,351200.625,356167.045,1,40,,
trial,html.Screen,6_24_0,2023-11-27T17:20:58.654Z,,,,1,-0.8350129142228142,0.8172547818270586,,,false,hl,4439.254999952333,response,0.8828738626295417,1.2,-1.2,-0.8288177599439582,1.2,-1.2,high,low,,ISIC_0301568.JPG,,ISIC_0056041.JPG,,26,true,0.4500000000000003,lh,keypress(e),0,false,360606.5,360606.2999999523,356117.146,356366.2999999523,356167.045,360383.733,1,40,25,
sequence,flow.Sequence,6_24,2023-11-27T17:20:58.654Z,,,,,,,,,,,4439.254999952333,completion,,,,,,,high,low,,,,,,,true,,,,,false,360606.89999985695,360606.2999999523,356117.146,356366.2999999523,356167.045,360383.733,1,40,,
trial,html.Screen,6_25_0,2023-11-27T17:21:03.510Z,,,,1,-1.045301444872812,1.0872560254441277,,,false,hl,5078.467000047676,response,0.8719231363109603,1.2,-1.2,-0.7704280220140033,1.2,-1.2,high,low,,ISIC_4507700.JPG,,ISIC_0029453.JPG,,26,true,0.4500000000000003,hh,keypress(i),0,false,365462.5,365462.2000000477,360367.216,360607.09999990463,360383.733,365233.726,1,40,26,
sequence,flow.Sequence,6_25,2023-11-27T17:21:03.510Z,,,,,,,,,,,5078.467000047676,completion,,,,,,,high,low,,,,,,,true,,,,,false,365463,365462.2000000477,360367.216,360607,360383.733,365233.726,1,40,,
trial,html.Screen,6_26_0,2023-11-27T17:21:08.542Z,,,,1,-0.9633172970727744,0.8472659344792351,,,false,hl,5260.573999952292,response,0.7518277461369444,1.2,-1.2,-1.3860759020802074,1.2,-1.2,high,low,,ISIC_0067172.JPG,,ISIC_7967397.JPG,,26,true,0.4500000000000003,lh,keypress(e),0,false,370494.59999990463,370494.2999999523,365216.915,365463.2000000477,365233.726,370283.723,1,40,27,
sequence,flow.Sequence,6_26,2023-11-27T17:21:08.542Z,,,,,,,,,,,5260.573999952292,completion,,,,,,,high,low,,,,,,,true,,,,,false,370494.89999985695,370494.2999999523,365216.915,365463.09999990463,365233.726,370283.723,1,40,,
trial,html.Screen,6_27_0,2023-11-27T17:21:13.877Z,,,,1,0.8828738626295417,-0.8288177599439582,,,false,lh,5545.477000047686,response,-0.8307508446051526,1.2,-1.2,1.1707575338936729,1.2,-1.2,low,high,,ISIC_0056041.JPG,,ISIC_0028606.JPG,,27,true,0.40000000000000024,hh,keypress(i),0,false,375829.5,375829.2000000477,370250.25,370495.09999990463,370283.723,375600.429,1,40,28,
sequence,flow.Sequence,6_27,2023-11-27T17:21:13.877Z,,,,,,,,,,,5545.477000047686,completion,,,,,,,low,high,,,,,,,true,,,,,false,375829.7999999523,375829.2000000477,370250.25,370495.09999990463,370283.723,375600.429,1,40,,
trial,html.Screen,6_28_0,2023-11-27T17:21:19.845Z,,,,1,-1.2194553326562725,-1.2381726989215684,,,true,hh,6196.970999856945,response,1.1843968275545205,1.2,-1.2,1.2828739728067764,1.2,-1.2,high,high,,ISIC_0068975.JPG,,ISIC_0002901.JPG,,265,true,0.4500000000000003,hh,keypress(i),0,false,381797.59999990463,381797.39999985695,375583.798,375830,375600.429,381583.667,1,40,29,
sequence,flow.Sequence,6_28,2023-11-27T17:21:19.846Z,,,,,,,,,,,6196.970999856945,completion,,,,,,,high,high,,,,,,,true,,,,,false,381798.09999990463,381797.39999985695,375583.798,375829.89999985695,375600.429,381583.667,1,40,,
trial,html.Screen,6_29_0,2023-11-27T17:21:22.149Z,,,,1,-0.9089402323867112,0.8034544077281132,,,false,hl,2517.4329999046167,response,0.7883321712536753,1.2,-1.2,-1.0011430756825364,1.2,-1.2,high,low,,ISIC_3585381.JPG,,ISIC_9828853.JPG,,26,true,0.4500000000000003,hh,keypress(i),0,false,384101.39999985695,384101.09999990463,381550.403,381798.2999999523,381583.667,383867.07,1,40,30,
sequence,flow.Sequence,6_29,2023-11-27T17:21:22.149Z,,,,,,,,,,,2517.4329999046167,completion,,,,,,,high,low,,,,,,,true,,,,,false,384101.7999999523,384101.09999990463,381550.403,381798.2000000477,381583.667,383867.07,1,40,,
trial,html.Screen,6_30_0,2023-11-27T17:21:25.190Z,,,,1,-0.8867328775712738,1.0063426986460375,,,false,hl,3275.329999856942,response,0.989300717252516,1.2,-1.2,-0.7908280206937478,1.2,-1.2,high,low,,ISIC_0055759.JPG,,ISIC_6416533.JPG,,26,true,0.4500000000000003,hh,keypress(i),0,false,387142.7999999523,387142.39999985695,383850.563,384102,383867.07,386916.971,1,40,31,
sequence,flow.Sequence,6_30,2023-11-27T17:21:25.191Z,,,,,,,,,,,3275.329999856942,completion,,,,,,,high,low,,,,,,,true,,,,,false,387143.09999990463,387142.39999985695,383850.563,384102,383867.07,386916.971,1,40,,
trial,html.Screen,6_31_0,2023-11-27T17:21:27.366Z,,,,1,-0.9617893983965208,0.9453006131304652,,,false,hl,2401.0289999999804,response,1.058275612142778,1.2,-1.2,-0.7824898568540655,1.2,-1.2,high,low,,ISIC_4229473.JPG,,ISIC_4906385.JPG,,26,true,0.4500000000000003,hh,keypress(i),0,false,389318.2000000477,389318,386900.41,387143.2999999523,386916.971,389083.703,1,40,32,
sequence,flow.Sequence,6_31,2023-11-27T17:21:27.366Z,,,,,,,,,,,2401.0289999999804,completion,,,,,,,high,low,,,,,,,true,,,,,false,389318.59999990463,389318,386900.41,387143.2999999523,386916.971,389083.703,1,40,,
trial,html.Screen,6_32_0,2023-11-27T17:21:31.221Z,,,,1,1.3246728710248594,1.1527736000922424,,,false,ll,4089.497000047704,response,-1.1852597097363948,1.2,-1.2,-1.4901127027895635,1.2,-1.2,low,low,,ISIC_6876281.JPG,,ISIC_0033261.JPG,,288,true,0.40000000000000024,hl,keypress(j),0,false,393173.5,393173.2000000477,389067.073,389318.7000000477,389083.703,392950.312,1,40,33,
sequence,flow.Sequence,6_32,2023-11-27T17:21:31.221Z,,,,,,,,,,,4089.497000047704,completion,,,,,,,low,low,,,,,,,true,,,,,false,393173.7999999523,393173.2000000477,389067.073,389318.7000000477,389083.703,392950.312,1,40,,
trial,html.Screen,6_33_0,2023-11-27T17:21:36.422Z,,,,1,-1.2020012168275056,0.923753102263735,,,false,hl,5424.087999856973,response,0.8828738626295417,1.2,-1.2,-0.8288177599439582,1.2,-1.2,high,low,,ISIC_0000022.JPG,,ISIC_0056041.JPG,,26,true,0.4500000000000003,ll,keypress(f),0,false,398374.7000000477,398374.39999985695,392933.768,393174.09999990463,392950.312,398150.379,1,40,34,
sequence,flow.Sequence,6_33,2023-11-27T17:21:36.423Z,,,,,,,,,,,5424.087999856973,completion,,,,,,,high,low,,,,,,,true,,,,,false,398375.09999990463,398374.39999985695,392933.768,393174,392950.312,398150.379,1,40,,
trial,html.Screen,6_34_0,2023-11-27T17:21:52.192Z,,,,1,1.3379750533585932,1.1671342614509763,,,,,15783.213999999978,timeout,-1.2014901828022857,1.2,-1.2,-1.1484096197304636,1.2,-1.2,low,low,,ISIC_0063556.JPG,,ISIC_0067808.JPG,,288,true,0.40000000000000024,,,0,false,414144.59999990463,414144.2999999523,398133.634,398375.2999999523,398150.379,413933.593,1,40,35,
sequence,flow.Sequence,6_34,2023-11-27T17:21:52.192Z,,,,,,,,,,,15993.920999952301,completion,,,,,,,low,low,,,,,,,true,,,,,false,414144.7999999523,414144.2999999523,398133.634,398375.2999999523,398150.379,413933.593,1,40,,
trial,html.Screen,6_35_0,2023-11-27T17:22:07.495Z,,,,1,0.7518277461369444,-1.3860759020802074,,,true,lh,15512.706999952323,response,-1.0116417541846066,1.2,-1.2,1.033442916947398,1.2,-1.2,low,high,,ISIC_7967397.JPG,,ISIC_0031389.JPG,,27,true,0.40000000000000024,lh,keypress(e),0,false,429446.59999990463,429446.2999999523,413900.383,414145,413933.593,429216.915,1,40,36,
sequence,flow.Sequence,6_35,2023-11-27T17:22:07.496Z,,,,,,,,,,,15512.706999952323,completion,,,,,,,low,high,,,,,,,true,,,,,false,429447,429446.2999999523,413900.383,414145,413933.593,429216.915,1,40,,
trial,html.Screen,6_36_0,2023-11-27T17:22:09.886Z,,,,1,1.0659165756604234,1.0867497316848906,,,false,ll,2620.3849999523372,response,-0.8235078329687798,1.2,-1.2,-1.310929698793416,1.2,-1.2,low,low,,ISIC_5807608.JPG,,ISIC_4509925.JPG,,359,true,0.4500000000000003,hh,keypress(i),0,false,431837.59999990463,431837.2999999523,429199.969,429447.2000000477,429216.915,431617.152,1,40,37,
sequence,flow.Sequence,6_36,2023-11-27T17:22:09.886Z,,,,,,,,,,,2620.3849999523372,completion,,,,,,,low,low,,,,,,,true,,,,,false,431838,431837.2999999523,429199.969,429447.2000000477,429216.915,431617.152,1,40,,
trial,html.Screen,6_37_0,2023-11-27T17:22:15.430Z,,,,1,1.2541318165695772,1.085289936617366,,,true,ll,5763.747999856947,response,-1.1668613502915044,1.2,-1.2,-1.327068780840367,1.2,-1.2,low,low,,ISIC_4277207.JPG,,ISIC_0054459.JPG,,40,true,0.14,ll,keypress(f),0,false,437381.2000000477,437380.89999985695,431600.298,431838.2999999523,431617.152,437150.258,1,40,38,
sequence,flow.Sequence,6_37,2023-11-27T17:22:15.430Z,,,,,,,,,,,5763.747999856947,completion,,,,,,,low,low,,,,,,,true,,,,,false,437381.59999990463,437380.89999985695,431600.298,431838.09999990463,431617.152,437150.258,1,40,,
trial,html.Screen,6_38_0,2023-11-27T17:22:20.566Z,,,,1,1.2219550761700546,1.2809901875733454,,,false,ll,5367.141999856976,response,-1.0653732408486678,1.2,-1.2,-1.089675540151582,1.2,-1.2,low,low,,ISIC_6463417.JPG,,ISIC_0058315.JPG,,40,true,0.14,hl,keypress(j),0,false,442517.7000000477,442517.39999985695,437133.413,437381.7999999523,437150.258,442300.18,1,40,39,
sequence,flow.Sequence,6_38,2023-11-27T17:22:20.567Z,,,,,,,,,,,5367.141999856976,completion,,,,,,,low,low,,,,,,,true,,,,,false,442518.2000000477,442517.39999985695,437133.413,437381.7000000477,437150.258,442300.18,1,40,,
trial,html.Screen,6_39_0,2023-11-27T17:22:23.046Z,,,,1,1.199471562817528,-0.8631260534979347,,,false,lh,2697.0200000476907,response,-0.8987343013179191,1.2,-1.2,0.8149073454566363,1.2,-1.2,low,high,,ISIC_0030754.JPG,,ISIC_0472513.JPG,,27,true,0.40000000000000024,hh,keypress(i),0,false,444997.39999985695,444997.2000000477,442266.71,442518.39999985695,442300.18,444766.9,1,40,40,
sequence,flow.Sequence,6_39,2023-11-27T17:22:23.046Z,,,,,,,,,,,2697.0200000476907,completion,,,,,,,low,high,,,,,,,true,,,,,false,444997.7000000477,444997.2000000477,442266.71,442518.39999985695,442300.18,444766.9,1,40,,
practice_loop,flow.Loop,6,2023-11-27T17:22:23.046Z,,,,,,,,,,,200713.13300004767,completion,,,,,,,,,,,,,,,true,,,,,false,444998,444997.2000000477,244234.287,244491.79999995232,244284.067,444766.9,1,40,,
stair_instructions,html.Screen,7,2023-11-27T17:22:28.404Z,,,,,,,,,,,5587.999999856926,response,,,,,,,,,,,,,,,,,continue,click button,,,450355.5,450354.89999985695,444750.321,444998.09999990463,444766.9,450133.466,,,,
trial,html.Screen,8_0_0,2023-11-27T17:22:34.344Z,,,,2,0.0009714874637896,-0.0174815595031679,,0.04,true,hh,6162.033999999985,response,0.9048246926578776,1.2,-1.2,1.0392108946107133,1.2,-1.2,high,high,,ISIC_9848743.JPG,,ISIC_0068544.JPG,28,265,false,0.4500000000000003,hh,keypress(i),0,true,456295.59999990463,456295.5,450116.999,450355.59999990463,450133.466,456083.51,1,40,1,
sequence,flow.Sequence,8_0,2023-11-27T17:22:34.344Z,,,,,,,,,,,6162.033999999985,completion,,,,,,,high,high,,,,,,,false,,,,,true,456295.7000000477,456295.5,450116.999,450355.59999990463,450133.466,456083.51,1,40,,
trial,html.Screen,8_1_0,2023-11-27T17:22:37.468Z,,,,2,0.0200295718112167,0.0155559071275806,,0.04,true,hh,3336.0899999046233,response,1.0943527860463682,1.15,-1.15,1.124481746658104,1.15,-1.15,high,high,,ISIC_0061343.JPG,,ISIC_0438136.JPG,28,27,false,0.14,hh,keypress(i),0,true,459419.7000000477,459419.59999990463,456067.012,456295.7999999523,456083.51,459183.46,1,40,2,
sequence,flow.Sequence,8_1,2023-11-27T17:22:37.468Z,,,,,,,,,,,3336.0899999046233,completion,,,,,,,high,high,,,,,,,false,,,,,true,459419.89999985695,459419.59999990463,456067.012,456295.7999999523,456083.51,459183.46,1,40,,
trial,html.Screen,8_2_0,2023-11-27T17:22:42.125Z,,,,2,0.0367744112927588,0.0324865661712824,,0.04,false,ll,4892.939999856928,response,-1.2194553326562725,1.0318463206344086,-1.15,-1.2381726989215684,1.0318463206344086,-1.15,low,low,,ISIC_4523565.JPG,,ISIC_0068975.JPG,28,27,false,0.1,hl,keypress(j),0,true,464076.5,464076.39999985695,459166.867,459419.89999985695,459183.46,463850.126,1,40,3,
sequence,flow.Sequence,8_2,2023-11-27T17:22:42.125Z,,,,,,,,,,,4892.939999856928,completion,,,,,,,low,low,,,,,,,false,,,,,true,464076.5,464076.39999985695,459166.867,459419.89999985695,459183.46,463850.126,1,40,,
trial,html.Screen,8_3_0,2023-11-27T17:22:45.500Z,,,,2,-0.0374659946425444,-0.0086043094957617,,0.04,false,lh,3601.4739999046433,response,-0.9617893983965208,1.0318463206344086,-1.15,0.9453006131304652,1.0318463206344086,-1.15,low,high,,ISIC_0033051.JPG,,ISIC_4229473.JPG,28,25,false,0.29000000000000015,ll,keypress(f),0,true,467451.7000000477,467451.59999990463,463833.444,464076.59999990463,463850.126,467216.78,1,40,4,
sequence,flow.Sequence,8_3,2023-11-27T17:22:45.500Z,,,,,,,,,,,3601.4739999046433,completion,,,,,,,low,high,,,,,,,false,,,,,true,467451.7999999523,467451.59999990463,463833.444,464076.59999990463,463850.126,467216.78,1,40,,
trial,html.Screen,8_4_0,2023-11-27T17:22:48.332Z,,,,2,0.0009714874637896,-0.0174815595031679,,0.04,false,lh,3066.619999856921,response,-1.0926414044454305,1.0318463206344086,-1.15,0.7741624649032207,1.0818463206344087,-1.15,low,high,,ISIC_9848743.JPG,,ISIC_2355513.JPG,28,27,false,0.31000000000000016,ll,keypress(f),0,true,470283.5,470283.39999985695,467200.236,467451.89999985695,467216.78,470050.056,1,40,5,
sequence,flow.Sequence,8_4,2023-11-27T17:22:48.332Z,,,,,,,,,,,3066.619999856921,completion,,,,,,,low,high,,,,,,,false,,,,,true,470283.7000000477,470283.39999985695,467200.236,467451.89999985695,467216.78,470050.056,1,40,,
trial,html.Screen,8_5_0,2023-11-27T17:22:52.510Z,,,,2,0.0118382036798625,0.0300588245877227,,0.04,false,hl,4411.644000047701,response,1.199471562817528,1.0318463206344086,-0.9772154014209755,-0.8631260534979347,1.1318463206344087,-1.15,high,low,,ISIC_4748605.JPG,,ISIC_0030754.JPG,28,25,false,0.3400000000000002,ll,keypress(f),0,true,474462,474461.7000000477,470033.387,470283.7000000477,470050.056,474233.423,1,40,6,
sequence,flow.Sequence,8_5,2023-11-27T17:22:52.511Z,,,,,,,,,,,4411.644000047701,completion,,,,,,,high,low,,,,,,,false,,,,,true,474462.39999985695,474461.7000000477,470033.387,470283.7000000477,470050.056,474233.423,1,40,,
trial,html.Screen,8_6_0,2023-11-27T17:22:55.983Z,,,,2,-0.0198696495649504,0.0387952353063878,,0.04,false,lh,3700.676999904623,response,-0.8500530224490773,1.0818463206344087,-0.9772154014209755,1.0893360711742854,1.1318463206344087,-0.8624577259472277,low,high,,ISIC_6735970.JPG,,ISIC_2998367.JPG,28,29,false,0.29000000000000015,hh,keypress(i),0,true,477934.39999985695,477934.09999990463,474216.817,474462.5,474233.423,477700.113,1,40,7,
sequence,flow.Sequence,8_6,2023-11-27T17:22:55.983Z,,,,,,,,,,,3700.676999904623,completion,,,,,,,low,high,,,,,,,false,,,,,true,477934.7999999523,477934.09999990463,474216.817,474462.5,474233.423,477700.113,1,40,,
trial,html.Screen,8_7_0,2023-11-27T17:22:59.335Z,,,,2,0.0283578106329894,-0.0088840758711548,,0.04,true,hh,3584.7869998569367,response,1.0777929856705222,1.0818463206344087,-1.0272154014209756,1.0139833925057518,1.1318463206344087,-0.8624577259472277,high,high,,ISIC_0060707.JPG,,ISIC_6171084.JPG,28,25,false,0.14,hh,keypress(i),0,true,481285.2000000477,481284.89999985695,477683.571,477934.89999985695,477700.113,481050.138,1,40,8,
sequence,flow.Sequence,8_7,2023-11-27T17:22:59.335Z,,,,,,,,,,,3584.7869998569367,completion,,,,,,,high,high,,,,,,,false,,,,,true,481285.59999990463,481284.89999985695,477683.571,477934.7999999523,477700.113,481050.138,1,40,,
trial,html.Screen,8_8_0,2023-11-27T17:23:03.143Z,,,,2,-0.001445457736793,-0.0165307427449982,,0.04,true,hh,4042.862000000023,response,1.1290536173202614,1.0818463206344087,-1.0272154014209756,0.9768663240505168,0.9958881890881368,-0.8624577259472277,high,high,,ISIC_0027350.JPG,,ISIC_2196127.JPG,28,27,false,0.1,hh,keypress(i),0,true,485093.2999999523,485093,481033.355,481285.7999999523,481050.138,484866.793,1,40,9,
sequence,flow.Sequence,8_8,2023-11-27T17:23:03.143Z,,,,,,,,,,,4042.862000000023,completion,,,,,,,high,high,,,,,,,false,,,,,true,485093.7000000477,485093,481033.355,481285.7999999523,481050.138,484866.793,1,40,,
trial,html.Screen,8_9_0,2023-11-27T17:23:06.879Z,,,,2,0.0009714874637896,-0.0174815595031679,,0.04,false,ll,3962.706999999995,response,-1.063389737009574,1.0029599706853891,-1.0272154014209756,-0.8248153645014629,0.9958881890881368,-0.8624577259472277,low,low,,ISIC_9848743.JPG,,ISIC_0027104.JPG,28,35,false,0.1,lh,keypress(e),0,true,488829.7999999523,488829.5,484849.969,485093.89999985695,484866.793,488600.053,1,40,10,
sequence,flow.Sequence,8_9,2023-11-27T17:23:06.880Z,,,,,,,,,,,3962.706999999995,completion,,,,,,,low,low,,,,,,,false,,,,,true,488830.2000000477,488829.5,484849.969,485093.7999999523,484866.793,488600.053,1,40,,
trial,html.Screen,8_10_0,2023-11-27T17:23:09.111Z,,,,2,0.0118382036798625,0.0300588245877227,,0.04,false,hl,2460.9469999999856,response,0.8719231363109603,1.0029599706853891,-1.0272154014209756,-0.7704280220140033,0.9958881890881368,-0.9124577259472277,high,low,,ISIC_4748605.JPG,,ISIC_0029453.JPG,28,29,false,0.22000000000000008,hh,keypress(i),0,true,491061.2999999523,491061,488583.404,488830.5,488600.053,490833.442,1,40,11,
sequence,flow.Sequence,8_10,2023-11-27T17:23:09.111Z,,,,,,,,,,,2460.9469999999856,completion,,,,,,,high,low,,,,,,,false,,,,,true,491061.7000000477,491061,488583.404,488830.39999985695,488600.053,490833.442,1,40,,
trial,html.Screen,8_11_0,2023-11-27T17:23:12.798Z,,,,2,0.0119001144851157,-0.0063430114540141,,0.04,true,lh,3914.957999856968,response,-0.8350129142228142,1.0029599706853891,-1.0272154014209756,0.8172547818270586,0.9958881890881368,-0.9624577259472278,low,high,,ISIC_0003822.JPG,,ISIC_0301568.JPG,28,26,false,0.2300000000000001,lh,keypress(e),0,true,494748.5,494748.39999985695,490816.743,491061.89999985695,490833.442,494516.754,1,40,12,
sequence,flow.Sequence,8_11,2023-11-27T17:23:12.798Z,,,,,,,,,,,3914.957999856968,completion,,,,,,,low,high,,,,,,,false,,,,,true,494748.5,494748.39999985695,490816.743,491061.7999999523,490833.442,494516.754,1,40,,
trial,html.Screen,8_12_0,2023-11-27T17:23:15.192Z,,,,2,-0.039520186367207,-0.0377961575607372,,0.04,true,hh,2625.2459999999846,response,0.9582474649169744,1.0029599706853891,-0.9772154014209755,0.8117789358233404,0.7945889590690094,-0.9624577259472278,high,high,,ISIC_6356149.JPG,,ISIC_0821520.JPG,28,44,false,0.1,hh,keypress(i),0,true,497142.2000000477,497142,494500.201,494748.59999990463,494516.754,496916.767,1,40,13,
sequence,flow.Sequence,8_12,2023-11-27T17:23:15.192Z,,,,,,,,,,,2625.2459999999846,completion,,,,,,,high,high,,,,,,,false,,,,,true,497142.59999990463,497142,494500.201,494748.5,494516.754,496916.767,1,40,,
trial,html.Screen,8_13_0,2023-11-27T17:23:18.486Z,,,,2,0.0076984477620101,0.0069458408496562,,0.04,true,lh,3519.5329999523237,response,-1.0493056984693587,0.8350132003701574,-0.9772154014209755,0.6543707247604539,0.7945889590690094,-0.9624577259472278,low,high,,ISIC_0000434.JPG,,ISIC_8160596.JPG,28,27,false,0.17000000000000004,lh,keypress(e),0,true,500436.39999985695,500436.2999999523,496900.091,497142.7999999523,496916.767,500199.99,1,40,14,
sequence,flow.Sequence,8_13,2023-11-27T17:23:18.486Z,,,,,,,,,,,3519.5329999523237,completion,,,,,,,low,high,,,,,,,false,,,,,true,500436.5,500436.2999999523,496900.091,497142.7999999523,496916.767,500199.99,1,40,,
trial,html.Screen,8_14_0,2023-11-27T17:23:22.352Z,,,,2,0.0220026381002083,-0.0170756452911772,,0.04,true,ll,4102.210000047693,response,-0.9837331918354912,0.8350132003701574,-0.9772154014209755,-0.9130384672883698,0.7445889590690093,-0.9624577259472278,low,low,,ISIC_5347806.JPG,,ISIC_0001108.JPG,28,36,false,0.1,ll,keypress(f),0,true,504302.5,504302.2000000477,500183.474,500436.59999990463,500199.99,504066.731,1,40,15,
sequence,flow.Sequence,8_14,2023-11-27T17:23:22.352Z,,,,,,,,,,,4102.210000047693,completion,,,,,,,low,low,,,,,,,false,,,,,true,504302.7999999523,504302.2000000477,500183.474,500436.5,500199.99,504066.731,1,40,,
trial,html.Screen,8_15_0,2023-11-27T17:23:26.672Z,,,,2,-0.0374659946425444,-0.0086043094957617,,0.04,false,ll,4555.368999904604,response,-0.871661188387271,0.8350132003701574,-0.8983858295619305,-0.9067170027344016,0.7445889590690093,-0.9624577259472278,low,low,,ISIC_0033051.JPG,,ISIC_0026586.JPG,28,45,false,0.1,lh,keypress(e),0,true,508622.39999985695,508622.09999990463,504050.057,504303.09999990463,504066.731,508400.2,1,40,16,
sequence,flow.Sequence,8_15,2023-11-27T17:23:26.672Z,,,,,,,,,,,4555.368999904604,completion,,,,,,,low,low,,,,,,,false,,,,,true,508622.7999999523,508622.09999990463,504050.057,504302.89999985695,504066.731,508400.2,1,40,,
trial,html.Screen,8_16_0,2023-11-27T17:23:31.376Z,,,,2,0.0367706518941078,-0.0161069838272154,,0.04,false,hh,4925.599999952305,response,0.8312854004298869,0.8350132003701574,-0.8983858295619305,0.7459511759516213,0.7445889590690093,-1.0124577259472278,high,high,,ISIC_0033419.JPG,,ISIC_8690205.JPG,28,52,false,0.1,lh,keypress(e),0,true,513326,513325.7999999523,508383.445,508623,508400.2,513100.16,1,40,17,
sequence,flow.Sequence,8_16,2023-11-27T17:23:31.376Z,,,,,,,,,,,4925.599999952305,completion,,,,,,,high,high,,,,,,,false,,,,,true,513326.5,513325.7999999523,508383.445,508623,508400.2,513100.16,1,40,,
trial,html.Screen,8_17_0,2023-11-27T17:23:39.535Z,,,,2,0.0076984477620101,0.0069458408496562,,0.04,true,ll,8384.939999904658,response,-0.9866910776752168,0.8850132003701574,-0.8983858295619305,-0.9730788960408626,0.7445889590690093,-1.0124577259472278,low,low,,ISIC_0000434.JPG,,ISIC_0070003.JPG,28,38,false,0.1,ll,keypress(f),0,true,521485.2999999523,521485.09999990463,513083.347,513326.7000000477,513100.16,521250.024,1,40,18,
sequence,flow.Sequence,8_17,2023-11-27T17:23:39.535Z,,,,,,,,,,,8384.939999904658,completion,,,,,,,low,low,,,,,,,false,,,,,true,521485.7999999523,521485.09999990463,513083.347,513326.7000000477,513100.16,521250.024,1,40,,
trial,html.Screen,8_18_0,2023-11-27T17:23:43.648Z,,,,2,-0.0388334549081915,0.0303399972963369,,0.04,false,ll,4348.176000047708,response,-0.8481980365756594,0.8850132003701574,-0.9298849868580397,-0.9581202232187236,0.7445889590690093,-1.0124577259472278,low,low,,ISIC_4961708.JPG,,ISIC_0031784.JPG,28,33,false,0.1,hh,keypress(i),0,true,525598.399999857,525598.2000000477,521233.079,521485.89999985695,521250.024,525366.596,1,40,19,
sequence,flow.Sequence,8_18,2023-11-27T17:23:43.648Z,,,,,,,,,,,4348.176000047708,completion,,,,,,,low,low,,,,,,,false,,,,,true,525598.899999857,525598.2000000477,521233.079,521485.7999999523,521250.024,525366.596,1,40,,
trial,html.Screen,8_19_0,2023-11-27T17:23:50.031Z,,,,2,0.0044063257337227,0.0172548282859886,,0.04,false,hl,6614.303999856929,response,0.653428169925849,0.8850132003701574,-0.9798849868580397,-1.1440026895944202,0.7445889590690093,-1.0624577259472279,high,low,,ISIC_7413786.JPG,,ISIC_0031214.JPG,28,25,false,0.2400000000000001,lh,keypress(e),0,true,531981.0999999046,531980.899999857,525349.974,525599.0999999046,525366.596,531749.944,1,40,20,
sequence,flow.Sequence,8_19,2023-11-27T17:23:50.031Z,,,,,,,,,,,6614.303999856929,completion,,,,,,,high,low,,,,,,,false,,,,,true,531981.5,531980.899999857,525349.974,525599.0999999046,525366.596,531749.944,1,40,,
trial,html.Screen,8_20_0,2023-11-27T17:23:54.367Z,,,,2,-0.001445457736793,-0.0165307427449982,,0.04,false,hl,4567.256000047666,response,0.6959094243328406,0.9350132003701574,-0.9798849868580397,-1.3388538533743155,0.7445889590690093,-1.112457725947228,high,low,,ISIC_0027350.JPG,,ISIC_5547318.JPG,28,28,false,0.29000000000000015,hh,keypress(i),0,true,536317.5,536317.2000000477,531733.292,531981.7000000477,531749.944,536083.314,1,40,21,
sequence,flow.Sequence,8_20,2023-11-27T17:23:54.367Z,,,,,,,,,,,4567.256000047666,completion,,,,,,,high,low,,,,,,,false,,,,,true,536317.7999999523,536317.2000000477,531733.292,531981.5999999046,531749.944,536083.314,1,40,,
trial,html.Screen,8_21_0,2023-11-27T17:23:56.857Z,,,,2,0.0308384937406319,-0.0038396364323947,,0.04,true,hh,2722.585999856936,response,0.9802565668865412,0.9350132003701574,-0.9798849868580397,0.7107803735101691,0.7445889590690093,-1.162457725947228,high,high,,ISIC_0029825.JPG,,ISIC_0024683.JPG,28,52,false,0.1,hh,keypress(i),0,true,538806.0999999046,538805.899999857,536066.598,536318,536083.314,538583.329,1,40,22,
sequence,flow.Sequence,8_21,2023-11-27T17:23:56.857Z,,,,,,,,,,,2722.585999856936,completion,,,,,,,high,high,,,,,,,false,,,,,true,538806.5,538805.899999857,536066.598,536318,536083.314,538583.329,1,40,,
trial,html.Screen,8_22_0,2023-11-27T17:24:01.080Z,,,,2,0.0200295718112167,0.0155559071275806,,0.04,false,hl,4445.470999952289,response,0.5871963906675944,0.6533448989215048,-0.9798849868580397,-0.9874585599447032,0.6533448989215048,-1.162457725947228,high,low,,ISIC_0061343.JPG,,ISIC_0066338.JPG,28,26,false,0.20000000000000007,lh,keypress(e),0,true,543029,543028.7999999523,538566.725,538806.7000000477,538583.329,542799.969,1,40,23,
sequence,flow.Sequence,8_22,2023-11-27T17:24:01.080Z,,,,,,,,,,,4445.470999952289,completion,,,,,,,high,low,,,,,,,false,,,,,true,543029.399999857,543028.7999999523,538566.725,538806.5999999046,538583.329,542799.969,1,40,,
trial,html.Screen,8_23_0,2023-11-27T17:24:06.296Z,,,,2,-0.0109416414475118,-0.005246498750811,,0.04,false,ll,5445.231000047643,response,-0.964669365927474,0.7033448989215049,-0.9798849868580397,-1.249769905427088,0.6533448989215048,-1.162457725947228,low,low,,ISIC_0064279.JPG,,ISIC_0071806.JPG,28,38,false,0.1,lh,keypress(e),0,true,548245.399999857,548245.2000000477,542783.353,543029.5,542799.969,548016.561,1,40,24,
sequence,flow.Sequence,8_23,2023-11-27T17:24:06.296Z,,,,,,,,,,,5445.231000047643,completion,,,,,,,low,low,,,,,,,false,,,,,true,548245.5999999046,548245.2000000477,542783.353,543029.5,542799.969,548016.561,1,40,,
trial,html.Screen,8_24_0,2023-11-27T17:24:09.335Z,,,,2,0.0200295718112167,0.0155559071275806,,0.04,true,ll,3267.2389999523293,response,-0.9430679164922772,0.7033448989215049,-0.9798849868580397,-1.124157865127501,0.6533448989215048,-1.162457725947228,low,low,,ISIC_0061343.JPG,,ISIC_0062111.JPG,28,38,false,0.1,ll,keypress(f),0,true,551284,551283.7999999523,547999.954,548245.7999999523,548016.561,551049.892,1,40,25,
sequence,flow.Sequence,8_24,2023-11-27T17:24:09.335Z,,,,,,,,,,,3267.2389999523293,completion,,,,,,,low,low,,,,,,,false,,,,,true,551284.0999999046,551283.7999999523,547999.954,548245.7000000477,548016.561,551049.892,1,40,,
trial,html.Screen,8_25_0,2023-11-27T17:24:14.368Z,,,,2,0.0009714874637896,-0.0174815595031679,,0.04,true,hh,5267.407999952324,response,0.6668181880078864,0.7033448989215049,-0.9836128908098891,0.7469846548973061,0.6533448989215048,-1.162457725947228,high,high,,ISIC_9848743.JPG,,ISIC_9448281.JPG,28,86,false,0.1,hh,keypress(i),0,true,556317.5,556317.2999999523,551033.288,551284.0999999046,551049.892,556083.238,1,40,26,
sequence,flow.Sequence,8_25,2023-11-27T17:24:14.368Z,,,,,,,,,,,5267.407999952324,completion,,,,,,,high,high,,,,,,,false,,,,,true,556317.899999857,556317.2999999523,551033.288,551284.0999999046,551049.892,556083.238,1,40,,
trial,html.Screen,8_26_0,2023-11-27T17:24:17.080Z,,,,2,-0.0241900387072296,0.0339955304424736,,0.04,true,hl,2945.8619999046205,response,0.5871963906675944,0.7033448989215049,-0.9836128908098891,-0.9874585599447032,0.6533448989215048,-1.162457725947228,high,low,,ISIC_0010789.JPG,,ISIC_0066338.JPG,28,25,false,0.21000000000000008,hl,keypress(j),0,true,559029.399999857,559029.0999999046,556066.628,556318.0999999046,556083.238,558799.859,1,40,27,
sequence,flow.Sequence,8_26,2023-11-27T17:24:17.080Z,,,,,,,,,,,2945.8619999046205,completion,,,,,,,high,low,,,,,,,false,,,,,true,559029.7999999523,559029.0999999046,556066.628,556318,556083.238,558799.859,1,40,,
trial,html.Screen,8_27_0,2023-11-27T17:24:20.736Z,,,,2,-0.0198696495649504,0.0387952353063878,,0.04,false,lh,3884.9409999522613,response,-0.9788979939580964,0.6533448989215048,-0.9836128908098891,0.5887302037399024,0.6533448989215048,-1.112457725947228,low,high,,ISIC_6735970.JPG,,ISIC_0331389.JPG,28,26,false,0.15000000000000002,hl,keypress(j),0,true,562685.0999999046,562684.7999999523,558783.236,559030,558799.859,562449.923,1,40,28,
sequence,flow.Sequence,8_27,2023-11-27T17:24:20.736Z,,,,,,,,,,,3884.9409999522613,completion,,,,,,,low,high,,,,,,,false,,,,,true,562685.5,562684.7999999523,558783.236,559029.899999857,558799.859,562449.923,1,40,,
trial,html.Screen,8_28_0,2023-11-27T17:24:25.200Z,,,,2,0.0257631352671967,0.0202837002774028,,0.04,false,hl,4699.077000000048,response,0.5362837174013941,0.6533448989215048,-1.0336128908098892,-1.2155631217348757,0.7033448989215049,-1.112457725947228,high,low,,ISIC_0032797.JPG,,ISIC_0032610.JPG,28,25,false,0.19000000000000006,hh,keypress(i),0,true,567149.2999999523,567149,562433.211,562685.7000000477,562449.923,566916.505,1,40,29,
sequence,flow.Sequence,8_28,2023-11-27T17:24:25.200Z,,,,,,,,,,,4699.077000000048,completion,,,,,,,high,low,,,,,,,false,,,,,true,567149.5,567149,562433.211,562685.5999999046,562449.923,566916.505,1,40,,
trial,html.Screen,8_29_0,2023-11-27T17:24:28.264Z,,,,2,0.0044063257337227,0.0172548282859886,,0.04,false,lh,3296.594999904628,response,-0.9377879738246,0.6533448989215048,-1.0336128908098892,0.6684167919118053,0.7033448989215049,-1.162457725947228,low,high,,ISIC_7413786.JPG,,ISIC_0028986.JPG,28,25,false,0.17000000000000004,ll,keypress(f),0,true,570213.2999999523,570213.0999999046,566899.869,567149.5999999046,566916.505,569983.164,1,40,30,
sequence,flow.Sequence,8_29,2023-11-27T17:24:28.264Z,,,,,,,,,,,3296.594999904628,completion,,,,,,,low,high,,,,,,,false,,,,,true,570213.7000000477,570213.0999999046,566899.869,567149.5999999046,566916.505,569983.164,1,40,,
trial,html.Screen,8_30_0,2023-11-27T17:24:31.297Z,,,,2,-0.0109416414475118,-0.005246498750811,,0.04,true,hh,3262.8360000000102,response,0.7294331040268569,0.6533448989215048,-1.0336128908098892,0.667144797155413,0.7533448989215049,-1.162457725947228,high,high,,ISIC_0064279.JPG,,ISIC_4692454.JPG,28,86,false,0.1,hh,keypress(i),0,true,573246.2999999523,573246,569966.443,570213.899999857,569983.164,573016.466,1,40,31,
sequence,flow.Sequence,8_30,2023-11-27T17:24:31.297Z,,,,,,,,,,,3262.8360000000102,completion,,,,,,,high,high,,,,,,,false,,,,,true,573246.7000000477,573246,569966.443,570213.899999857,569983.164,573016.466,1,40,,
trial,html.Screen,8_31_0,2023-11-27T17:24:33.663Z,,,,2,0.0076984477620101,0.0069458408496562,,0.04,false,hl,2595.734000047669,response,0.6761556401281956,0.6482889505911349,-1.0336128908098892,-0.9655386457143784,0.7533448989215049,-1.162457725947228,high,low,,ISIC_0000434.JPG,,ISIC_8268025.JPG,28,26,false,0.20000000000000007,hh,keypress(i),0,true,575612.399999857,575612.2000000477,572999.922,573246.899999857,573016.466,575383.208,1,40,32,
sequence,flow.Sequence,8_31,2023-11-27T17:24:33.663Z,,,,,,,,,,,2595.734000047669,completion,,,,,,,high,low,,,,,,,false,,,,,true,575612.399999857,575612.2000000477,572999.922,573246.899999857,573016.466,575383.208,1,40,,
trial,html.Screen,8_32_0,2023-11-27T17:24:36.320Z,,,,2,-0.0388334549081915,0.0303399972963369,,0.04,false,hl,2885.6919998569647,response,0.5730480455113682,0.6482889505911349,-1.0336128908098892,-1.0261745987608817,0.7533448989215049,-1.162457725947228,high,low,,ISIC_4961708.JPG,,ISIC_9546876.JPG,28,26,false,0.20000000000000007,hh,keypress(i),0,true,578269.0999999046,578268.899999857,575366.501,575612.5,575383.208,578051.077,1,40,33,
sequence,flow.Sequence,8_32,2023-11-27T17:24:36.320Z,,,,,,,,,,,2885.6919998569647,completion,,,,,,,high,low,,,,,,,false,,,,,true,578269.5999999046,578268.899999857,575366.501,575612.399999857,575383.208,578051.077,1,40,,
trial,html.Screen,8_33_0,2023-11-27T17:24:38.792Z,,,,2,-0.0388181790775959,0.0049623405709465,,0.04,false,lh,2689.6230000476353,response,-0.9138670886161264,0.5746018428197819,-1.0336128908098892,0.8414121478342018,0.7533448989215049,-1.162457725947228,low,high,,ISIC_0061880.JPG,,ISIC_6709052.JPG,28,27,false,0.18000000000000005,ll,keypress(f),0,true,580740.899999857,580740.7000000477,578016.672,578269.7999999523,578051.077,580516.545,1,40,34,
sequence,flow.Sequence,8_33,2023-11-27T17:24:38.792Z,,,,,,,,,,,2689.6230000476353,completion,,,,,,,low,high,,,,,,,false,,,,,true,580741.399999857,580740.7000000477,578016.672,578269.7000000477,578051.077,580516.545,1,40,,
trial,html.Screen,8_34_0,2023-11-27T17:24:44.215Z,,,,2,-0.0388334549081915,0.0303399972963369,,0.04,true,hl,5647.554999904591,response,0.5623056839142434,0.5746018428197819,-0.9836128908098891,-1.1616093721265008,0.803344898921505,-1.162457725947228,high,low,,ISIC_4961708.JPG,,ISIC_0032927.JPG,28,28,false,0.18000000000000005,hl,keypress(j),0,true,586164.2999999523,586164.0999999046,580499.99,580741.5999999046,580516.545,585933.18,1,40,35,
sequence,flow.Sequence,8_34,2023-11-27T17:24:44.215Z,,,,,,,,,,,5647.554999904591,completion,,,,,,,high,low,,,,,,,false,,,,,true,586164.2999999523,586164.0999999046,580499.99,580741.5,580516.545,585933.18,1,40,,
trial,html.Screen,8_35_0,2023-11-27T17:24:50.008Z,,,,2,-0.0109416414475118,-0.005246498750811,,0.04,true,ll,6023.619999952265,response,-0.9294281370493894,0.5746018428197819,-0.9836128908098891,-1.1327283202367815,0.803344898921505,-1.162457725947228,low,low,,ISIC_0064279.JPG,,ISIC_0072953.JPG,28,37,false,0.1,ll,keypress(f),0,true,591957.2000000477,591956.7999999523,585916.432,586164.399999857,585933.18,591733.185,1,40,36,
sequence,flow.Sequence,8_35,2023-11-27T17:24:50.008Z,,,,,,,,,,,6023.619999952265,completion,,,,,,,low,low,,,,,,,false,,,,,true,591957.5999999046,591956.7999999523,585916.432,586164.399999857,585933.18,591733.185,1,40,,
trial,html.Screen,8_36_0,2023-11-27T17:24:55.232Z,,,,2,0.0044063257337227,0.0172548282859886,,0.04,false,hh,5447.515000047628,response,0.5704644916541736,0.5746018428197819,-0.9836128908098891,0.9000788382683834,0.803344898921505,-0.9810782286430855,high,high,,ISIC_7413786.JPG,,ISIC_7697022.JPG,28,89,false,0.1,ll,keypress(f),0,true,597181,597180.7000000477,591716.498,591957.7999999523,591733.185,596949.781,1,40,37,
sequence,flow.Sequence,8_36,2023-11-27T17:24:55.232Z,,,,,,,,,,,5447.515000047628,completion,,,,,,,high,high,,,,,,,false,,,,,true,597181.2999999523,597180.7000000477,591716.498,591957.7000000477,591733.185,596949.781,1,40,,
trial,html.Screen,8_37_0,2023-11-27T17:24:57.561Z,,,,2,0.0308384937406319,-0.0038396364323947,,0.04,true,ll,2558.9190000477247,response,-0.9737567085091248,0.6246018428197819,-0.9836128908098891,-0.9013996680304692,0.853344898921505,-0.9810782286430855,low,low,,ISIC_0029825.JPG,,ISIC_2483825.JPG,28,35,false,0.1,ll,keypress(f),0,true,599508.899999857,599508.7000000477,596933.074,597181.5,596949.781,599283.156,1,40,38,
sequence,flow.Sequence,8_37,2023-11-27T17:24:57.561Z,,,,,,,,,,,2558.9190000477247,completion,,,,,,,low,low,,,,,,,false,,,,,true,599509.2999999523,599508.7000000477,596933.074,597181.5,596949.781,599283.156,1,40,,
trial,html.Screen,8_38_0,2023-11-27T17:25:00.055Z,,,,2,0.0009714874637896,-0.0174815595031679,,0.04,false,lh,2720.344000000041,response,-0.9662688541319592,0.6246018428197819,-0.887578188269797,0.929746784178986,0.853344898921505,-0.9810782286430855,low,high,,ISIC_9848743.JPG,,ISIC_0011077.JPG,28,28,false,0.15000000000000002,ll,keypress(f),0,true,602003.5999999046,602003.5,599266.44,599509.5,599283.156,601783.519,1,40,39,
sequence,flow.Sequence,8_38,2023-11-27T17:25:00.055Z,,,,,,,,,,,2720.344000000041,completion,,,,,,,low,high,,,,,,,false,,,,,true,602003.7000000477,602003.5,599266.44,599509.5,599283.156,601783.519,1,40,,
trial,html.Screen,8_39_0,2023-11-27T17:25:02.817Z,,,,2,-0.039520186367207,-0.0377961575607372,,0.04,false,lh,2981.1810000477126,response,-0.9244148283103414,0.6246018428197819,-0.887578188269797,0.9712966348713286,0.903344898921505,-0.9810782286430855,low,high,,ISIC_6356149.JPG,,ISIC_7927525.JPG,28,25,false,0.15000000000000002,hh,keypress(i),0,true,604765,604764.7000000477,601749.904,602003.7999999523,601783.519,604533.069,1,40,40,
sequence,flow.Sequence,8_39,2023-11-27T17:25:02.817Z,,,,,,,,,,,2981.1810000477126,completion,,,,,,,low,high,,,,,,,false,,,,,true,604765.2999999523,604764.7000000477,601749.904,602003.7999999523,601783.519,604533.069,1,40,,
stair_loop,flow.Loop,8,2023-11-27T17:25:02.817Z,,,,,,,,,,,154631.23400004767,completion,,,,,,,,,,,,,,,false,,,,,true,604765.5,604764.7000000477,450116.999,450355.5,450133.466,604533.069,1,40,,
exp_instructions,html.Screen,9,2023-11-27T17:25:45.168Z,,,,,,,,,,,42582.83099985693,response,,,,,,,,,,,,,,,,,continue,keypress(Space),,,647116.5,647115.899999857,604516.346,604765.5999999046,604533.069,646882.985,,,,
trial,html.Screen,10_0_0,2023-11-27T17:25:52.022Z,,,,1,-0.0065172941585523,0.0118857043117315,,0.04,false,ll,7087.414999856963,response,-0.9912923619519602,0.6709460645977301,-0.9880774445679178,-1.1419452407123123,0.7424693049362553,-1.1186818264863994,low,low,,ISIC_6119202.JPG,9,ISIC_0064863.JPG,28,45,false,0.1,hh,keypress(i),0,false,653970.5,653970.399999857,646865.098,647116.899999857,646882.985,653749.755,5,600,1,
break,html.Screen,10_0_1,2023-11-27T17:25:52.023Z,,,,,,,,,,,NaN,,,,,,,,low,low,,,,,,,false,,,,,false,653970.899999857,653970.7999999523,,653970.5999999046,,653749.755,5,600,,
break_continue,html.Screen,10_0_2,2023-11-27T17:25:52.023Z,,,,,,,,,,,NaN,,,,,,,,low,low,,,,,,,false,,,,,false,653971.2000000477,653971,,653970.899999857,,653749.755,5,600,,
sequence,flow.Sequence,10_0,2023-11-27T17:25:52.023Z,,,,,,,,,,,7088.015000000014,completion,,,,,,,low,low,,,,,,,false,,,,,false,653971.2999999523,653971,646865.098,647116.899999857,646882.985,653749.755,5,600,,
trial,html.Screen,10_1_0,2023-11-27T17:25:53.967Z,,,,1,0.0257631352671967,0.0202837002774028,,0.04,true,hh,2165.644999856944,response,0.6195550709150465,0.6709460645977301,-0.9880774445679178,0.6806289469379934,0.7424693049362553,-1.1186818264863994,high,high,,ISIC_0032797.JPG,8,ISIC_9386509.JPG,28,81,false,0.1,hh,keypress(i),0,false,655915.7000000477,655915.399999857,653716.295,653971.2999999523,653749.755,655682.925,5,600,2,
break,html.Screen,10_1_1,2023-11-27T17:25:53.968Z,,,,,,,,,,,NaN,,,,,,,,high,high,,,,,,,false,,,,,false,655916,655915.899999857,,655915.7999999523,,655682.925,5,600,,
break_continue,html.Screen,10_1_2,2023-11-27T17:25:53.968Z,,,,,,,,,,,NaN,,,,,,,,high,high,,,,,,,false,,,,,false,655916.2000000477,655916.0999999046,,655916.0999999046,,655682.925,5,600,,
sequence,flow.Sequence,10_1,2023-11-27T17:25:53.968Z,,,,,,,,,,,2166.344999904628,completion,,,,,,,high,high,,,,,,,false,,,,,false,655916.2999999523,655916.0999999046,653716.295,653971.2999999523,653749.755,655682.925,5,600,,
trial,html.Screen,10_2_0,2023-11-27T17:25:57.202Z,,,,1,0.0286056110007553,0.036125199756515,,0.04,true,ll,3465.674999904586,response,-1.061329542878903,0.6709460645977301,-0.9880774445679178,-1.0605755702127622,0.7424693049362553,-1.1186818264863994,low,low,,ISIC_6535558.JPG,9,ISIC_0065622.JPG,28,45,false,0.1,ll,keypress(f),0,false,659148.899999857,659148.5999999046,655666.204,655916.2999999523,655682.925,658916.247,5,600,3,
break,html.Screen,10_2_1,2023-11-27T17:25:57.203Z,,,,,,,,,,,NaN,,,,,,,,low,low,,,,,,,false,,,,,false,659149.7999999523,659149.5999999046,,659149.2000000477,,658916.247,5,600,,
break_continue,html.Screen,10_2_2,2023-11-27T17:25:57.203Z,,,,,,,,,,,NaN,,,,,,,,low,low,,,,,,,false,,,,,false,659150.5,659150.2000000477,,659150,,658916.247,5,600,,
sequence,flow.Sequence,10_2,2023-11-27T17:25:57.203Z,,,,,,,,,,,3467.275000047637,completion,,,,,,,low,low,,,,,,,false,,,,,false,659150.7000000477,659150.2000000477,655666.204,655916.2999999523,655682.925,658916.247,5,600,,
trial,html.Screen,10_3_0,2023-11-27T17:26:04.625Z,,,,1,-0.0374659946425444,-0.0086043094957617,,0.04,false,hl,7655.652999856975,response,0.5482042090316842,0.6709460645977301,-0.9880774445679178,-0.9950817758087226,0.7424693049362553,-1.1186818264863994,high,low,,ISIC_0033051.JPG,9,ISIC_0025267.JPG,28,25,false,0.19000000000000006,lh,keypress(e),0,false,666571.899999857,666571.899999857,658899.508,659150.899999857,658916.247,666349.611,5,600,4,
break,html.Screen,10_3_1,2023-11-27T17:26:04.625Z,,,,,,,,,,,NaN,,,,,,,,high,low,,,,,,,false,,,,,false,666572.7000000477,666572.5,,666572.2000000477,,666349.611,5,600,,
break_continue,html.Screen,10_3_2,2023-11-27T17:26:04.626Z,,,,,,,,,,,NaN,,,,,,,,high,low,,,,,,,false,,,,,false,666573.0999999046,666572.899999857,,666572.7999999523,,666349.611,5,600,,
sequence,flow.Sequence,10_3,2023-11-27T17:26:04.626Z,,,,,,,,,,,7656.652999856975,completion,,,,,,,high,low,,,,,,,false,,,,,false,666573.2999999523,666572.899999857,658899.508,659150.899999857,658916.247,666349.611,5,600,,
trial,html.Screen,10_4_0,2023-11-27T17:26:09.944Z,,,,1,-0.001445457736793,-0.0165307427449982,,0.04,false,lh,5541.988999904599,response,-1.0787754255210074,0.6709460645977301,-0.9880774445679178,0.5901348732973258,0.7424693049362553,-1.1186818264863994,low,high,,ISIC_0027350.JPG,9,ISIC_0013618.JPG,28,27,false,0.17000000000000004,ll,keypress(f),0,false,671891.7000000477,671891.5999999046,666333.094,666573.2999999523,666349.611,671666.175,5,600,5,
break,html.Screen,10_4_1,2023-11-27T17:26:09.945Z,,,,,,,,,,,NaN,,,,,,,,low,high,,,,,,,false,,,,,false,671892,671891.899999857,,671891.7999999523,,671666.175,5,600,,
break_continue,html.Screen,10_4_2,2023-11-27T17:26:09.945Z,,,,,,,,,,,NaN,,,,,,,,low,high,,,,,,,false,,,,,false,671892.2999999523,671892.0999999046,,671892,,671666.175,5,600,,
sequence,flow.Sequence,10_4,2023-11-27T17:26:09.945Z,,,,,,,,,,,5542.488999904599,completion,,,,,,,low,high,,,,,,,false,,,,,false,671892.2999999523,671892.0999999046,666333.094,666573.2999999523,666349.611,671666.175,5,600,,
trial,html.Screen,10_5_0,2023-11-27T17:26:12.704Z,,,,1,-0.0109416414475118,-0.005246498750811,,0.04,false,lh,2985.424999904586,response,-0.9198276163642348,0.6709460645977301,-0.9880774445679178,0.7754915110667046,0.7424693049362553,-1.1186818264863994,low,high,,ISIC_0064279.JPG,9,ISIC_7840728.JPG,28,27,false,0.17000000000000004,ll,keypress(f),0,false,674651.5999999046,674651.5999999046,671649.515,671892.399999857,671666.175,674416.181,5,600,6,
break,html.Screen,10_5_1,2023-11-27T17:26:12.705Z,,,,,,,,,,,NaN,,,,,,,,low,high,,,,,,,false,,,,,false,674651.899999857,674651.899999857,,674651.7000000477,,674416.181,5,600,,
break_continue,html.Screen,10_5_2,2023-11-27T17:26:12.705Z,,,,,,,,,,,NaN,,,,,,,,low,high,,,,,,,false,,,,,false,674652.2000000477,674652,,674652,,674416.181,5,600,,
sequence,flow.Sequence,10_5,2023-11-27T17:26:12.705Z,,,,,,,,,,,2985.8249999999534,completion,,,,,,,low,high,,,,,,,false,,,,,false,674652.2000000477,674652,671649.515,671892.399999857,671666.175,674416.181,5,600,,
trial,html.Screen,10_6_0,2023-11-27T17:26:15.195Z,,,,1,-0.0088741920055285,-0.0058246074740588,,0.04,true,hh,2725.618999952334,response,0.6190748068479168,0.6709460645977301,-0.9880774445679178,0.7094898545347617,0.7424693049362553,-1.1186818264863994,high,high,,ISIC_4136663.JPG,8,ISIC_7059794.JPG,28,81,false,0.1,hh,keypress(i),0,false,677142.0999999046,677141.7999999523,674399.63,674652.2000000477,674416.181,676916.202,5,600,7,
break,html.Screen,10_6_1,2023-11-27T17:26:15.196Z,,,,,,,,,,,NaN,,,,,,,,high,high,,,,,,,false,,,,,false,677143,677142.7999999523,,677142.5,,676916.202,5,600,,
break_continue,html.Screen,10_6_2,2023-11-27T17:26:15.196Z,,,,,,,,,,,NaN,,,,,,,,high,high,,,,,,,false,,,,,false,677143.7999999523,677143.399999857,,677143.2000000477,,676916.202,5,600,,
sequence,flow.Sequence,10_6,2023-11-27T17:26:15.197Z,,,,,,,,,,,2727.2189998569665,completion,,,,,,,high,high,,,,,,,false,,,,,false,677144,677143.399999857,674399.63,674652.2000000477,674416.181,676916.202,5,600,,
trial,html.Screen,10_7_0,2023-11-27T17:26:19.385Z,,,,1,-0.0241900387072296,0.0339955304424736,,0.04,false,lh,4416.297999999952,response,-1.0601612613194336,0.6709460645977301,-0.9880774445679178,0.5836198587596447,0.7424693049362553,-1.1186818264863994,low,high,,ISIC_0010789.JPG,10,ISIC_0014790.JPG,28,27,false,0.17000000000000004,hl,keypress(j),0,false,681332.7000000477,681332.5,676899.757,677144.2999999523,676916.202,681099.571,5,600,8,
break,html.Screen,10_7_1,2023-11-27T17:26:19.386Z,,,,,,,,,,,NaN,,,,,,,,low,high,,,,,,,false,,,,,false,681333.7000000477,681333.399999857,,681333,,681099.571,5,600,,
break_continue,html.Screen,10_7_2,2023-11-27T17:26:19.387Z,,,,,,,,,,,NaN,,,,,,,,low,high,,,,,,,false,,,,,false,681334.399999857,681334.2000000477,,681333.899999857,,681099.571,5,600,,
sequence,flow.Sequence,10_7,2023-11-27T17:26:19.387Z,,,,,,,,,,,4417.998000047635,completion,,,,,,,low,high,,,,,,,false,,,,,false,681334.7000000477,681334.2000000477,676899.757,677144.2000000477,676916.202,681099.571,5,600,,
trial,html.Screen,10_8_0,2023-11-27T17:26:22.802Z,,,,1,-0.001445457736793,-0.0165307427449982,,0.04,true,ll,3649.0289999046363,response,-0.9294281370493894,0.6709460645977301,-0.9880774445679178,-1.1327283202367815,0.7424693049362553,-1.1186818264863994,low,low,,ISIC_0027350.JPG,9,ISIC_0072953.JPG,28,45,false,0.1,ll,keypress(f),0,false,684748.7999999523,684748.5999999046,681082.908,681334.7999999523,681099.571,684516.187,5,600,9,
break,html.Screen,10_8_1,2023-11-27T17:26:22.802Z,,,,,,,,,,,NaN,,,,,,,,low,low,,,,,,,false,,,,,false,684749.7999999523,684749.5,,684749.0999999046,,684516.187,5,600,,
break_continue,html.Screen,10_8_2,2023-11-27T17:26:22.803Z,,,,,,,,,,,NaN,,,,,,,,low,low,,,,,,,false,,,,,false,684750.5,684750.2000000477,,684750,,684516.187,5,600,,
sequence,flow.Sequence,10_8,2023-11-27T17:26:22.803Z,,,,,,,,,,,3650.6290000476874,completion,,,,,,,low,low,,,,,,,false,,,,,false,684750.7999999523,684750.2000000477,681082.908,681334.7999999523,681099.571,684516.187,5,600,,
trial,html.Screen,10_9_0,2023-11-27T17:26:25.011Z,,,,1,-0.001445457736793,-0.0165307427449982,,0.04,false,hl,2441.3129999999655,response,0.5182919912129921,0.6709460645977301,-0.9880774445679178,-0.9429588980188944,0.7424693049362553,-1.1186818264863994,high,low,,ISIC_0027350.JPG,9,ISIC_4289906.JPG,28,25,false,0.19000000000000006,ll,keypress(f),0,false,686957.7999999523,686957.5,684499.672,684751,684516.187,686732.852,5,600,10,
break,html.Screen,10_9_1,2023-11-27T17:26:25.012Z,,,,,,,,,,,NaN,,,,,,,,high,low,,,,,,,false,,,,,false,686959,686958.7000000477,,686958.2000000477,,686732.852,5,600,,
break_continue,html.Screen,10_9_2,2023-11-27T17:26:25.012Z,,,,,,,,,,,NaN,,,,,,,,high,low,,,,,,,false,,,,,false,686959.7000000477,686959.2999999523,,686959.0999999046,,686732.852,5,600,,
sequence,flow.Sequence,10_9,2023-11-27T17:26:25.013Z,,,,,,,,,,,2443.112999952282,completion,,,,,,,high,low,,,,,,,false,,,,,false,686960,686959.2999999523,684499.672,684750.899999857,684516.187,686732.852,5,600,,
trial,html.Screen,10_10_0,2023-11-27T17:26:27.075Z,,,,1,-0.0388334549081915,0.0303399972963369,,0.04,false,lh,2288.8480000477284,response,-0.8586825315141272,0.6709460645977301,-0.9880774445679178,0.6478987351677682,0.7424693049362553,-1.1186818264863994,low,high,,ISIC_4961708.JPG,9,ISIC_0271408.JPG,28,27,false,0.17000000000000004,hh,keypress(i),0,false,689021.899999857,689021.7000000477,686716.23,686960.0999999046,686732.852,688799.703,5,600,11,
break,html.Screen,10_10_1,2023-11-27T17:26:27.075Z,,,,,,,,,,,NaN,,,,,,,,low,high,,,,,,,false,,,,,false,689022.7999999523,689022.5999999046,,689022.2000000477,,688799.703,5,600,,
break_continue,html.Screen,10_10_2,2023-11-27T17:26:27.076Z,,,,,,,,,,,NaN,,,,,,,,low,high,,,,,,,false,,,,,false,689023.5,689023.0999999046,,689023,,688799.703,5,600,,
sequence,flow.Sequence,10_10,2023-11-27T17:26:27.076Z,,,,,,,,,,,2290.2479999046773,completion,,,,,,,low,high,,,,,,,false,,,,,false,689023.5999999046,689023.0999999046,686716.23,686960.0999999046,686732.852,688799.703,5,600,,
trial,html.Screen,10_11_0,2023-11-27T17:26:29.256Z,,,,1,0.0367706518941078,-0.0161069838272154,,0.04,false,ll,2403.6969998569693,response,-1.0581711446393522,0.6709460645977301,-0.9880774445679178,-1.1376053597134304,0.7424693049362553,-1.1186818264863994,low,low,,ISIC_0033419.JPG,9,ISIC_0014987.JPG,28,45,false,0.1,hh,keypress(i),0,false,691203.5,691203.399999857,688783.019,689023.7999999523,688799.703,690983.928,5,600,12,
break,html.Screen,10_11_1,2023-11-27T17:26:29.257Z,,,,,,,,,,,NaN,,,,,,,,low,low,,,,,,,false,,,,,false,691203.899999857,691203.7000000477,,691203.5999999046,,690983.928,5,600,,
break_continue,html.Screen,10_11_2,2023-11-27T17:26:29.257Z,,,,,,,,,,,NaN,,,,,,,,low,low,,,,,,,false,,,,,false,691204.0999999046,691204,,691203.899999857,,690983.928,5,600,,
sequence,flow.Sequence,10_11,2023-11-27T17:26:29.257Z,,,,,,,,,,,2404.2970000000205,completion,,,,,,,low,low,,,,,,,false,,,,,false,691204.0999999046,691204,688783.019,689023.7999999523,688799.703,690983.928,5,600,,
trial,html.Screen,10_12_0,2023-11-27T17:26:33.848Z,,,,1,0.0076984477620101,0.0069458408496562,,0.04,false,hh,4811.072000000044,response,0.5978926714634655,0.6709460645977301,-0.9880774445679178,0.8286594402080831,0.7424693049362553,-1.1186818264863994,high,high,,ISIC_0000434.JPG,9,ISIC_4442490.JPG,28,81,false,0.1,lh,keypress(e),0,false,695795.0999999046,695795,690949.76,691204.2000000477,690983.928,695566.157,5,600,13,
break,html.Screen,10_12_1,2023-11-27T17:26:33.848Z,,,,,,,,,,,NaN,,,,,,,,high,high,,,,,,,false,,,,,false,695795.399999857,695795.2999999523,,695795.0999999046,,695566.157,5,600,,
break_continue,html.Screen,10_12_2,2023-11-27T17:26:33.848Z,,,,,,,,,,,NaN,,,,,,,,high,high,,,,,,,false,,,,,false,695795.5999999046,695795.5,,695795.399999857,,695566.157,5,600,,
sequence,flow.Sequence,10_12,2023-11-27T17:26:33.848Z,,,,,,,,,,,4811.572000000044,completion,,,,,,,high,high,,,,,,,false,,,,,false,695795.7000000477,695795.5,690949.76,691204.2000000477,690983.928,695566.157,5,600,,
trial,html.Screen,10_13_0,2023-11-27T17:26:36.849Z,,,,1,-0.0109416414475118,-0.005246498750811,,0.04,false,hl,3230.2429998569423,response,0.5730480455113682,0.6709460645977301,-0.9880774445679178,-1.0261745987608817,0.7424693049362553,-1.1186818264863994,high,low,,ISIC_0064279.JPG,8,ISIC_9546876.JPG,28,25,false,0.19000000000000006,hh,keypress(i),0,false,698796.7000000477,698796.399999857,695549.533,695795.7000000477,695566.157,698566.151,5,600,14,
break,html.Screen,10_13_1,2023-11-27T17:26:36.850Z,,,,,,,,,,,NaN,,,,,,,,high,low,,,,,,,false,,,,,false,698797.5999999046,698797.399999857,,698796.899999857,,698566.151,5,600,,
break_continue,html.Screen,10_13_2,2023-11-27T17:26:36.851Z,,,,,,,,,,,NaN,,,,,,,,high,low,,,,,,,false,,,,,false,698798.2000000477,698797.899999857,,698797.7000000477,,698566.151,5,600,,
sequence,flow.Sequence,10_13,2023-11-27T17:26:36.851Z,,,,,,,,,,,3231.7429998569423,completion,,,,,,,high,low,,,,,,,false,,,,,false,698798.399999857,698797.899999857,695549.533,695795.7000000477,695566.157,698566.151,5,600,,
trial,html.Screen,10_14_0,2023-11-27T17:26:40.041Z,,,,1,-0.0388334549081915,0.0303399972963369,,0.04,true,ll,3422.2489998569945,response,-0.970732112511705,0.6709460645977301,-0.9880774445679178,-1.166572336354465,0.7424693049362553,-1.1186818264863994,low,low,,ISIC_4961708.JPG,8,ISIC_0010778.JPG,28,45,false,0.1,ll,keypress(f),0,false,701988.5999999046,701988.399999857,698549.602,698798.5999999046,698566.151,701766.21,5,600,15,
break,html.Screen,10_14_1,2023-11-27T17:26:40.042Z,,,,,,,,,,,NaN,,,,,,,,low,low,,,,,,,false,,,,,false,701989.399999857,701989.2999999523,,701988.899999857,,701766.21,5,600,,
break_continue,html.Screen,10_14_2,2023-11-27T17:26:40.043Z,,,,,,,,,,,NaN,,,,,,,,low,low,,,,,,,false,,,,,false,701990.2000000477,701989.7999999523,,701989.5999999046,,701766.21,5,600,,
sequence,flow.Sequence,10_14,2023-11-27T17:26:40.043Z,,,,,,,,,,,3423.648999952362,completion,,,,,,,low,low,,,,,,,false,,,,,false,701990.399999857,701989.7999999523,698549.602,698798.5,698566.151,701766.21,5,600,,
trial,html.Screen,10_15_0,2023-11-27T17:26:42.522Z,,,,1,-0.0374659946425444,-0.0086043094957617,,0.04,false,hl,2702.2900000000373,response,0.5579501408758676,0.6709460645977301,-0.9880774445679178,-0.9400215761401108,0.7424693049362553,-1.1186818264863994,high,low,,ISIC_0033051.JPG,9,ISIC_0068015.JPG,28,25,false,0.19000000000000006,ll,keypress(f),0,false,704468.899999857,704468.5,701749.529,701990.5,701766.21,704232.83,5,600,16,
break,html.Screen,10_15_1,2023-11-27T17:26:42.522Z,,,,,,,,,,,NaN,,,,,,,,high,low,,,,,,,false,,,,,false,704469.7000000477,704469.5,,704469.0999999046,,704232.83,5,600,,
break_continue,html.Screen,10_15_2,2023-11-27T17:26:42.523Z,,,,,,,,,,,NaN,,,,,,,,high,low,,,,,,,false,,,,,false,704470.399999857,704470.0999999046,,704469.7999999523,,704232.83,5,600,,
sequence,flow.Sequence,10_15,2023-11-27T17:26:42.523Z,,,,,,,,,,,2703.88999990467,completion,,,,,,,high,low,,,,,,,false,,,,,false,704470.5999999046,704470.0999999046,701749.529,701990.5,701766.21,704232.83,5,600,,
trial,html.Screen,10_16_0,2023-11-27T17:26:49.538Z,,,,1,0.0076984477620101,0.0069458408496562,,0.04,false,lh,7252.7699999046745,response,-0.8443403196524287,0.6709460645977301,-0.9880774445679178,0.8858525429102605,0.7424693049362553,-1.1186818264863994,low,high,,ISIC_0000434.JPG,9,ISIC_8777813.JPG,28,27,false,0.17000000000000004,hh,keypress(i),0,false,711485.7999999523,711485.5999999046,704216.141,704470.7999999523,704232.83,711266.724,5,600,17,
break,html.Screen,10_16_1,2023-11-27T17:26:49.539Z,,,,,,,,,,,NaN,,,,,,,,low,high,,,,,,,false,,,,,false,711486.7999999523,711486.5,,711486.0999999046,,711266.724,5,600,,
break_continue,html.Screen,10_16_2,2023-11-27T17:26:49.540Z,,,,,,,,,,,NaN,,,,,,,,low,high,,,,,,,false,,,,,false,711487.5,711487.2000000477,,711487,,711266.724,5,600,,
sequence,flow.Sequence,10_16,2023-11-27T17:26:49.540Z,,,,,,,,,,,7254.370000047726,completion,,,,,,,low,high,,,,,,,false,,,,,false,711487.7999999523,711487.2000000477,704216.141,704470.7999999523,704232.83,711266.724,5,600,,
trial,html.Screen,10_17_0,2023-11-27T17:26:51.658Z,,,,1,-0.001445457736793,-0.0165307427449982,,0.04,false,lh,2337.875999904587,response,-0.9633172970727744,0.6709460645977301,-0.9880774445679178,0.8472659344792351,0.7424693049362553,-1.1186818264863994,low,high,,ISIC_0027350.JPG,9,ISIC_0067172.JPG,28,27,false,0.17000000000000004,hh,keypress(i),0,false,713604.899999857,713604.5999999046,711232.715,711487.899999857,711266.724,713383.031,5,600,18,
break,html.Screen,10_17_1,2023-11-27T17:26:51.659Z,,,,,,,,,,,NaN,,,,,,,,low,high,,,,,,,false,,,,,false,713605.7999999523,713605.5999999046,,713605.2999999523,,713383.031,5,600,,
break_continue,html.Screen,10_17_2,2023-11-27T17:26:51.659Z,,,,,,,,,,,NaN,,,,,,,,low,high,,,,,,,false,,,,,false,713606.5999999046,713606.2000000477,,713606.0999999046,,713383.031,5,600,,
sequence,flow.Sequence,10_17,2023-11-27T17:26:51.660Z,,,,,,,,,,,2339.476000047638,completion,,,,,,,low,high,,,,,,,false,,,,,false,713606.7999999523,713606.2000000477,711232.715,711487.7999999523,711266.724,713383.031,5,600,,
trial,html.Screen,10_18_0,2023-11-27T17:26:54.105Z,,,,1,-0.0388334549081915,0.0303399972963369,,0.04,true,hh,2668.969000000041,response,0.6511236647537911,0.6709460645977301,-0.9880774445679178,0.683272164119457,0.7424693049362553,-1.1186818264863994,high,high,,ISIC_4961708.JPG,8,ISIC_0030911.JPG,28,81,false,0.1,hh,keypress(i),0,false,716052.0999999046,716052,713366.281,713607,713383.031,715816.066,5,600,19,
break,html.Screen,10_18_1,2023-11-27T17:26:54.105Z,,,,,,,,,,,NaN,,,,,,,,high,high,,,,,,,false,,,,,false,716052.399999857,716052.399999857,,716052.2999999523,,715816.066,5,600,,
break_continue,html.Screen,10_18_2,2023-11-27T17:26:54.105Z,,,,,,,,,,,NaN,,,,,,,,high,high,,,,,,,false,,,,,false,716052.5999999046,716052.5999999046,,716052.5,,715816.066,5,600,,
sequence,flow.Sequence,10_18,2023-11-27T17:26:54.105Z,,,,,,,,,,,2669.5689999046735,completion,,,,,,,high,high,,,,,,,false,,,,,false,716052.7000000477,716052.5999999046,713366.281,713607,713383.031,715816.066,5,600,,
trial,html.Screen,10_19_0,2023-11-27T17:27:00.112Z,,,,1,0.0283578106329894,-0.0088840758711548,,0.04,false,hh,6242.634000047692,response,0.6296044282449401,0.6709460645977301,-0.9880774445679178,0.7751984808376284,0.7424693049362553,-1.1186818264863994,high,high,,ISIC_0060707.JPG,9,ISIC_8960223.JPG,28,81,false,0.1,lh,keypress(e),0,false,722058.7999999523,722058.7000000477,715799.642,716052.7999999523,715816.066,721832.826,5,600,20,
break,html.Screen,10_19_1,2023-11-27T17:27:00.113Z,,,,,,,,,,,NaN,,,,,,,,high,high,,,,,,,false,,,,,false,722059.0999999046,722059,,722058.899999857,,721832.826,5,600,,
break_continue,html.Screen,10_19_2,2023-11-27T17:27:00.113Z,,,,,,,,,,,NaN,,,,,,,,high,high,,,,,,,false,,,,,false,722059.399999857,722059.2999999523,,722059.2000000477,,721832.826,5,600,,
sequence,flow.Sequence,10_19,2023-11-27T17:27:00.113Z,,,,,,,,,,,6243.233999952325,completion,,,,,,,high,high,,,,,,,false,,,,,false,722059.399999857,722059.2999999523,715799.642,716052.7000000477,715816.066,721832.826,5,600,,
trial,html.Screen,10_20_0,2023-11-27T17:27:04.659Z,,,,1,-0.0388181790775959,0.0049623405709465,,0.04,false,hh,4772.173999999999,response,0.6463926432373863,0.6709460645977301,-0.9880774445679178,0.675332620173563,0.7424693049362553,-1.1186818264863994,high,high,,ISIC_0061880.JPG,9,ISIC_9828053.JPG,28,81,false,0.1,lh,keypress(e),0,false,726605.2999999523,726605,721816.212,722059.5,721832.826,726382.806,5,600,21,
break,html.Screen,10_20_1,2023-11-27T17:27:04.660Z,,,,,,,,,,,NaN,,,,,,,,high,high,,,,,,,false,,,,,false,726606.2999999523,726606.0999999046,,726605.5999999046,,726382.806,5,600,,
break_continue,html.Screen,10_20_2,2023-11-27T17:27:04.661Z,,,,,,,,,,,NaN,,,,,,,,high,high,,,,,,,false,,,,,false,726607,726606.7000000477,,726606.5,,726382.806,5,600,,
sequence,flow.Sequence,10_20,2023-11-27T17:27:04.661Z,,,,,,,,,,,4773.874000047683,completion,,,,,,,high,high,,,,,,,false,,,,,false,726607.2999999523,726606.7000000477,721816.212,722059.5,721832.826,726382.806,5,600,,
trial,html.Screen,10_21_0,2023-11-27T17:27:09.562Z,,,,1,0.0257631352671967,0.0202837002774028,,0.04,false,lh,5125.593999856967,response,-1.004142980655507,0.6709460645977301,-0.9880774445679178,0.7749773174967559,0.7424693049362553,-1.1186818264863994,low,high,,ISIC_0032797.JPG,9,ISIC_3936223.JPG,28,27,false,0.17000000000000004,hh,keypress(i),0,false,731508.7000000477,731508.399999857,726366.101,726607.399999857,726382.806,731282.711,5,600,22,
break,html.Screen,10_21_1,2023-11-27T17:27:09.563Z,,,,,,,,,,,NaN,,,,,,,,low,high,,,,,,,false,,,,,false,731509.7000000477,731509.5,,731509,,731282.711,5,600,,
break_continue,html.Screen,10_21_2,2023-11-27T17:27:09.564Z,,,,,,,,,,,NaN,,,,,,,,low,high,,,,,,,false,,,,,false,731510.2999999523,731510.0999999046,,731509.7999999523,,731282.711,5,600,,
sequence,flow.Sequence,10_21,2023-11-27T17:27:09.564Z,,,,,,,,,,,5127.29399990465,completion,,,,,,,low,high,,,,,,,false,,,,,false,731510.5999999046,731510.0999999046,726366.101,726607.399999857,726382.806,731282.711,5,600,,
trial,html.Screen,10_22_0,2023-11-27T17:27:20.708Z,,,,1,0.0258224118104549,-0.0029364553353019,,0.04,false,lh,11371.088999952306,response,-1.0685314915436992,0.6709460645977301,-0.9880774445679178,0.8203833713472237,0.7424693049362553,-1.1186818264863994,low,high,,ISIC_8325226.JPG,8,ISIC_0029374.JPG,28,27,false,0.17000000000000004,hl,keypress(j),0,false,742654.0999999046,742653.7999999523,731266.176,731510.7999999523,731282.711,742432.766,5,600,23,
break,html.Screen,10_22_1,2023-11-27T17:27:20.709Z,,,,,,,,,,,NaN,,,,,,,,low,high,,,,,,,false,,,,,false,742654.899999857,742654.7000000477,,742654.2999999523,,742432.766,5,600,,
break_continue,html.Screen,10_22_2,2023-11-27T17:27:20.709Z,,,,,,,,,,,NaN,,,,,,,,low,high,,,,,,,false,,,,,false,742655.5999999046,742655.2999999523,,742655.0999999046,,742432.766,5,600,,
sequence,flow.Sequence,10_22,2023-11-27T17:27:20.710Z,,,,,,,,,,,11372.588999952306,completion,,,,,,,low,high,,,,,,,false,,,,,false,742655.899999857,742655.2999999523,731266.176,731510.7000000477,731282.711,742432.766,5,600,,
trial,html.Screen,10_23_0,2023-11-27T17:27:22.850Z,,,,1,-0.0388334549081915,0.0303399972963369,,0.04,false,lh,2363.633999857004,response,-1.004142980655507,0.6709460645977301,-0.9880774445679178,0.7749773174967559,0.7424693049362553,-1.1186818264863994,low,high,,ISIC_4961708.JPG,8,ISIC_3936223.JPG,28,27,false,0.17000000000000004,hh,keypress(i),0,false,744796.5999999046,744796.399999857,742416.21,742656,742432.766,744566.016,5,600,24,
break,html.Screen,10_23_1,2023-11-27T17:27:22.851Z,,,,,,,,,,,NaN,,,,,,,,low,high,,,,,,,false,,,,,false,744797.5,744797.2000000477,,744796.899999857,,744566.016,5,600,,
break_continue,html.Screen,10_23_2,2023-11-27T17:27:22.852Z,,,,,,,,,,,NaN,,,,,,,,low,high,,,,,,,false,,,,,false,744798.0999999046,744797.899999857,,744797.5999999046,,744566.016,5,600,,
sequence,flow.Sequence,10_23,2023-11-27T17:27:22.852Z,,,,,,,,,,,2365.133999857004,completion,,,,,,,low,high,,,,,,,false,,,,,false,744798.399999857,744797.899999857,742416.21,742656,742432.766,744566.016,5,600,,
trial,html.Screen,10_24_0,2023-11-27T17:27:25.283Z,,,,1,-0.0074667911845194,0.018500200317654,,0.04,false,lh,2663.484000000055,response,-0.9138670886161264,0.6709460645977301,-0.9880774445679178,0.8414121478342018,0.7424693049362553,-1.1186818264863994,low,high,,ISIC_0058723.JPG,9,ISIC_6709052.JPG,28,27,false,0.17000000000000004,ll,keypress(f),0,false,747229.7999999523,747229.5,744549.386,744798.5999999046,744566.016,746999.309,5,600,25,
break,html.Screen,10_24_1,2023-11-27T17:27:25.284Z,,,,,,,,,,,NaN,,,,,,,,low,high,,,,,,,false,,,,,false,747230.7000000477,747230.5,,747230.0999999046,,746999.309,5,600,,
break_continue,html.Screen,10_24_2,2023-11-27T17:27:25.285Z,,,,,,,,,,,NaN,,,,,,,,low,high,,,,,,,false,,,,,false,747231.399999857,747231.0999999046,,747230.7999999523,,746999.309,5,600,,
sequence,flow.Sequence,10_24,2023-11-27T17:27:25.285Z,,,,,,,,,,,2665.0839999046875,completion,,,,,,,low,high,,,,,,,false,,,,,false,747231.7000000477,747231.0999999046,744549.386,744798.5,744566.016,746999.309,5,600,,
trial,html.Screen,10_25_0,2023-11-27T17:27:27.401Z,,,,1,-0.0241900387072296,0.0339955304424736,,0.04,true,hh,2347.790999904624,response,0.6890415211519827,0.6709460645977301,-0.9880774445679178,0.6853436031588149,0.7424693049362553,-1.1186818264863994,high,high,,ISIC_0010789.JPG,9,ISIC_0024745.JPG,28,81,false,0.1,hh,keypress(i),0,false,749347.2000000477,749347.0999999046,746982.751,747231.899999857,746999.309,749116.057,5,600,26,
break,html.Screen,10_25_1,2023-11-27T17:27:27.401Z,,,,,,,,,,,NaN,,,,,,,,high,high,,,,,,,false,,,,,false,749347.5,749347.399999857,,749347.2999999523,,749116.057,5,600,,
break_continue,html.Screen,10_25_2,2023-11-27T17:27:27.401Z,,,,,,,,,,,NaN,,,,,,,,high,high,,,,,,,false,,,,,false,749347.7999999523,749347.5999999046,,749347.5999999046,,749116.057,5,600,,
sequence,flow.Sequence,10_25,2023-11-27T17:27:27.401Z,,,,,,,,,,,2348.290999904624,completion,,,,,,,high,high,,,,,,,false,,,,,false,749347.7999999523,749347.5999999046,746982.751,747231.7999999523,746999.309,749116.057,5,600,,
trial,html.Screen,10_26_0,2023-11-27T17:27:29.689Z,,,,1,-0.039520186367207,-0.0377961575607372,,0.04,true,hh,2519.5429999046028,response,0.7294331040268569,0.6709460645977301,-0.9880774445679178,0.667144797155413,0.7424693049362553,-1.1186818264863994,high,high,,ISIC_6356149.JPG,9,ISIC_4692454.JPG,28,81,false,0.1,hh,keypress(i),0,false,751635.7000000477,751635.5999999046,749099.291,749347.7999999523,749116.057,751399.304,5,600,27,
break,html.Screen,10_26_1,2023-11-27T17:27:29.690Z,,,,,,,,,,,NaN,,,,,,,,high,high,,,,,,,false,,,,,false,751636,751635.899999857,,751635.7000000477,,751399.304,5,600,,
break_continue,html.Screen,10_26_2,2023-11-27T17:27:29.690Z,,,,,,,,,,,NaN,,,,,,,,high,high,,,,,,,false,,,,,false,751636.2000000477,751636.0999999046,,751636,,751399.304,5,600,,
sequence,flow.Sequence,10_26,2023-11-27T17:27:29.690Z,,,,,,,,,,,2520.0429999046028,completion,,,,,,,high,high,,,,,,,false,,,,,false,751636.2000000477,751636.0999999046,749099.291,749347.7999999523,749116.057,751399.304,5,600,,
trial,html.Screen,10_27_0,2023-11-27T17:27:31.617Z,,,,1,0.0367706518941078,-0.0161069838272154,,0.04,true,hh,2164.295999904629,response,0.699873728158995,0.6709460645977301,-0.9880774445679178,0.647035472656988,0.7424693049362553,-1.1186818264863994,high,high,,ISIC_0033419.JPG,9,ISIC_4579262.JPG,28,81,false,0.1,hh,keypress(i),0,false,753563.7000000477,753563.5999999046,751382.635,751636.2000000477,751399.304,753332.707,5,600,28,
break,html.Screen,10_27_1,2023-11-27T17:27:31.618Z,,,,,,,,,,,NaN,,,,,,,,high,high,,,,,,,false,,,,,false,753564,753564,,753563.7999999523,,753332.707,5,600,,
break_continue,html.Screen,10_27_2,2023-11-27T17:27:31.618Z,,,,,,,,,,,NaN,,,,,,,,high,high,,,,,,,false,,,,,false,753564.2000000477,753564.2000000477,,753564,,753332.707,5,600,,
sequence,flow.Sequence,10_27,2023-11-27T17:27:31.618Z,,,,,,,,,,,2164.89600004768,completion,,,,,,,high,high,,,,,,,false,,,,,false,753564.2000000477,753564.2000000477,751382.635,751636.2000000477,751399.304,753332.707,5,600,,
trial,html.Screen,10_28_0,2023-11-27T17:27:35.843Z,,,,1,0.0200295718112167,0.0155559071275806,,0.04,true,ll,4455.993000047631,response,-0.9415126659682582,0.6709460645977301,-0.9880774445679178,-1.0413549203180965,0.7424693049362553,-1.1186818264863994,low,low,,ISIC_0061343.JPG,10,ISIC_4398011.JPG,28,45,false,0.1,ll,keypress(f),0,false,757789,757788.7000000477,753316.085,753564.2999999523,753332.707,757565.967,5,600,29,
break,html.Screen,10_28_1,2023-11-27T17:27:35.844Z,,,,,,,,,,,NaN,,,,,,,,low,low,,,,,,,false,,,,,false,757789.899999857,757789.7000000477,,757789.2999999523,,757565.967,5,600,,
break_continue,html.Screen,10_28_2,2023-11-27T17:27:35.844Z,,,,,,,,,,,NaN,,,,,,,,low,low,,,,,,,false,,,,,false,757790.5,757790.2000000477,,757790.0999999046,,757565.967,5,600,,
sequence,flow.Sequence,10_28,2023-11-27T17:27:35.844Z,,,,,,,,,,,4457.493000047631,completion,,,,,,,low,low,,,,,,,false,,,,,false,757790.7000000477,757790.2000000477,753316.085,753564.2999999523,753332.707,757565.967,5,600,,
trial,html.Screen,10_29_0,2023-11-27T17:27:40.763Z,,,,1,0.0286056110007553,0.036125199756515,,0.04,true,hl,5142.932999857003,response,0.5363706799372485,0.6709460645977301,-0.9880774445679178,-0.9963238802662304,0.7424693049362553,-1.1186818264863994,high,low,,ISIC_6535558.JPG,9,ISIC_0057287.JPG,28,25,false,0.19000000000000006,hl,keypress(j),0,false,762709.0999999046,762708.899999857,757549.547,757790.899999857,757565.967,762482.747,5,600,30,
break,html.Screen,10_29_1,2023-11-27T17:27:40.764Z,,,,,,,,,,,NaN,,,,,,,,high,low,,,,,,,false,,,,,false,762710,762709.7999999523,,762709.399999857,,762482.747,5,600,,
break_continue,html.Screen,10_29_2,2023-11-27T17:27:40.764Z,,,,,,,,,,,NaN,,,,,,,,high,low,,,,,,,false,,,,,false,762710.5999999046,762710.399999857,,762710.2000000477,,762482.747,5,600,,
sequence,flow.Sequence,10_29,2023-11-27T17:27:40.764Z,,,,,,,,,,,5144.432999857003,completion,,,,,,,high,low,,,,,,,false,,,,,false,762710.7999999523,762710.399999857,757549.547,757790.7999999523,757565.967,762482.747,5,600,,
trial,html.Screen,10_30_0,2023-11-27T17:27:44.890Z,,,,1,-0.0109416414475118,-0.005246498750811,,0.04,true,ll,4353.753000000026,response,-1.0773466327271526,0.6709460645977301,-0.9880774445679178,-1.1601445610079184,0.7424693049362553,-1.1186818264863994,low,low,,ISIC_0064279.JPG,8,ISIC_0055169.JPG,28,45,false,0.1,ll,keypress(f),0,false,766836.7000000477,766836.5,762466.113,762711,762482.747,766615.997,5,600,31,
break,html.Screen,10_30_1,2023-11-27T17:27:44.891Z,,,,,,,,,,,NaN,,,,,,,,low,low,,,,,,,false,,,,,false,766837.5999999046,766837.2999999523,,766837,,766615.997,5,600,,
break_continue,html.Screen,10_30_2,2023-11-27T17:27:44.892Z,,,,,,,,,,,NaN,,,,,,,,low,low,,,,,,,false,,,,,false,766838.2999999523,766837.899999857,,766837.7000000477,,766615.997,5,600,,
sequence,flow.Sequence,10_30,2023-11-27T17:27:44.892Z,,,,,,,,,,,4355.152999856975,completion,,,,,,,low,low,,,,,,,false,,,,,false,766838.5,766837.899999857,762466.113,762710.899999857,762482.747,766615.997,5,600,,
trial,html.Screen,10_31_0,2023-11-27T17:27:50.091Z,,,,1,-0.0109416414475118,-0.005246498750811,,0.04,false,hl,5421.20300004771,response,0.6053594235836648,0.6709460645977301,-0.9880774445679178,-0.9666375392777208,0.7424693049362553,-1.1186818264863994,high,low,,ISIC_0064279.JPG,9,ISIC_0068314.JPG,28,25,false,0.19000000000000006,hh,keypress(i),0,false,772037.399999857,772037.2000000477,766599.483,766838.7000000477,766615.997,771816.018,5,600,32,
break,html.Screen,10_31_1,2023-11-27T17:27:50.092Z,,,,,,,,,,,NaN,,,,,,,,high,low,,,,,,,false,,,,,false,772038.399999857,772038.2000000477,,772037.7000000477,,771816.018,5,600,,
break_continue,html.Screen,10_31_2,2023-11-27T17:27:50.093Z,,,,,,,,,,,NaN,,,,,,,,high,low,,,,,,,false,,,,,false,772039,772038.7999999523,,772038.5999999046,,771816.018,5,600,,
sequence,flow.Sequence,10_31,2023-11-27T17:27:50.093Z,,,,,,,,,,,5422.802999952342,completion,,,,,,,high,low,,,,,,,false,,,,,false,772039.2999999523,772038.7999999523,766599.483,766838.5999999046,766615.997,771816.018,5,600,,
trial,html.Screen,10_32_0,2023-11-27T17:27:52.073Z,,,,1,-0.0388334549081915,0.0303399972963369,,0.04,false,hl,2203.1820000476437,response,0.6526724457046548,0.6709460645977301,-0.9880774445679178,-1.080229511722363,0.7424693049362553,-1.1186818264863994,high,low,,ISIC_4961708.JPG,10,ISIC_4876193.JPG,28,25,false,0.19000000000000006,hh,keypress(i),0,false,774019.2999999523,774019.2000000477,771799.168,772039.399999857,771816.018,773800.483,5,600,33,
break,html.Screen,10_32_1,2023-11-27T17:27:52.073Z,,,,,,,,,,,NaN,,,,,,,,high,low,,,,,,,false,,,,,false,774019.5,774019.5,,774019.399999857,,773800.483,5,600,,
break_continue,html.Screen,10_32_2,2023-11-27T17:27:52.073Z,,,,,,,,,,,NaN,,,,,,,,high,low,,,,,,,false,,,,,false,774019.7999999523,774019.7000000477,,774019.7000000477,,773800.483,5,600,,
sequence,flow.Sequence,10_32,2023-11-27T17:27:52.073Z,,,,,,,,,,,2203.6820000476437,completion,,,,,,,high,low,,,,,,,false,,,,,false,774019.7999999523,774019.7000000477,771799.168,772039.2999999523,771816.018,773800.483,5,600,,
trial,html.Screen,10_33_0,2023-11-27T17:27:55.203Z,,,,1,-0.0109416414475118,-0.005246498750811,,0.04,false,hl,3348.116999904625,response,0.5482042090316842,0.6709460645977301,-0.9880774445679178,-0.9950817758087226,0.7424693049362553,-1.1186818264863994,high,low,,ISIC_0064279.JPG,9,ISIC_0025267.JPG,28,25,false,0.19000000000000006,hh,keypress(i),0,false,777148.899999857,777148.5999999046,773765.97,774019.899999857,773800.483,776915.903,5,600,34,
break,html.Screen,10_33_1,2023-11-27T17:27:55.203Z,,,,,,,,,,,NaN,,,,,,,,high,low,,,,,,,false,,,,,false,777149.7000000477,777149.5999999046,,777149.0999999046,,776915.903,5,600,,
break_continue,html.Screen,10_33_2,2023-11-27T17:27:55.204Z,,,,,,,,,,,NaN,,,,,,,,high,low,,,,,,,false,,,,,false,777150.399999857,777150.0999999046,,777149.899999857,,776915.903,5,600,,
sequence,flow.Sequence,10_33,2023-11-27T17:27:55.204Z,,,,,,,,,,,3349.616999904625,completion,,,,,,,high,low,,,,,,,false,,,,,false,777150.5999999046,777150.0999999046,773765.97,774019.899999857,773800.483,776915.903,5,600,,
trial,html.Screen,10_34_0,2023-11-27T17:27:57.452Z,,,,1,0,-0.0102871556606504,,0.04,false,hl,2481.2970000476344,response,0.5730480455113682,0.6709460645977301,-0.9880774445679178,-1.0261745987608817,0.7424693049362553,-1.1186818264863994,high,low,,ISIC_1805163.JPG,9,ISIC_9546876.JPG,28,25,false,0.19000000000000006,hh,keypress(i),0,false,779397.399999857,779397.2000000477,776899.386,777150.7999999523,776915.903,779165.991,5,600,35,
break,html.Screen,10_34_1,2023-11-27T17:27:57.453Z,,,,,,,,,,,NaN,,,,,,,,high,low,,,,,,,false,,,,,false,779398.5,779398.2000000477,,779397.7999999523,,779165.991,5,600,,
break_continue,html.Screen,10_34_2,2023-11-27T17:27:57.454Z,,,,,,,,,,,NaN,,,,,,,,high,low,,,,,,,false,,,,,false,779399.0999999046,779398.7999999523,,779398.5999999046,,779165.991,5,600,,
sequence,flow.Sequence,10_34,2023-11-27T17:27:57.454Z,,,,,,,,,,,2482.896999952267,completion,,,,,,,high,low,,,,,,,false,,,,,false,779399.2999999523,779398.7999999523,776899.386,777150.7000000477,776915.903,779165.991,5,600,,
trial,html.Screen,10_35_0,2023-11-27T17:27:59.779Z,,,,1,-0.0198696495649504,0.0387952353063878,,0.04,true,ll,2558.508999999962,response,-0.9724648821496716,0.6709460645977301,-0.9880774445679178,-1.1397234432581471,0.7424693049362553,-1.1186818264863994,low,low,,ISIC_6735970.JPG,9,ISIC_0061029.JPG,28,45,false,0.1,ll,keypress(f),0,false,781724.7000000477,781724.5,779149.416,779399.5,779165.991,781499.265,5,600,36,
break,html.Screen,10_35_1,2023-11-27T17:27:59.780Z,,,,,,,,,,,NaN,,,,,,,,low,low,,,,,,,false,,,,,false,781725.5999999046,781725.399999857,,781725,,781499.265,5,600,,
break_continue,html.Screen,10_35_2,2023-11-27T17:27:59.781Z,,,,,,,,,,,NaN,,,,,,,,low,low,,,,,,,false,,,,,false,781726.2999999523,781726,,781725.7000000477,,781499.265,5,600,,
sequence,flow.Sequence,10_35,2023-11-27T17:27:59.781Z,,,,,,,,,,,2560.008999999962,completion,,,,,,,low,low,,,,,,,false,,,,,false,781726.399999857,781726,779149.416,779399.399999857,779165.991,781499.265,5,600,,
trial,html.Screen,10_36_0,2023-11-27T17:28:07.891Z,,,,1,0.0119001144851157,-0.0063430114540141,,0.04,false,ll,8337.134999856935,response,-1.0349570401423522,0.6709460645977301,-0.9880774445679178,-1.0363323665817852,0.7424693049362553,-1.1186818264863994,low,low,,ISIC_0003822.JPG,9,ISIC_0030107.JPG,28,45,false,0.1,hl,keypress(j),0,false,789836.5999999046,789836.399999857,781482.734,781726.5999999046,781499.265,789616.116,5,600,37,
break,html.Screen,10_36_1,2023-11-27T17:28:07.892Z,,,,,,,,,,,NaN,,,,,,,,low,low,,,,,,,false,,,,,false,789837.5,789837.2999999523,,789836.899999857,,789616.116,5,600,,
break_continue,html.Screen,10_36_2,2023-11-27T17:28:07.893Z,,,,,,,,,,,NaN,,,,,,,,low,low,,,,,,,false,,,,,false,789838.2000000477,789837.7999999523,,789837.7000000477,,789616.116,5,600,,
sequence,flow.Sequence,10_36,2023-11-27T17:28:07.893Z,,,,,,,,,,,8338.534999952302,completion,,,,,,,low,low,,,,,,,false,,,,,false,789838.399999857,789837.7999999523,781482.734,781726.5,781499.265,789616.116,5,600,,
trial,html.Screen,10_37_0,2023-11-27T17:28:15.043Z,,,,1,-0.0164027439304477,0.0082910758715273,,0.04,false,ll,7372.383999999962,response,-1.063036912656269,0.6709460645977301,-0.9880774445679178,-1.1534875859179432,0.7424693049362553,-1.1186818264863994,low,low,,ISIC_7381224.JPG,9,ISIC_0010772.JPG,28,45,false,0.1,lh,keypress(e),0,false,796988.7000000477,796988.5,789599.332,789838.5,789616.116,796765.938,5,600,38,
break,html.Screen,10_37_1,2023-11-27T17:28:15.044Z,,,,,,,,,,,NaN,,,,,,,,low,low,,,,,,,false,,,,,false,796989.7000000477,796989.5,,796989.0999999046,,796765.938,5,600,,
break_continue,html.Screen,10_37_2,2023-11-27T17:28:15.045Z,,,,,,,,,,,NaN,,,,,,,,low,low,,,,,,,false,,,,,false,796990.5,796990.0999999046,,796989.7999999523,,796765.938,5,600,,
sequence,flow.Sequence,10_37,2023-11-27T17:28:15.045Z,,,,,,,,,,,7373.983999904594,completion,,,,,,,low,low,,,,,,,false,,,,,false,796990.7000000477,796990.0999999046,789599.332,789838.5,789616.116,796765.938,5,600,,
