sender,sender_type,sender_id,timestamp,meta,,age,blockNo,c1,c2,condition,control_tolerance,correct,correctResponse,duration,ended_on,f1,f1_high,f1_low,f2,f2_high,f2_low,feature_level1,feature_level2,gender,img_left,img_reveal,img_right,n_control_images,n_target_images,practice,range_tolerance,response,response_action,selection_duration,staircase,time_commit,time_end,time_render,time_run,time_show,time_switch,total_blocks,total_trials,trialNo,url
informed_consent,html.Screen,0,2024-03-05T20:10:31.599Z,"{""labjs_version"":""20.2.4"",""labjs_build"":{""flavor"":""development"",""commit"":""f5b4a49f956347addd546a832a3327688c2c0fef""},""location"":""https://labjs.felixhenninger.com/api/labjs_preview/index.html"",""userAgent"":""Mozilla/5.0 (Windows NT 10.0; Win64; x64) AppleWebKit/537.36 (KHTML, like Gecko) Chrome/122.0.0.0 Safari/537.36"",""platform"":""Win32"",""language"":""en-US"",""locale"":""en-US"",""timeZone"":""America/Chicago"",""timezoneOffset"":360,""screen_width"":2560,""screen_height"":1440,""scroll_width"":1265,""scroll_height"":1278,""window_innerWidth"":1265,""window_innerHeight"":1326,""devicePixelRatio"":1}",,,,,,,,,,66301.30000038147,response,,,,,,,,,,,,,,,,,consent,click button,,,66705.69999980927,66700.60000038147,399.02,488,399.3,66637.2,,,,{}
Demography form,html.Form,1,2024-03-05T20:10:37.451Z,,,19,,,,,,,,5920.7000005722075,form submission,,,,,,,,,female,,,,,,,,,,,,72558,72557.9000005722,66620.53,66705.9000005722,66637.2,72475.3,,,,
Welcome,html.Screen,2,2024-03-05T20:11:31.250Z,,,,,,,"[""asym"",""bor""]",,,,53881.00000019073,response,,,,,,,,,,,,,,,,,continue,click button,,,126356.80000019073,126356.30000019073,72458.7,72558.10000038147,72475.3,126286.4,,,,
demo_instructions,html.Screen,3,2024-03-05T20:12:12.378Z,,,,,,,,,,,41198.100000000006,response,,,,,,,,,,,,,,,,,continue,click button,,,167484.9000005722,167484.5,126269.666,126356.9000005722,126286.4,167403.5,,,,
trial,html.Screen,4_0_0,2024-03-05T20:12:24.742Z,,,,0,-1.2249552940807693,-1.1723015116910682,,,true,hh,12445.199999809265,response,1.0959058628476686,1.2,-1.2,1.1684835186766898,1.2,-1.2,high,high,,ISIC_0055251.JPG,,ISIC_5920470.JPG,,26,true,0.15000000000000002,hh,keypress(i),100,false,179848.80000019073,179848.69999980927,167403.394,167484.9000005722,167403.5,179780.4,1,16,1,
sequence,flow.Sequence,4_0,2024-03-05T20:12:24.742Z,,,,,,,,,,,12445.199999809265,completion,,,,,,,high,high,,,,,,,true,,,,,false,179849,179848.69999980927,167403.394,167484.9000005722,167403.5,179780.4,1,16,,
trial,html.Screen,4_1_0,2024-03-05T20:12:29.705Z,,,,0,-1.1877026569952844,-1.1604367569896263,,,true,hh,5031.400000190741,response,1.2724584600905462,1.2,-1.2,1.1411016103695344,1.2,-1.2,high,high,,ISIC_0064589.JPG,,ISIC_0059625.JPG,,26,true,0.15000000000000002,hh,keypress(i),100,false,184812,184811.80000019073,179763.7,179849,179780.4,184751.1,1,16,2,
sequence,flow.Sequence,4_1,2024-03-05T20:12:29.705Z,,,,,,,,,,,5031.400000190741,completion,,,,,,,high,high,,,,,,,true,,,,,false,184812,184811.80000019073,179763.7,179849,179780.4,184751.1,1,16,,
trial,html.Screen,4_2_0,2024-03-05T20:12:33.309Z,,,,0,-1.247270138097585,-1.1704704713504994,,,true,hh,3664.5999998092593,response,1.3411179702686655,1.2,-1.2,1.255103311449152,1.2,-1.2,high,high,,ISIC_0065774.JPG,,ISIC_5611010.JPG,,26,true,0.15000000000000002,hh,keypress(i),100,false,188415.80000019073,188415.69999980927,184734.466,184812.10000038147,184751.1,188354.1,1,16,3,
sequence,flow.Sequence,4_2,2024-03-05T20:12:33.309Z,,,,,,,,,,,3664.5999998092593,completion,,,,,,,high,high,,,,,,,true,,,,,false,188416,188415.69999980927,184734.466,184812,184751.1,188354.1,1,16,,
trial,html.Screen,4_3_0,2024-03-05T20:12:36.497Z,,,,0,-1.1346217981791904,-1.1555132168806113,,,true,hh,3249.5999998092593,response,1.0959058628476686,1.2,-1.2,1.1684835186766898,1.2,-1.2,high,high,,ISIC_0032771.JPG,,ISIC_5920470.JPG,,26,true,0.15000000000000002,hh,keypress(i),100,false,191603.80000019073,191603.69999980927,188337.4,188416,188354.1,191540.1,1,16,4,
sequence,flow.Sequence,4_3,2024-03-05T20:12:36.497Z,,,,,,,,,,,3249.5999998092593,completion,,,,,,,high,high,,,,,,,true,,,,,false,191604,191603.69999980927,188337.4,188416,188354.1,191540.1,1,16,,
trial,html.Screen,4_4_0,2024-03-05T20:12:45.331Z,,,,0,1.1388430156686884,1.2700552354887775,,,true,ll,8897.800000572199,response,-1.101214461533281,1.2,-1.2,-1.1849883512428183,1.2,-1.2,low,low,,ISIC_9939653.JPG,,ISIC_0064943.JPG,,30,true,0.1,ll,keypress(f),100,false,200438.10000038147,200437.9000005722,191523.4,191604,191540.1,200380.6,1,16,5,
sequence,flow.Sequence,4_4,2024-03-05T20:12:45.331Z,,,,,,,,,,,8897.800000572199,completion,,,,,,,low,low,,,,,,,true,,,,,false,200438.19999980927,200437.9000005722,191523.4,191604,191540.1,200380.6,1,16,,
trial,html.Screen,4_5_0,2024-03-05T20:12:50.983Z,,,,0,1.1653123206802332,1.2976858999596654,,,true,ll,5709.800000572199,response,-1.2974483548597415,1.2,-1.2,-1.34311625795084,1.2,-1.2,low,low,,ISIC_0071508.JPG,,ISIC_0011007.JPG,,53,true,0.15000000000000002,ll,keypress(f),100,false,206090.60000038147,206090.4000005722,200364.032,200438.30000019073,200380.6,206018.6,1,16,6,
sequence,flow.Sequence,4_5,2024-03-05T20:12:50.984Z,,,,,,,,,,,5709.800000572199,completion,,,,,,,low,low,,,,,,,true,,,,,false,206090.69999980927,206090.4000005722,200364.032,200438.30000019073,200380.6,206018.6,1,16,,
trial,html.Screen,4_6_0,2024-03-05T20:12:58.220Z,,,,0,1.086647361897092,1.1528935990320313,,,true,ll,7308.899999999994,response,-1.2923059965680113,1.2,-1.2,-1.222688159093534,1.2,-1.2,low,low,,ISIC_3505339.JPG,,ISIC_0072175.JPG,,53,true,0.15000000000000002,ll,keypress(f),100,false,213327.60000038147,213327.5,206002,206090.69999980927,206018.6,213257.9,1,16,7,
sequence,flow.Sequence,4_6,2024-03-05T20:12:58.221Z,,,,,,,,,,,7308.899999999994,completion,,,,,,,low,low,,,,,,,true,,,,,false,213327.69999980927,213327.5,206002,206090.69999980927,206018.6,213257.9,1,16,,
trial,html.Screen,4_7_0,2024-03-05T20:13:01.952Z,,,,0,1.086647361897092,1.1528935990320313,,,true,ll,3800.799999809271,response,-1.2631894117279046,1.2,-1.2,-1.0916958871221865,1.2,-1.2,low,low,,ISIC_3505339.JPG,,ISIC_0065748.JPG,,53,true,0.15000000000000002,ll,keypress(f),100,false,217058.80000019073,217058.69999980927,213241.232,213327.80000019073,213257.9,216994.4,1,16,8,
sequence,flow.Sequence,4_7,2024-03-05T20:13:01.952Z,,,,,,,,,,,3800.799999809271,completion,,,,,,,low,low,,,,,,,true,,,,,false,217058.9000005722,217058.69999980927,213241.232,213327.80000019073,213257.9,216994.4,1,16,,
trial,html.Screen,4_8_0,2024-03-05T20:13:12.475Z,,,,0,1.0751036484083878,-1.143906455483852,,,true,lh,10586.90000019074,response,-0.9388660854518424,1.2,-1.2,0.79533948698576,1.2,-1.2,low,high,,ISIC_0064406.JPG,,ISIC_9291926.JPG,,27,true,0.42000000000000026,lh,keypress(e),100,false,227581.4000005722,227581.30000019073,216977.7,217059,216994.4,227519.6,1,16,9,
sequence,flow.Sequence,4_8,2024-03-05T20:13:12.475Z,,,,,,,,,,,10586.90000019074,completion,,,,,,,low,high,,,,,,,true,,,,,false,227581.60000038147,227581.30000019073,216977.7,217059,216994.4,227519.6,1,16,,
trial,html.Screen,4_9_0,2024-03-05T20:13:22.642Z,,,,0,1.1181734135756094,-0.944560381774994,,,true,lh,10229.399999999994,response,-0.7809949855371787,1.2,-1.2,0.8493861117004308,1.2,-1.2,low,high,,ISIC_9688534.JPG,,ISIC_7450481.JPG,,27,true,0.42000000000000026,lh,keypress(e),100,false,237749.10000038147,237749,227503.03,227581.60000038147,227519.6,237678.1,1,16,10,
sequence,flow.Sequence,4_9,2024-03-05T20:13:22.642Z,,,,,,,,,,,10229.399999999994,completion,,,,,,,low,high,,,,,,,true,,,,,false,237749.19999980927,237749,227503.03,227581.60000038147,227519.6,237678.1,1,16,,
trial,html.Screen,4_10_0,2024-03-05T20:13:27.995Z,,,,0,1.2075172235545184,-0.9116724966267612,,,true,lh,5424.000000381464,response,-1.276222161935671,1.2,-1.2,0.9657780821973284,1.2,-1.2,low,high,,ISIC_0024235.JPG,,ISIC_6710411.JPG,,27,true,0.42000000000000026,lh,keypress(e),100,false,243102.19999980927,243102.10000038147,237661.4,237749.19999980927,237678.1,243032.4,1,16,11,
sequence,flow.Sequence,4_10,2024-03-05T20:13:27.995Z,,,,,,,,,,,5424.000000381464,completion,,,,,,,low,high,,,,,,,true,,,,,false,243102.30000019073,243102.10000038147,237661.4,237749.19999980927,237678.1,243032.4,1,16,,
trial,html.Screen,4_11_0,2024-03-05T20:13:33.443Z,,,,0,0.9433720631499012,-1.0582071940347648,,,true,lh,5517.200000381476,response,-0.8623414234919863,1.2,-1.2,0.782830143980698,1.2,-1.2,low,high,,ISIC_4890201.JPG,,ISIC_2727016.JPG,,27,true,0.42000000000000026,lh,keypress(e),100,false,248549.69999980927,248549.60000038147,243015.832,243102.4000005722,243032.4,248487,1,16,12,
sequence,flow.Sequence,4_11,2024-03-05T20:13:33.443Z,,,,,,,,,,,5517.200000381476,completion,,,,,,,low,high,,,,,,,true,,,,,false,248549.80000019073,248549.60000038147,243015.832,243102.4000005722,243032.4,248487,1,16,,
trial,html.Screen,4_12_0,2024-03-05T20:13:41.019Z,,,,0,-1.4092385398614515,1.3046237992197836,,,true,hl,7639.300000190735,response,0.9579209317488,1.2,-1.2,-1.0147487101263497,1.2,-1.2,high,low,,ISIC_7254359.JPG,,ISIC_8124482.JPG,,26,true,0.3600000000000002,hl,keypress(j),100,false,256126.4000005722,256126.30000019073,248470.3,248549.80000019073,248487,256059.8,1,16,13,
sequence,flow.Sequence,4_12,2024-03-05T20:13:41.020Z,,,,,,,,,,,7639.300000190735,completion,,,,,,,high,low,,,,,,,true,,,,,false,256126.5,256126.30000019073,248470.3,248549.80000019073,248487,256059.8,1,16,,
trial,html.Screen,4_13_0,2024-03-05T20:13:49.493Z,,,,0,-0.8092423703106274,1.1870093485714288,,,true,hl,8540.500000190747,response,0.858338058340649,1.2,-1.2,-0.9540612223480284,1.2,-1.2,high,low,,ISIC_8592235.JPG,,ISIC_8922893.JPG,,33,true,0.42000000000000026,hl,keypress(j),100,false,264600.30000019073,264600.30000019073,256043.2,256126.60000038147,256059.8,264533.5,1,16,14,
sequence,flow.Sequence,4_13,2024-03-05T20:13:49.494Z,,,,,,,,,,,8540.500000190747,completion,,,,,,,high,low,,,,,,,true,,,,,false,264600.5,264600.30000019073,256043.2,256126.60000038147,256059.8,264533.5,1,16,,
trial,html.Screen,4_14_0,2024-03-05T20:13:58.223Z,,,,0,-1.0164576835546473,0.8120626538423016,,,true,hl,8796.10000038147,response,1.4747161152848791,1.2,-1.2,-0.847048591307387,1.2,-1.2,high,low,,ISIC_6002694.JPG,,ISIC_0016092.JPG,,33,true,0.42000000000000026,hl,keypress(j),100,false,273329.69999980927,273329.60000038147,264516.83,264600.5,264533.5,273257.3,1,16,15,
sequence,flow.Sequence,4_14,2024-03-05T20:13:58.223Z,,,,,,,,,,,8796.10000038147,completion,,,,,,,high,low,,,,,,,true,,,,,false,273329.80000019073,273329.60000038147,264516.83,264600.5,264533.5,273257.3,1,16,,
trial,html.Screen,4_15_0,2024-03-05T20:14:03.352Z,,,,0,-1.0213365328004047,1.088524359911891,,,true,hl,5201.899999809277,response,0.8179805381029407,1.2,-1.2,-0.8578467162767749,1.2,-1.2,high,low,,ISIC_5434229.JPG,,ISIC_0067253.JPG,,33,true,0.42000000000000026,hl,keypress(j),100,false,278459.30000019073,278459.19999980927,273240.7,273329.80000019073,273257.3,278394.9,1,16,16,
sequence,flow.Sequence,4_15,2024-03-05T20:14:03.353Z,,,,,,,,,,,5201.899999809277,completion,,,,,,,high,low,,,,,,,true,,,,,false,278459.5,278459.19999980927,273240.7,273329.80000019073,273257.3,278394.9,1,16,,
demonstration_loop,flow.Loop,4,2024-03-05T20:14:03.353Z,,,,,,,,,,,111055.69999980927,completion,,,,,,,,,,,,,,,true,,,,,false,278459.60000038147,278459.19999980927,167403.394,167484.9000005722,167403.5,278394.9,1,16,,
practice_instructions,html.Screen,5,2024-03-05T20:14:49.858Z,,,,,,,,,,,46593.59999999998,response,,,,,,,,,,,,,,,,,continue,click button,,,324993.5,324988.5,278378.232,278459.60000038147,278394.9,324917.6,,,,
trial,html.Screen,6_0_0,2024-03-05T20:15:05.858Z,,,,1,-0.8655167308525522,0.9298580423306444,,,,,16012.200000000012,timeout,0.8809306963311293,1.2,-1.2,-0.8614910030038974,1.2,-1.2,high,low,,ISIC_4603706.JPG,,ISIC_0013731.JPG,,26,true,0.3600000000000002,,,0,false,340993.5,340993.4000005722,324916.596,324993.5,324917.6,340929.8,1,40,1,
sequence,flow.Sequence,6_0,2024-03-05T20:15:05.858Z,,,,,,,,,,,16075.800000572228,completion,,,,,,,high,low,,,,,,,true,,,,,false,340993.69999980927,340993.4000005722,324916.596,324993.5,324917.6,340929.8,1,40,,
trial,html.Screen,6_1_0,2024-03-05T20:15:12.210Z,,,,1,0.9433720631499012,-1.0582071940347648,,,false,lh,6416.200000000012,response,-0.7833710010171356,1.2,-1.2,0.9315588090336896,1.2,-1.2,low,high,,ISIC_4890201.JPG,,ISIC_3826102.JPG,,27,true,0.42000000000000026,hh,keypress(i),0,false,347346.19999980927,347346,340913.1,340993.80000019073,340929.8,347285.5,1,40,2,
sequence,flow.Sequence,6_1,2024-03-05T20:15:12.211Z,,,,,,,,,,,6416.200000000012,completion,,,,,,,low,high,,,,,,,true,,,,,false,347346.4000005722,347346,340913.1,340993.80000019073,340929.8,347285.5,1,40,,
trial,html.Screen,6_2_0,2024-03-05T20:15:19.750Z,,,,1,-0.796241477082623,0.9017449335975743,,,false,hl,7599.800000190735,response,0.8809306963311293,1.2,-1.2,-0.8614910030038974,1.2,-1.2,high,low,,ISIC_8588033.JPG,,ISIC_0013731.JPG,,26,true,0.3600000000000002,lh,keypress(e),0,false,354885.5,354885.30000019073,347268.5,347346.4000005722,347285.5,354808,1,40,3,
sequence,flow.Sequence,6_2,2024-03-05T20:15:19.750Z,,,,,,,,,,,7599.800000190735,completion,,,,,,,high,low,,,,,,,true,,,,,false,354885.60000038147,354885.30000019073,347268.5,347346.4000005722,347285.5,354808,1,40,,
trial,html.Screen,6_3_0,2024-03-05T20:15:31.065Z,,,,1,-1.4092385398614515,1.3046237992197836,,,false,hl,11391.900000572205,response,1.331700944308701,1.2,-1.2,-0.9395196143259436,1.2,-1.2,high,low,,ISIC_7254359.JPG,,ISIC_1668831.JPG,,33,true,0.42000000000000026,hh,keypress(i),0,false,366200.19999980927,366199.9000005722,354802.462,354885.69999980927,354808,366117.4,1,40,4,
sequence,flow.Sequence,6_3,2024-03-05T20:15:31.065Z,,,,,,,,,,,11391.900000572205,completion,,,,,,,high,low,,,,,,,true,,,,,false,366200.69999980927,366199.9000005722,354802.462,354885.60000038147,354808,366117.4,1,40,,
trial,html.Screen,6_4_0,2024-03-05T20:15:37.040Z,,,,1,-1.156827121261563,-1.2544342720917778,,,true,hh,6057.900000190712,response,1.072671714258808,1.2,-1.2,1.0208498389771272,1.2,-1.2,high,high,,ISIC_0060397.JPG,,ISIC_5218773.JPG,,253,true,0.42000000000000026,hh,keypress(i),0,false,372175.69999980927,372175.30000019073,366108.688,366200.9000005722,366117.4,372089,1,40,5,
sequence,flow.Sequence,6_4,2024-03-05T20:15:37.040Z,,,,,,,,,,,6057.900000190712,completion,,,,,,,high,high,,,,,,,true,,,,,false,372176.10000038147,372175.30000019073,366108.688,366200.9000005722,366117.4,372089,1,40,,
trial,html.Screen,6_5_0,2024-03-05T20:15:43.600Z,,,,1,-1.272699544571422,-1.12917997553565,,,true,hh,6646.400000572205,response,1.2503149164557643,1.2,-1.2,1.0796591227570405,1.2,-1.2,high,high,,ISIC_0012057.JPG,,ISIC_2466892.JPG,,26,true,0.15000000000000002,hh,keypress(i),0,false,378735.69999980927,378735.4000005722,372084.658,372176.30000019073,372089,378661,1,40,6,
sequence,flow.Sequence,6_5,2024-03-05T20:15:43.600Z,,,,,,,,,,,6646.400000572205,completion,,,,,,,high,high,,,,,,,true,,,,,false,378736.19999980927,378735.4000005722,372084.658,372176.30000019073,372089,378661,1,40,,
trial,html.Screen,6_6_0,2024-03-05T20:15:49.825Z,,,,1,-1.2181031651370575,-1.2158573487067317,,,true,hh,6385.800000190735,response,1.1210325063849345,1.2,-1.2,1.1498648320956202,1.2,-1.2,high,high,,ISIC_7242312.JPG,,ISIC_0032162.JPG,,26,true,0.15000000000000002,hh,keypress(i),0,false,385047.19999980927,385046.80000019073,378644.4,378736.4000005722,378661,384966.2,1,40,7,
sequence,flow.Sequence,6_6,2024-03-05T20:15:49.825Z,,,,,,,,,,,6385.800000190735,completion,,,,,,,high,high,,,,,,,true,,,,,false,385047.69999980927,385046.80000019073,378644.4,378736.4000005722,378661,384966.2,1,40,,
trial,html.Screen,6_7_0,2024-03-05T20:15:52.113Z,,,,1,-1.272699544571422,-1.12917997553565,,,true,hh,2368.9999998092535,response,1.0959058628476686,1.2,-1.2,1.1684835186766898,1.2,-1.2,high,high,,ISIC_0012057.JPG,,ISIC_5920470.JPG,,26,true,0.15000000000000002,hh,keypress(i),0,false,387335.60000038147,387335.19999980927,384961.788,385048,384966.2,387268,1,40,8,
sequence,flow.Sequence,6_7,2024-03-05T20:15:52.114Z,,,,,,,,,,,2368.9999998092535,completion,,,,,,,high,high,,,,,,,true,,,,,false,387336.10000038147,387335.19999980927,384961.788,385047.9000005722,384966.2,387268,1,40,,
trial,html.Screen,6_8_0,2024-03-05T20:16:00.153Z,,,,1,0.8579451262594331,-0.9633172970727744,,,true,lh,8107.10000038147,response,-0.991146183030456,1.2,-1.2,0.9949639823722534,1.2,-1.2,low,high,,ISIC_0067172.JPG,,ISIC_6342224.JPG,,27,true,0.42000000000000026,lh,keypress(e),0,false,395375.4000005722,395375.10000038147,387267.248,387336.30000019073,387268,395302.386,1,40,9,
sequence,flow.Sequence,6_8,2024-03-05T20:16:00.153Z,,,,,,,,,,,8107.10000038147,completion,,,,,,,low,high,,,,,,,true,,,,,false,395375.80000019073,395375.10000038147,387267.248,387336.19999980927,387268,395302.386,1,40,,
trial,html.Screen,6_9_0,2024-03-05T20:16:04.218Z,,,,1,1.1181734135756094,-0.944560381774994,,,true,lh,4137.514000572206,response,-0.991146183030456,1.2,-1.2,0.9949639823722534,1.2,-1.2,low,high,,ISIC_9688534.JPG,,ISIC_6342224.JPG,,27,true,0.42000000000000026,lh,keypress(e),0,false,399440.19999980927,399439.9000005722,395302.386,395375.80000019073,395302.386,399361.4,1,40,10,
sequence,flow.Sequence,6_9,2024-03-05T20:16:04.218Z,,,,,,,,,,,4137.514000572206,completion,,,,,,,low,high,,,,,,,true,,,,,false,399440.9000005722,399439.9000005722,395302.386,395375.80000019073,395302.386,399361.4,1,40,,
trial,html.Screen,6_10_0,2024-03-05T20:16:07.159Z,,,,1,-1.2249552940807693,-1.1723015116910682,,,true,hh,3020.0999999999767,response,0.9008266293518152,1.2,-1.2,1.180104759344151,1.2,-1.2,high,high,,ISIC_0055251.JPG,,ISIC_0025702.JPG,,179,true,0.3600000000000002,hh,keypress(i),0,false,402381.69999980927,402381.5,399344.9,399441.19999980927,399361.4,402297,1,40,11,
sequence,flow.Sequence,6_10,2024-03-05T20:16:07.159Z,,,,,,,,,,,3020.0999999999767,completion,,,,,,,high,high,,,,,,,true,,,,,false,402381.80000019073,402381.5,399344.9,399441.10000038147,399361.4,402297,1,40,,
trial,html.Screen,6_11_0,2024-03-05T20:16:16.490Z,,,,1,-1.0264463986917702,1.2804054832904397,,,true,hl,9414.699999809265,response,0.879102500583965,1.2,-1.2,-1.0933081951979773,1.2,-1.2,high,low,,ISIC_7889838.JPG,,ISIC_0046223.JPG,,26,true,0.3600000000000002,hl,keypress(j),0,false,411712.10000038147,411711.69999980927,402295.556,402381.80000019073,402297,411647.966,1,40,12,
sequence,flow.Sequence,6_11,2024-03-05T20:16:16.490Z,,,,,,,,,,,9414.699999809265,completion,,,,,,,high,low,,,,,,,true,,,,,false,411712.69999980927,411711.69999980927,402295.556,402381.80000019073,402297,411647.966,1,40,,
trial,html.Screen,6_12_0,2024-03-05T20:16:21.457Z,,,,1,-0.8623414234919863,0.782830143980698,,,true,hl,5031.634000381455,response,1.0751036484083878,1.2,-1.2,-1.143906455483852,1.2,-1.2,high,low,,ISIC_2727016.JPG,,ISIC_0064406.JPG,,33,true,0.42000000000000026,hl,keypress(j),0,false,416680,416679.60000038147,411647.966,411712.9000005722,411647.966,416609.3,1,40,13,
sequence,flow.Sequence,6_12,2024-03-05T20:16:21.458Z,,,,,,,,,,,5031.634000381455,completion,,,,,,,high,low,,,,,,,true,,,,,false,416680.5,416679.60000038147,411647.966,411712.9000005722,411647.966,416609.3,1,40,,
trial,html.Screen,6_13_0,2024-03-05T20:16:27.530Z,,,,1,1.1598623261077452,1.203269031614007,,,true,ll,6142.600000572216,response,-1.4328626193594842,1.2,-1.2,-1.3588853439240085,1.2,-1.2,low,low,,ISIC_0002639.JPG,,ISIC_0030929.JPG,,339,true,0.42000000000000026,ll,keypress(f),0,false,422752.30000019073,422751.9000005722,416589.176,416680.80000019073,416609.3,422693.096,1,40,14,
sequence,flow.Sequence,6_13,2024-03-05T20:16:27.530Z,,,,,,,,,,,6142.600000572216,completion,,,,,,,low,low,,,,,,,true,,,,,false,422752.80000019073,422751.9000005722,416589.176,416680.69999980927,416609.3,422693.096,1,40,,
trial,html.Screen,6_14_0,2024-03-05T20:16:33.831Z,,,,1,0.858338058340649,-0.9540612223480284,,,true,lh,6360.90399999998,response,-0.8947611078712571,1.2,-1.2,0.8960964505004638,1.2,-1.2,low,high,,ISIC_8922893.JPG,,ISIC_6441128.JPG,,27,true,0.42000000000000026,lh,keypress(e),0,false,429054,429054,422693.096,422753,422693.096,428969.1,1,40,15,
sequence,flow.Sequence,6_14,2024-03-05T20:16:33.832Z,,,,,,,,,,,6360.90399999998,completion,,,,,,,low,high,,,,,,,true,,,,,false,429054.10000038147,429054,422693.096,422753,422693.096,428969.1,1,40,,
trial,html.Screen,6_15_0,2024-03-05T20:16:40.551Z,,,,1,1.0870240111136478,1.332340670965917,,,true,ll,6804.500000381493,response,-1.2169050727663315,1.2,-1.2,-1.1067845563421794,1.2,-1.2,low,low,,ISIC_0000660.JPG,,ISIC_7016261.JPG,,245,true,0.3600000000000002,ll,keypress(f),0,false,435773.69999980927,435773.60000038147,428964.856,429054.10000038147,428969.1,435691.2,1,40,16,
sequence,flow.Sequence,6_15,2024-03-05T20:16:40.551Z,,,,,,,,,,,6804.500000381493,completion,,,,,,,low,low,,,,,,,true,,,,,false,435773.80000019073,435773.60000038147,428964.856,429054.10000038147,428969.1,435691.2,1,40,,
trial,html.Screen,6_16_0,2024-03-05T20:16:47.079Z,,,,1,1.086647361897092,1.1528935990320313,,,true,ll,6609.900000381458,response,-1.082730232773217,1.2,-1.2,-1.2594580992890123,1.2,-1.2,low,low,,ISIC_3505339.JPG,,ISIC_0011933.JPG,,53,true,0.15000000000000002,ll,keypress(f),0,false,442301.19999980927,442301.10000038147,435674.4,435773.9000005722,435691.2,442213.2,1,40,17,
sequence,flow.Sequence,6_16,2024-03-05T20:16:47.079Z,,,,,,,,,,,6609.900000381458,completion,,,,,,,low,low,,,,,,,true,,,,,false,442301.30000019073,442301.10000038147,435674.4,435773.9000005722,435691.2,442213.2,1,40,,
trial,html.Screen,6_17_0,2024-03-05T20:16:55.378Z,,,,1,-0.7998855902596425,1.1518579145663017,,,true,hl,8474.100000190723,response,1.020990671779317,1.2,-1.2,-1.0116513850520903,1.2,-1.2,high,low,,ISIC_0025061.JPG,,ISIC_0011995.JPG,,26,true,0.3600000000000002,hl,keypress(j),0,false,450687.69999980927,450687.30000019073,442208.546,442301.30000019073,442213.2,450603.7,1,40,18,
sequence,flow.Sequence,6_17,2024-03-05T20:16:55.378Z,,,,,,,,,,,8474.100000190723,completion,,,,,,,high,low,,,,,,,true,,,,,false,450688.30000019073,450687.30000019073,442208.546,442301.30000019073,442213.2,450603.7,1,40,,
trial,html.Screen,6_18_0,2024-03-05T20:17:03.354Z,,,,1,1.057008495826831,1.1278122585028287,,,true,ll,8059.799999999988,response,-1.150547408535662,1.2,-1.2,-1.3135268651968233,1.2,-1.2,low,low,,ISIC_2819798.JPG,,ISIC_0072568.JPG,,339,true,0.42000000000000026,ll,keypress(f),0,false,458663.9000005722,458663.5,450597.172,450688.5,450603.7,458577,1,40,19,
sequence,flow.Sequence,6_18,2024-03-05T20:17:03.354Z,,,,,,,,,,,8059.799999999988,completion,,,,,,,low,low,,,,,,,true,,,,,false,458664.4000005722,458663.5,450597.172,450688.5,450603.7,458577,1,40,,
trial,html.Screen,6_19_0,2024-03-05T20:17:06.578Z,,,,1,-1.272699544571422,-1.12917997553565,,,true,hh,3310.4000005722046,response,1.2024083555600384,1.2,-1.2,1.149077673153018,1.2,-1.2,high,high,,ISIC_0012057.JPG,,ISIC_3566243.JPG,,26,true,0.15000000000000002,hh,keypress(i),0,false,461887.80000019073,461887.4000005722,458570.988,458664.69999980927,458577,461813.1,1,40,20,
sequence,flow.Sequence,6_19,2024-03-05T20:17:06.578Z,,,,,,,,,,,3310.4000005722046,completion,,,,,,,high,high,,,,,,,true,,,,,false,461888.30000019073,461887.4000005722,458570.988,458664.60000038147,458577,461813.1,1,40,,
trial,html.Screen,6_20_0,2024-03-05T20:17:10.794Z,,,,1,1.2024083555600384,1.149077673153018,,,true,ll,4290.099999809288,response,-1.156827121261563,1.2,-1.2,-1.2544342720917778,1.2,-1.2,low,low,,ISIC_3566243.JPG,,ISIC_0060397.JPG,,30,true,0.1,ll,keypress(f),0,false,466103.60000038147,466103.19999980927,461796.4,461888.5,461813.1,466033,1,40,21,
sequence,flow.Sequence,6_20,2024-03-05T20:17:10.794Z,,,,,,,,,,,4290.099999809288,completion,,,,,,,low,low,,,,,,,true,,,,,false,466104.10000038147,466103.19999980927,461796.4,461888.5,461813.1,466033,1,40,,
trial,html.Screen,6_21_0,2024-03-05T20:17:17.394Z,,,,1,1.0143509683988825,-1.3163955902021656,,,true,lh,6670.800000190735,response,-1.4092385398614515,1.2,-1.2,1.3046237992197836,1.2,-1.2,low,high,,ISIC_0062031.JPG,,ISIC_7254359.JPG,,27,true,0.42000000000000026,lh,keypress(e),0,false,472704.10000038147,472703.80000019073,466030.538,466104.30000019073,466033,472621.8,1,40,22,
sequence,flow.Sequence,6_21,2024-03-05T20:17:17.395Z,,,,,,,,,,,6670.800000190735,completion,,,,,,,low,high,,,,,,,true,,,,,false,472704.69999980927,472703.80000019073,466030.538,466104.19999980927,466033,472621.8,1,40,,
trial,html.Screen,6_22_0,2024-03-05T20:17:20.210Z,,,,1,-1.2493792664822851,-1.1336008561684745,,,true,hh,2897.7000000000116,response,0.9493297220358412,1.2,-1.2,0.9126122723623854,1.2,-1.2,high,high,,ISIC_0061475.JPG,,ISIC_9738202.JPG,,179,true,0.3600000000000002,hh,keypress(i),0,false,475519.80000019073,475519.5,472617.31,472705,472621.8,475441,1,40,23,
sequence,flow.Sequence,6_22,2024-03-05T20:17:20.210Z,,,,,,,,,,,2897.7000000000116,completion,,,,,,,high,high,,,,,,,true,,,,,false,475520.30000019073,475519.5,472617.31,472704.9000005722,472621.8,475441,1,40,,
trial,html.Screen,6_23_0,2024-03-05T20:17:25.274Z,,,,1,1.0870240111136478,1.332340670965917,,,true,ll,5142.60000038147,response,-1.101346104814838,1.2,-1.2,-1.1225813067473052,1.2,-1.2,low,low,,ISIC_0000660.JPG,,ISIC_8175453.JPG,,30,true,0.1,ll,keypress(f),0,false,480584.10000038147,480583.60000038147,475424.3,475520.5,475441,480511.7,1,40,24,
sequence,flow.Sequence,6_23,2024-03-05T20:17:25.275Z,,,,,,,,,,,5142.60000038147,completion,,,,,,,low,low,,,,,,,true,,,,,false,480584.69999980927,480583.60000038147,475424.3,475520.4000005722,475441,480511.7,1,40,,
trial,html.Screen,6_24_0,2024-03-05T20:17:28.090Z,,,,1,-1.1877026569952844,-1.1604367569896263,,,true,hh,2888.200000572193,response,1.3411179702686655,1.2,-1.2,1.255103311449152,1.2,-1.2,high,high,,ISIC_0064589.JPG,,ISIC_5611010.JPG,,26,true,0.15000000000000002,hh,keypress(i),0,false,483400.30000019073,483399.9000005722,480495,480585,480511.7,483314,1,40,25,
sequence,flow.Sequence,6_24,2024-03-05T20:17:28.091Z,,,,,,,,,,,2888.200000572193,completion,,,,,,,high,high,,,,,,,true,,,,,false,483400.80000019073,483399.9000005722,480495,480584.9000005722,480511.7,483314,1,40,,
trial,html.Screen,6_25_0,2024-03-05T20:17:32.856Z,,,,1,1.0870240111136478,1.332340670965917,,,true,ll,4851.5,response,-1.185875658992962,1.2,-1.2,-1.2635548590325487,1.2,-1.2,low,low,,ISIC_0000660.JPG,,ISIC_0011703.JPG,,30,true,0.1,ll,keypress(f),0,false,488165.5,488165.5,483312.594,483401.10000038147,483314,488084.4,1,40,26,
sequence,flow.Sequence,6_25,2024-03-05T20:17:32.856Z,,,,,,,,,,,4851.5,completion,,,,,,,low,low,,,,,,,true,,,,,false,488165.69999980927,488165.5,483312.594,483400.9000005722,483314,488084.4,1,40,,
trial,html.Screen,6_26_0,2024-03-05T20:17:38.922Z,,,,1,-0.8092423703106274,1.1870093485714288,,,true,hl,6147.500000572181,response,1.2331439637486756,1.2,-1.2,-0.9691143900156988,1.2,-1.2,high,low,,ISIC_8592235.JPG,,ISIC_7877488.JPG,,26,true,0.3600000000000002,hl,keypress(j),0,false,494232.30000019073,494231.9000005722,488081.616,488165.69999980927,488084.4,494156.2,1,40,27,
sequence,flow.Sequence,6_26,2024-03-05T20:17:38.923Z,,,,,,,,,,,6147.500000572181,completion,,,,,,,high,low,,,,,,,true,,,,,false,494232.9000005722,494231.9000005722,488081.616,488165.69999980927,488084.4,494156.2,1,40,,
trial,html.Screen,6_27_0,2024-03-05T20:17:45.266Z,,,,1,0.869932994914832,-0.8880533324432531,,,true,lh,6418.9999998092535,response,-1.0164576835546473,1.2,-1.2,0.8120626538423016,1.2,-1.2,low,high,,ISIC_8617084.JPG,,ISIC_6002694.JPG,,27,true,0.42000000000000026,lh,keypress(e),0,false,500575.69999980927,500575.19999980927,494151.864,494233.10000038147,494156.2,500494.7,1,40,28,
sequence,flow.Sequence,6_27,2024-03-05T20:17:45.266Z,,,,,,,,,,,6418.9999998092535,completion,,,,,,,low,high,,,,,,,true,,,,,false,500576.19999980927,500575.19999980927,494151.864,494233,494156.2,500494.7,1,40,,
trial,html.Screen,6_28_0,2024-03-05T20:17:47.738Z,,,,1,-1.101214461533281,-1.1849883512428183,,,true,hh,2552.4999998092535,response,0.8550481550669533,1.2,-1.2,1.4834203854329602,1.2,-1.2,high,high,,ISIC_0064943.JPG,,ISIC_0024410.JPG,,179,true,0.3600000000000002,hh,keypress(i),0,false,503047.60000038147,503047.19999980927,500490.42,500576.5,500494.7,502980.1,1,40,29,
sequence,flow.Sequence,6_28,2024-03-05T20:17:47.738Z,,,,,,,,,,,2552.4999998092535,completion,,,,,,,high,high,,,,,,,true,,,,,false,503048,503047.19999980927,500490.42,500576.30000019073,500494.7,502980.1,1,40,,
trial,html.Screen,6_29_0,2024-03-05T20:17:55.225Z,,,,1,1.4747161152848791,-0.847048591307387,,,true,lh,7642.400000000023,response,-0.7998855902596425,1.2,-1.2,1.1518579145663017,1.2,-1.2,low,high,,ISIC_0016092.JPG,,ISIC_0025061.JPG,,27,true,0.42000000000000026,lh,keypress(e),0,false,510622.9000005722,510622.5,502979.174,503048.19999980927,502980.1,510553.1,1,40,30,
sequence,flow.Sequence,6_29,2024-03-05T20:17:55.226Z,,,,,,,,,,,7642.400000000023,completion,,,,,,,low,high,,,,,,,true,,,,,false,510623.4000005722,510622.5,502979.174,503048.19999980927,502980.1,510553.1,1,40,,
trial,html.Screen,6_30_0,2024-03-05T20:18:01.010Z,,,,1,1.331700944308701,-0.9395196143259436,,,true,lh,5853.900000000023,response,-0.7870237732709365,1.2,-1.2,0.9172955251119376,1.2,-1.2,low,high,,ISIC_1668831.JPG,,ISIC_0057716.JPG,,27,true,0.42000000000000026,lh,keypress(e),0,false,516407.30000019073,516407,510547.494,510623.60000038147,510553.1,516341.1,1,40,31,
sequence,flow.Sequence,6_30,2024-03-05T20:18:01.010Z,,,,,,,,,,,5853.900000000023,completion,,,,,,,low,high,,,,,,,true,,,,,false,516407.9000005722,516407,510547.494,510623.60000038147,510553.1,516341.1,1,40,,
trial,html.Screen,6_31_0,2024-03-05T20:18:04.697Z,,,,1,-0.991146183030456,0.9949639823722534,,,true,hl,3752.9000000000233,response,0.991282840649944,1.2,-1.2,-0.9397921099839784,1.2,-1.2,high,low,,ISIC_6342224.JPG,,ISIC_0000463.JPG,,26,true,0.3600000000000002,hl,keypress(j),0,false,520094.19999980927,520094,516337.342,516408.10000038147,516341.1,520010.7,1,40,32,
sequence,flow.Sequence,6_31,2024-03-05T20:18:04.697Z,,,,,,,,,,,3752.9000000000233,completion,,,,,,,high,low,,,,,,,true,,,,,false,520094.4000005722,520094,516337.342,516408.10000038147,516341.1,520010.7,1,40,,
trial,html.Screen,6_32_0,2024-03-05T20:18:12.090Z,,,,1,1.3189473926989124,1.0770264364718942,,,true,ll,7476.799999999988,response,-0.8826815857659494,1.2,-1.2,-1.2118207001489876,1.2,-1.2,low,low,,ISIC_6093728.JPG,,ISIC_0066476.JPG,,339,true,0.42000000000000026,ll,keypress(f),0,false,527487.9000005722,527487.5,520008.36,520094.5,520010.7,527428.21,1,40,33,
sequence,flow.Sequence,6_32,2024-03-05T20:18:12.091Z,,,,,,,,,,,7476.799999999988,completion,,,,,,,low,low,,,,,,,true,,,,,false,527488.5,527487.5,520008.36,520094.5,520010.7,527428.21,1,40,,
trial,html.Screen,6_33_0,2024-03-05T20:18:19.001Z,,,,1,-0.7911024675435955,0.7975977016137676,,,true,hl,6970.590000190772,response,1.2075172235545184,1.2,-1.2,-0.9116724966267612,1.2,-1.2,high,low,,ISIC_5813642.JPG,,ISIC_0024235.JPG,,26,true,0.3600000000000002,hl,keypress(j),0,false,534399,534398.8000001907,527428.21,527488.6999998093,527428.21,534322.6,1,40,34,
sequence,flow.Sequence,6_33,2024-03-05T20:18:19.002Z,,,,,,,,,,,6970.590000190772,completion,,,,,,,high,low,,,,,,,true,,,,,false,534399.3000001907,534398.8000001907,527428.21,527488.6000003815,527428.21,534322.6,1,40,,
trial,html.Screen,6_34_0,2024-03-05T20:18:24.515Z,,,,1,-0.796241477082623,0.9017449335975743,,,true,hl,5589.599999809288,response,0.858338058340649,1.2,-1.2,-0.9540612223480284,1.2,-1.2,high,low,,ISIC_8588033.JPG,,ISIC_8922893.JPG,,33,true,0.42000000000000026,hl,keypress(j),0,false,539912.6999998093,539912.1999998093,534317.898,534399.5,534322.6,539840.186,1,40,35,
sequence,flow.Sequence,6_34,2024-03-05T20:18:24.516Z,,,,,,,,,,,5589.599999809288,completion,,,,,,,high,low,,,,,,,true,,,,,false,539913.5,539912.1999998093,534317.898,534399.5,534322.6,539840.186,1,40,,
trial,html.Screen,6_35_0,2024-03-05T20:18:30.394Z,,,,1,0.8579451262594331,-0.9633172970727744,,,true,lh,5950.814000000013,response,-0.9235571765207048,1.2,-1.2,1.0008081653938232,1.2,-1.2,low,high,,ISIC_0067172.JPG,,ISIC_8796632.JPG,,27,true,0.42000000000000026,lh,keypress(e),0,false,545791.3000001907,545791,539840.186,539913.6999998093,539840.186,545715.4,1,40,36,
sequence,flow.Sequence,6_35,2024-03-05T20:18:30.394Z,,,,,,,,,,,5950.814000000013,completion,,,,,,,low,high,,,,,,,true,,,,,false,545791.6999998093,545791,539840.186,539913.6000003815,539840.186,545715.4,1,40,,
trial,html.Screen,6_36_0,2024-03-05T20:18:35.563Z,,,,1,1.2012395086389958,1.0618985767073823,,,true,ll,5244.599999999977,response,-0.8836700994270283,1.2,-1.2,-1.476160726716384,1.2,-1.2,low,low,,ISIC_9876004.JPG,,ISIC_0069667.JPG,,245,true,0.3600000000000002,ll,keypress(f),0,false,550960.5,550960,545698.8,545792,545715.4,550886.3,1,40,37,
sequence,flow.Sequence,6_36,2024-03-05T20:18:35.564Z,,,,,,,,,,,5244.599999999977,completion,,,,,,,low,low,,,,,,,true,,,,,false,550961.1999998093,550960,545698.8,545791.9000005722,545715.4,550886.3,1,40,,
trial,html.Screen,6_37_0,2024-03-05T20:18:43.202Z,,,,1,1.331700944308701,-0.9395196143259436,,,true,lh,7713.000000190688,response,-1.0164576835546473,1.2,-1.2,0.8120626538423016,1.2,-1.2,low,high,,ISIC_1668831.JPG,,ISIC_6002694.JPG,,27,true,0.42000000000000026,lh,keypress(e),0,false,558599.6000003815,558599.3000001907,550882.8,550961.4000005722,550886.3,558526.3,1,40,38,
sequence,flow.Sequence,6_37,2024-03-05T20:18:43.202Z,,,,,,,,,,,7713.000000190688,completion,,,,,,,low,high,,,,,,,true,,,,,false,558600.1000003815,558599.3000001907,550882.8,550961.3000001907,550886.3,558526.3,1,40,,
trial,html.Screen,6_38_0,2024-03-05T20:18:46.952Z,,,,1,1.086647361897092,1.1528935990320313,,,true,ll,3823.1999999999534,response,-1.3734021195563564,1.2,-1.2,-0.9522933323146734,1.2,-1.2,low,low,,ISIC_3505339.JPG,,ISIC_0011349.JPG,,245,true,0.3600000000000002,ll,keypress(f),0,false,562349.6000003815,562349.5,558509,558600.3000001907,558526.3,562262.4,1,40,39,
sequence,flow.Sequence,6_38,2024-03-05T20:18:46.952Z,,,,,,,,,,,3823.1999999999534,completion,,,,,,,low,low,,,,,,,true,,,,,false,562349.8000001907,562349.5,558509,558600.3000001907,558526.3,562262.4,1,40,,
trial,html.Screen,6_39_0,2024-03-05T20:18:50.050Z,,,,1,-1.1877026569952844,-1.1604367569896263,,,true,hh,3272.9000001907116,response,1.2724584600905462,1.2,-1.2,1.1411016103695344,1.2,-1.2,high,high,,ISIC_0064589.JPG,,ISIC_0059625.JPG,,26,true,0.15000000000000002,hh,keypress(i),0,false,565535.6999998093,565535.3000001907,562260.29,562349.8000001907,562262.4,565466.1,1,40,40,
sequence,flow.Sequence,6_39,2024-03-05T20:18:50.051Z,,,,,,,,,,,3272.9000001907116,completion,,,,,,,high,high,,,,,,,true,,,,,false,565536.1999998093,565535.3000001907,562260.29,562349.8000001907,562262.4,565466.1,1,40,,
practice_loop,flow.Loop,6,2024-03-05T20:18:50.051Z,,,,,,,,,,,240617.70000019076,completion,,,,,,,,,,,,,,,true,,,,,false,565536.4000005722,565535.3000001907,324916.596,324993.5,324917.6,565466.1,1,40,,
stair_instructions,html.Screen,7,2024-03-05T20:18:53.760Z,,,,,,,,,,,3778.800000572228,response,,,,,,,,,,,,,,,,,continue,click button,,,569245.6000003815,569244.9000005722,565446.546,565536.6999998093,565466.1,569168.094,,,,
trial,html.Screen,8_0_0,2024-03-05T20:18:59.033Z,,,,2,0.0409338693593207,-0.0072462710499874,,0.05,false,hl,5350.405999999959,response,1.2331439637486756,1.2,-1.2,-0.9691143900156988,1.2,-1.2,high,low,,ISIC_3608788.JPG,,ISIC_7877488.JPG,33,26,false,0.3600000000000002,hh,keypress(i),0,true,574518.6000003815,574518.5,569168.094,569245.6999998093,569168.094,574456.1,1,40,1,
sequence,flow.Sequence,8_0,2024-03-05T20:18:59.034Z,,,,,,,,,,,5350.405999999959,completion,,,,,,,high,low,,,,,,,false,,,,,true,574518.8000001907,574518.5,569168.094,569245.6999998093,569168.094,574456.1,1,40,,
trial,html.Screen,8_1_0,2024-03-05T20:19:06.651Z,,,,2,0.0159061451859594,0.0296598845560212,,0.05,true,lh,7679.300000572228,response,-0.796241477082623,1.15,-1.15,0.9017449335975743,1.15,-1.2,low,high,,ISIC_0072564.JPG,,ISIC_8588033.JPG,33,27,false,0.3700000000000002,lh,keypress(e),0,true,582135.9000005722,582135.4000005722,574439.6,574518.9000005722,574456.1,582062,1,40,2,
sequence,flow.Sequence,8_1,2024-03-05T20:19:06.651Z,,,,,,,,,,,7679.300000572228,completion,,,,,,,low,high,,,,,,,false,,,,,true,582136.5,582135.4000005722,574439.6,574518.8000001907,574456.1,582062,1,40,,
trial,html.Screen,8_2_0,2024-03-05T20:19:10.753Z,,,,2,0.0097091270150747,-0.0417921315885292,,0.05,true,lh,4176.199999809265,response,-0.7998855902596425,1.15,-1.15,1.1518579145663017,1.15,-1.15,low,high,,ISIC_3967213.JPG,,ISIC_0025061.JPG,33,27,false,0.3700000000000002,lh,keypress(e),0,true,586238.4000005722,586238.1999998093,582056.602,582136.6999998093,582062,586165.7,1,40,3,
sequence,flow.Sequence,8_2,2024-03-05T20:19:10.753Z,,,,,,,,,,,4176.199999809265,completion,,,,,,,low,high,,,,,,,false,,,,,true,586238.5,586238.1999998093,582056.602,582136.6999998093,582062,586165.7,1,40,,
trial,html.Screen,8_3_0,2024-03-05T20:19:18.244Z,,,,2,-0.039728379742806,0.0228701131373768,,0.05,false,lh,7562.499999809312,response,-0.991146183030456,1.15,-1.0999999999999999,0.9949639823722534,0.976801424081938,-1.15,low,high,,ISIC_0054073.JPG,,ISIC_6342224.JPG,33,26,false,0.29000000000000015,hl,keypress(j),0,true,593728.8000001907,593728.1999998093,586148.9,586238.5,586165.7,593654.8,1,40,4,
sequence,flow.Sequence,8_3,2024-03-05T20:19:18.244Z,,,,,,,,,,,7562.499999809312,completion,,,,,,,low,high,,,,,,,false,,,,,true,593729.5,593728.1999998093,586148.9,586238.5,586165.7,593654.8,1,40,,
trial,html.Screen,8_4_0,2024-03-05T20:19:23.115Z,,,,2,-0.0050679133050021,0.0009714874637896,,0.05,true,ll,4945.399999809219,response,-1.247270138097585,1.15,-1.15,-1.1704704713504994,1.026801424081938,-1.15,low,low,,ISIC_9848743.JPG,,ISIC_0065774.JPG,33,27,false,0.1,ll,keypress(f),0,true,598600.6999998093,598600.1999998093,593649.33,593729.8000001907,593654.8,598525.6,1,40,5,
sequence,flow.Sequence,8_4,2024-03-05T20:19:23.116Z,,,,,,,,,,,4945.399999809219,completion,,,,,,,low,low,,,,,,,false,,,,,true,598601.3000001907,598600.1999998093,593649.33,593729.6999998093,593654.8,598525.6,1,40,,
trial,html.Screen,8_5_0,2024-03-05T20:19:29.547Z,,,,2,-0.0450282431170921,0,,0.05,false,hh,6505.800000572228,response,1.212030980680325,1.15,-1.15,1.033832433609739,1.026801424081938,-1.15,high,high,,ISIC_1805163.JPG,,ISIC_0008510.JPG,33,27,false,0.11,hl,keypress(j),0,true,605031.8000001907,605031.4000005722,598522.312,598601.6000003815,598525.6,604947.6,1,40,6,
sequence,flow.Sequence,8_5,2024-03-05T20:19:29.547Z,,,,,,,,,,,6505.800000572228,completion,,,,,,,high,high,,,,,,,false,,,,,true,605032.3000001907,605031.4000005722,598522.312,598601.5,598525.6,604947.6,1,40,,
trial,html.Screen,8_6_0,2024-03-05T20:19:35.147Z,,,,2,0.0348234368746005,-0.0236866303880924,,0.05,true,hl,5684.599999809288,response,0.9696118525781644,1.0999999999999999,-1.15,-0.9244148283103414,1.0768014240819381,-1.15,high,low,,ISIC_0011099.JPG,,ISIC_7927525.JPG,33,26,false,0.30000000000000016,hl,keypress(j),0,true,610632.6000003815,610632.1999998093,604943.15,605032.6000003815,604947.6,610552.2,1,40,7,
sequence,flow.Sequence,8_6,2024-03-05T20:19:35.148Z,,,,,,,,,,,5684.599999809288,completion,,,,,,,high,low,,,,,,,false,,,,,true,610633,610632.1999998093,604943.15,605032.6000003815,604947.6,610552.2,1,40,,
trial,html.Screen,8_7_0,2024-03-05T20:19:40.171Z,,,,2,0.0051189696037511,-0.0396625911332438,,0.05,false,lh,5103.600000190781,response,-1.0213365328004047,1.0999999999999999,-1.15,1.088524359911891,1.0768014240819381,-1.0999999999999999,low,high,,ISIC_9742891.JPG,,ISIC_5434229.JPG,33,26,false,0.3600000000000002,ll,keypress(f),0,true,615656.1999998093,615655.8000001907,610548.45,610633.1999998093,610552.2,615573,1,40,8,
sequence,flow.Sequence,8_7,2024-03-05T20:19:40.172Z,,,,,,,,,,,5103.600000190781,completion,,,,,,,low,high,,,,,,,false,,,,,true,615656.9000005722,615655.8000001907,610548.45,610633.1000003815,610552.2,615573,1,40,,
trial,html.Screen,8_8_0,2024-03-05T20:19:43.291Z,,,,2,0.0409338693593207,-0.0072462710499874,,0.05,false,hl,3202.6000003814697,response,0.9579209317488,1.0999999999999999,-1.0999999999999999,-1.0147487101263497,1.1268014240819382,-1.0999999999999999,high,low,,ISIC_3608788.JPG,,ISIC_8124482.JPG,33,25,false,0.2600000000000001,hh,keypress(i),0,true,618775.9000005722,618775.6000003815,615569.596,615657.1000003815,615573,618692.2,1,40,9,
sequence,flow.Sequence,8_8,2024-03-05T20:19:43.291Z,,,,,,,,,,,3202.6000003814697,completion,,,,,,,high,low,,,,,,,false,,,,,true,618776.5,618775.6000003815,615569.596,615657,615573,618692.2,1,40,,
trial,html.Screen,8_9_0,2024-03-05T20:19:45.267Z,,,,2,-0.007397293189458,-0.0174716772037504,,0.05,true,hh,2059.700000572251,response,0.9008266293518152,0.9137663921634822,-1.0999999999999999,1.180104759344151,1.1268014240819382,-1.15,high,high,,ISIC_0056226.JPG,,ISIC_0025702.JPG,33,29,false,0.1,hh,keypress(i),0,true,620752.3000001907,620751.9000005722,618690.682,618776.8000001907,618692.2,620677.5,1,40,10,
sequence,flow.Sequence,8_9,2024-03-05T20:19:45.268Z,,,,,,,,,,,2059.700000572251,completion,,,,,,,high,high,,,,,,,false,,,,,true,620752.8000001907,620751.9000005722,618690.682,618776.6000003815,618692.2,620677.5,1,40,,
trial,html.Screen,8_10_0,2024-03-05T20:19:48.427Z,,,,2,0.0102460616775615,-0.0309670599545429,,0.05,false,hh,3234.300000190735,response,0.9859190680307316,0.9137663921634822,-1.0999999999999999,1.0904756837966545,1.1268014240819382,-1.15,high,high,,ISIC_0072041.JPG,,ISIC_0063151.JPG,33,29,false,0.1,hl,keypress(j),0,true,623912.1999998093,623911.8000001907,620660.5,620752.9000005722,620677.5,623846.5,1,40,11,
sequence,flow.Sequence,8_10,2024-03-05T20:19:48.428Z,,,,,,,,,,,3234.300000190735,completion,,,,,,,high,high,,,,,,,false,,,,,true,623912.8000001907,623911.8000001907,620660.5,620752.9000005722,620677.5,623846.5,1,40,,
trial,html.Screen,8_11_0,2024-03-05T20:19:51.648Z,,,,2,-0.0069555338059566,0.0310100918136373,,0.05,false,lh,3345,response,-1.0164576835546473,1.0330119136874412,-1.0999999999999999,0.8120626538423016,1.1768014240819382,-1.15,low,high,,ISIC_0011177.JPG,,ISIC_6002694.JPG,33,26,false,0.3800000000000002,hl,keypress(j),0,true,627192,627191.5,623844.536,623913,623846.5,627115.9,1,40,12,
sequence,flow.Sequence,8_11,2024-03-05T20:19:51.648Z,,,,,,,,,,,3345,completion,,,,,,,low,high,,,,,,,false,,,,,true,627192.5,627191.5,623844.536,623912.9000005722,623846.5,627115.9,1,40,,
trial,html.Screen,8_12_0,2024-03-05T20:19:54.717Z,,,,2,-0.0069555338059566,0.0310100918136373,,0.05,false,hl,3145.299999809242,response,0.8579451262594331,1.0330119136874412,-1.15,-0.9633172970727744,1.1768014240819382,-1.15,high,low,,ISIC_0011177.JPG,,ISIC_0067172.JPG,33,25,false,0.27000000000000013,hh,keypress(i),0,true,630261.4000005722,630261.1999998093,627114.312,627192.6999998093,627115.9,630185,1,40,13,
sequence,flow.Sequence,8_12,2024-03-05T20:19:54.717Z,,,,,,,,,,,3145.299999809242,completion,,,,,,,high,low,,,,,,,false,,,,,true,630261.5,630261.1999998093,627114.312,627192.6000003815,627115.9,630185,1,40,,
trial,html.Screen,8_13_0,2024-03-05T20:19:57.440Z,,,,2,0.0409338693593207,-0.0072462710499874,,0.05,true,ll,2799.199999809265,response,-1.2249552940807693,1.0330119136874412,-1.15,-1.1723015116910682,1.1768014240819382,-1.15,low,low,,ISIC_3608788.JPG,,ISIC_0055251.JPG,33,27,false,0.1,ll,keypress(f),0,true,632984.6000003815,632984.1999998093,630168.8,630261.5,630185,632904,1,40,14,
sequence,flow.Sequence,8_13,2024-03-05T20:19:57.441Z,,,,,,,,,,,2799.199999809265,completion,,,,,,,low,low,,,,,,,false,,,,,true,632985.1000003815,632984.1999998093,630168.8,630261.5,630185,632904,1,40,,
trial,html.Screen,8_14_0,2024-03-05T20:20:02.551Z,,,,2,-0.0324770283903853,-0.0249968632204382,,0.05,true,ll,5191.400000572205,response,-1.188743606919222,1.0330119136874412,-1.15,-1.0980226451001782,1.1768014240819382,-1.15,low,low,,ISIC_7266462.JPG,,ISIC_0060481.JPG,33,27,false,0.1,ll,keypress(f),0,true,638095.9000005722,638095.4000005722,632887.4,632985.4000005722,632904,638026,1,40,15,
sequence,flow.Sequence,8_14,2024-03-05T20:20:02.552Z,,,,,,,,,,,5191.400000572205,completion,,,,,,,low,low,,,,,,,false,,,,,true,638096.3000001907,638095.4000005722,632887.4,632985.3000001907,632904,638026,1,40,,
trial,html.Screen,8_15_0,2024-03-05T20:20:07.328Z,,,,2,-0.0085520978188085,0.0464691161264081,,0.05,false,lh,4845.800000190735,response,-0.796241477082623,1.0330119136874412,-1.085162078395623,0.9017449335975743,1.1768014240819382,-1.085162078395623,low,high,,ISIC_0758797.JPG,,ISIC_8588033.JPG,33,28,false,0.3800000000000002,hl,keypress(j),0,true,642872.1999998093,642871.8000001907,638021.702,638096.6000003815,638026,642795.4,1,40,16,
sequence,flow.Sequence,8_15,2024-03-05T20:20:07.328Z,,,,,,,,,,,4845.800000190735,completion,,,,,,,low,high,,,,,,,false,,,,,true,642872.6999998093,642871.8000001907,638021.702,638096.4000005722,638026,642795.4,1,40,,
trial,html.Screen,8_16_0,2024-03-05T20:20:09.480Z,,,,2,0.0102460616775615,-0.0309670599545429,,0.05,true,ll,2228.5999999999767,response,-1.1254252603792554,1.0330119136874412,-1.135162078395623,-1.0263116781284176,1.1768014240819382,-1.085162078395623,low,low,,ISIC_0072041.JPG,,ISIC_0032420.JPG,33,32,false,0.1,ll,keypress(f),0,true,645024.4000005722,645024,642792.476,642873,642795.4,644947.3,1,40,17,
sequence,flow.Sequence,8_16,2024-03-05T20:20:09.481Z,,,,,,,,,,,2228.5999999999767,completion,,,,,,,low,low,,,,,,,false,,,,,true,645024.9000005722,645024,642792.476,642872.9000005722,642795.4,644947.3,1,40,,
trial,html.Screen,8_17_0,2024-03-05T20:20:15.575Z,,,,2,0.0362376068089956,0.047825070846155,,0.05,false,hl,6172.199999999953,response,1.2695509547992938,1.0330119136874412,-1.135162078395623,-0.9641099676945492,1.1768014240819382,-1.085162078395623,high,low,,ISIC_6985114.JPG,,ISIC_0025841.JPG,33,25,false,0.2400000000000001,lh,keypress(e),0,true,651119.9000005722,651119.5,644930.5,645025.1999998093,644947.3,651035.7,1,40,18,
sequence,flow.Sequence,8_17,2024-03-05T20:20:15.576Z,,,,,,,,,,,6172.199999999953,completion,,,,,,,high,low,,,,,,,false,,,,,true,651120.4000005722,651119.5,644930.5,645025.1000003815,644947.3,651035.7,1,40,,
trial,html.Screen,8_18_0,2024-03-05T20:20:20.560Z,,,,2,0.0134764727102299,0.0033499036460912,,0.05,false,hl,5068.400000381516,response,1.0026266089287914,1.0830119136874412,-1.135162078395623,-1.0913275913920335,1.1768014240819382,-1.135162078395623,high,low,,ISIC_0009998.JPG,,ISIC_0033520.JPG,33,25,false,0.28000000000000014,lh,keypress(e),0,true,656104.5,656104.1000003815,651031.43,651120.6999998093,651035.7,656023.1,1,40,19,
sequence,flow.Sequence,8_18,2024-03-05T20:20:20.561Z,,,,,,,,,,,5068.400000381516,completion,,,,,,,high,low,,,,,,,false,,,,,true,656105,656104.1000003815,651031.43,651120.6000003815,651035.7,656023.1,1,40,,
trial,html.Screen,8_19_0,2024-03-05T20:20:24.640Z,,,,2,-0.039728379742806,0.0228701131373768,,0.05,true,hl,4160.900000000023,response,0.8579451262594331,1.1330119136874413,-1.135162078395623,-0.9633172970727744,1.1768014240819382,-1.1851620783956232,high,low,,ISIC_0054073.JPG,,ISIC_0067172.JPG,33,25,false,0.3300000000000002,hl,keypress(j),0,true,660184.4000005722,660184,656019.708,656105.1999998093,656023.1,660109.7,1,40,20,
sequence,flow.Sequence,8_19,2024-03-05T20:20:24.641Z,,,,,,,,,,,4160.900000000023,completion,,,,,,,high,low,,,,,,,false,,,,,true,660184.9000005722,660184,656019.708,656105.1000003815,656023.1,660109.7,1,40,,
trial,html.Screen,8_20_0,2024-03-05T20:20:26.989Z,,,,2,-0.0116094682222121,0.0258434522530318,,0.05,false,lh,2423.8000000000466,response,-0.7723849213858904,1.1330119136874413,-1.135162078395623,0.888372424147899,1.1768014240819382,-1.1851620783956232,low,high,,ISIC_9239632.JPG,,ISIC_3884221.JPG,33,25,false,0.3800000000000002,ll,keypress(f),0,true,662533.6000003815,662533.5,660107.21,660185.1999998093,660109.7,662461.9,1,40,21,
sequence,flow.Sequence,8_20,2024-03-05T20:20:26.989Z,,,,,,,,,,,2423.8000000000466,completion,,,,,,,low,high,,,,,,,false,,,,,true,662533.6999998093,662533.5,660107.21,660185.1000003815,660109.7,662461.9,1,40,,
trial,html.Screen,8_21_0,2024-03-05T20:20:30.552Z,,,,2,-0.0057914759495055,-0.0074667911845194,,0.05,true,ll,3633.7000003814464,response,-0.8019171574297028,1.1330119136874413,-0.8178511092293324,-1.0925160607978373,1.1768014240819382,-1.1851620783956232,low,low,,ISIC_0058723.JPG,,ISIC_0010925.JPG,33,32,false,0.1,ll,keypress(f),0,true,666095.9000005722,666095.6000003815,662444.18,662533.6999998093,662461.9,666014.7,1,40,22,
sequence,flow.Sequence,8_21,2024-03-05T20:20:30.552Z,,,,,,,,,,,3633.7000003814464,completion,,,,,,,low,low,,,,,,,false,,,,,true,666096.5,666095.6000003815,662444.18,662533.6999998093,662461.9,666014.7,1,40,,
trial,html.Screen,8_22_0,2024-03-05T20:20:34.613Z,,,,2,-0.0085520978188085,0.0464691161264081,,0.05,false,ll,4143.100000190781,response,-0.8023139365538781,1.1330119136874413,-0.8178511092293324,-0.8089024151174812,1.1768014240819382,-0.89721660911377,low,low,,ISIC_0758797.JPG,,ISIC_3897960.JPG,33,53,false,0.1,hl,keypress(j),0,true,670157.9000005722,670157.8000001907,666012.664,666096.6999998093,666014.7,670084.8,1,40,23,
sequence,flow.Sequence,8_22,2024-03-05T20:20:34.614Z,,,,,,,,,,,4143.100000190781,completion,,,,,,,low,low,,,,,,,false,,,,,true,670158,670157.8000001907,666012.664,666096.6000003815,666014.7,670084.8,1,40,,
trial,html.Screen,8_23_0,2024-03-05T20:20:36.552Z,,,,2,-0.0329095507339554,0.0382899749693245,,0.05,true,ll,2011.0000001906883,response,-0.830715954875818,1.1330119136874413,-0.8678511092293324,-0.8162119374466767,1.1768014240819382,-0.89721660911377,low,low,,ISIC_8812781.JPG,,ISIC_0011894.JPG,33,46,false,0.1,ll,keypress(f),0,true,672096.3000001907,672095.8000001907,670068.2,670158.1000003815,670084.8,672019.9,1,40,24,
sequence,flow.Sequence,8_23,2024-03-05T20:20:36.552Z,,,,,,,,,,,2011.0000001906883,completion,,,,,,,low,low,,,,,,,false,,,,,true,672096.9000005722,672095.8000001907,670068.2,670158,670084.8,672019.9,1,40,,
trial,html.Screen,8_24_0,2024-03-05T20:20:38.559Z,,,,2,0,0.0264544974620926,,0.05,true,hh,2083.5000005721813,response,1.0959058628476686,1.1330119136874413,-0.8678511092293324,1.1684835186766898,1.1768014240819382,-0.7734639461612474,high,high,,ISIC_0056991.JPG,,ISIC_5920470.JPG,33,28,false,0.14,hh,keypress(i),0,true,674103.8000001907,674103.4000005722,672003.2,672097,672019.9,674021.2,1,40,25,
sequence,flow.Sequence,8_24,2024-03-05T20:20:38.560Z,,,,,,,,,,,2083.5000005721813,completion,,,,,,,high,high,,,,,,,false,,,,,true,674104.4000005722,674103.4000005722,672003.2,672097,672019.9,674021.2,1,40,,
trial,html.Screen,8_25_0,2024-03-05T20:20:40.407Z,,,,2,-0.0456515796420274,0.0273567130070961,,0.05,true,hh,1930.2000005722512,response,0.9840050049609405,1.0821946907621791,-0.8678511092293324,1.160746324899676,1.1768014240819382,-0.7734639461612474,high,high,,ISIC_0068610.JPG,,ISIC_8651053.JPG,33,28,false,0.13,hh,keypress(i),0,true,675951.8000001907,675951.4000005722,674020.66,674104.6000003815,674021.2,675872.7,1,40,26,
sequence,flow.Sequence,8_25,2024-03-05T20:20:40.408Z,,,,,,,,,,,1930.2000005722512,completion,,,,,,,high,high,,,,,,,false,,,,,true,675952.3000001907,675951.4000005722,674020.66,674104.5,674021.2,675872.7,1,40,,
trial,html.Screen,8_26_0,2024-03-05T20:20:43.456Z,,,,2,-0.0116094682222121,0.0258434522530318,,0.05,true,hh,3127.200000572251,response,1.008381128411934,1.0821946907621791,-0.8678511092293324,1.0088020117106191,1.0223756649303082,-0.7734639461612474,high,high,,ISIC_9239632.JPG,,ISIC_6546903.JPG,33,28,false,0.1,hh,keypress(i),0,true,679000.3000001907,678999.9000005722,675872.066,675952.5,675872.7,678925.4,1,40,27,
sequence,flow.Sequence,8_26,2024-03-05T20:20:43.456Z,,,,,,,,,,,3127.200000572251,completion,,,,,,,high,high,,,,,,,false,,,,,true,679000.9000005722,678999.9000005722,675872.066,675952.5,675872.7,678925.4,1,40,,
trial,html.Screen,8_27_0,2024-03-05T20:20:45.103Z,,,,2,0.0188047466661863,-0.0288346930436979,,0.05,true,hh,1721.5000005721813,response,0.9071602543711612,0.9585915700612764,-0.8678511092293324,1.073798502866343,1.0223756649303082,-0.7734639461612474,high,high,,ISIC_0014157.JPG,,ISIC_6676776.JPG,33,37,false,0.1,hh,keypress(i),0,true,680647.1000003815,680646.9000005722,678908.6,679001.1999998093,678925.4,680559.9,1,40,28,
sequence,flow.Sequence,8_27,2024-03-05T20:20:45.103Z,,,,,,,,,,,1721.5000005721813,completion,,,,,,,high,high,,,,,,,false,,,,,true,680647.4000005722,680646.9000005722,678908.6,679001.1000003815,678925.4,680559.9,1,40,,
trial,html.Screen,8_28_0,2024-03-05T20:20:47.335Z,,,,2,-0.0027483411352856,-0.0100996915276271,,0.05,false,lh,2319.4000001907116,response,-0.7468996036626098,0.9585915700612764,-0.8678511092293324,0.8073835700282378,0.9404793786187521,-0.7734639461612474,low,high,,ISIC_7364041.JPG,,ISIC_5335139.JPG,33,26,false,0.16000000000000003,ll,keypress(f),0,true,682879.6999998093,682879.3000001907,680559.608,680647.5,680559.9,682795.2,1,40,29,
sequence,flow.Sequence,8_28,2024-03-05T20:20:47.336Z,,,,,,,,,,,2319.4000001907116,completion,,,,,,,low,high,,,,,,,false,,,,,true,682880.1999998093,682879.3000001907,680559.608,680647.4000005722,680559.9,682795.2,1,40,,
trial,html.Screen,8_29_0,2024-03-05T20:20:52.248Z,,,,2,-0.0329095507339554,0.0382899749693245,,0.05,true,ll,4996.499999809312,response,-0.7575535538842866,0.9585915700612764,-0.8178511092293324,-0.7059460714049748,0.9904793786187521,-0.7734639461612474,low,low,,ISIC_8812781.JPG,,ISIC_0066506.JPG,33,64,false,0.1,ll,keypress(f),0,true,687792.1000003815,687791.6999998093,682794.084,682880.5,682795.2,687716.1,1,40,30,
sequence,flow.Sequence,8_29,2024-03-05T20:20:52.248Z,,,,,,,,,,,4996.499999809312,completion,,,,,,,low,low,,,,,,,false,,,,,true,687792.6999998093,687791.6999998093,682794.084,682880.4000005722,682795.2,687716.1,1,40,,
trial,html.Screen,8_30_0,2024-03-05T20:20:55.120Z,,,,2,-0.0324770283903853,-0.0249968632204382,,0.05,false,hl,2947.700000190758,response,0.8179805381029407,0.9585915700612764,-0.8178511092293324,-0.8578467162767749,0.9904793786187521,-0.7734639461612474,high,low,,ISIC_7266462.JPG,,ISIC_0067253.JPG,33,27,false,0.15000000000000002,ll,keypress(f),0,true,690664.1000003815,690663.8000001907,687699.2,687793,687716.1,690585.1,1,40,31,
sequence,flow.Sequence,8_30,2024-03-05T20:20:55.120Z,,,,,,,,,,,2947.700000190758,completion,,,,,,,high,low,,,,,,,false,,,,,true,690664.6000003815,690663.8000001907,687699.2,687793,687716.1,690585.1,1,40,,
trial,html.Screen,8_31_0,2024-03-05T20:21:00.911Z,,,,2,0.0409338693593207,-0.0072462710499874,,0.05,false,hh,5870.200000190758,response,0.9991910338212396,1.0085915700612764,-0.8178511092293324,0.9242629064104082,0.9904793786187521,-0.7318963938408748,high,high,,ISIC_3608788.JPG,,ISIC_7795549.JPG,33,36,false,0.1,hl,keypress(j),0,true,696455.6999998093,696455.3000001907,690568.4,690664.8000001907,690585.1,696372.9,1,40,32,
sequence,flow.Sequence,8_31,2024-03-05T20:21:00.912Z,,,,,,,,,,,5870.200000190758,completion,,,,,,,high,high,,,,,,,false,,,,,true,696456.1999998093,696455.3000001907,690568.4,690664.6999998093,690585.1,696372.9,1,40,,
trial,html.Screen,8_32_0,2024-03-05T20:21:03.471Z,,,,2,-0.0050679133050021,0.0009714874637896,,0.05,true,ll,2642.4000001907116,response,-0.7526062616361453,1.0085915700612764,-0.8178511092293324,-0.7278276920565994,1.040479378618752,-0.7318963938408748,low,low,,ISIC_9848743.JPG,,ISIC_0011276.JPG,33,69,false,0.1,ll,keypress(f),0,true,699015.6000003815,699015.3000001907,696368.842,696456.5,696372.9,698942,1,40,33,
sequence,flow.Sequence,8_32,2024-03-05T20:21:03.472Z,,,,,,,,,,,2642.4000001907116,completion,,,,,,,low,low,,,,,,,false,,,,,true,699016.1000003815,699015.3000001907,696368.842,696456.5,696372.9,698942,1,40,,
trial,html.Screen,8_33_0,2024-03-05T20:21:08.416Z,,,,2,0.0348234368746005,-0.0236866303880924,,0.05,true,hh,5018.10000038147,response,0.9962130178668478,1.0085915700612764,-0.6902169768463723,1.0198919808587756,1.040479378618752,-0.7318963938408748,high,high,,ISIC_0011099.JPG,,ISIC_0595080.JPG,33,30,false,0.1,hh,keypress(i),0,true,703960.4000005722,703960.1000003815,698925.2,699016.3000001907,698942,703879.1,1,40,34,
sequence,flow.Sequence,8_33,2024-03-05T20:21:08.417Z,,,,,,,,,,,5018.10000038147,completion,,,,,,,high,high,,,,,,,false,,,,,true,703961,703960.1000003815,698925.2,699016.1999998093,698942,703879.1,1,40,,
trial,html.Screen,8_34_0,2024-03-05T20:21:15.965Z,,,,2,0.013431314305098,-0.0140597582944232,,0.05,false,lh,7630.200000190758,response,-0.7118141631588264,0.9580524993628117,-0.6902169768463723,1.0369885917487718,1.040479378618752,-0.7318963938408748,low,high,,ISIC_0069617.JPG,,ISIC_6917681.JPG,33,25,false,0.17000000000000004,ll,keypress(f),0,true,711509.5,711509.3000001907,703875.876,703961.3000001907,703879.1,711435.3,1,40,35,
sequence,flow.Sequence,8_34,2024-03-05T20:21:15.965Z,,,,,,,,,,,7630.200000190758,completion,,,,,,,low,high,,,,,,,false,,,,,true,711509.6000003815,711509.3000001907,703875.876,703961.3000001907,703879.1,711435.3,1,40,,
trial,html.Screen,8_35_0,2024-03-05T20:21:17.701Z,,,,2,-0.0456515796420274,0.0273567130070961,,0.05,true,hh,1810.100000572158,response,1.0316392011945703,0.9580524993628117,-0.6902169768463723,1.1580619988377847,1.090479378618752,-0.7318963938408748,high,high,,ISIC_0068610.JPG,,ISIC_0054206.JPG,33,35,false,0.1,hh,keypress(i),0,true,713245.5,713245.4000005722,711418.5,711509.6999998093,711435.3,713169.9,1,40,36,
sequence,flow.Sequence,8_35,2024-03-05T20:21:17.701Z,,,,,,,,,,,1810.100000572158,completion,,,,,,,high,high,,,,,,,false,,,,,true,713245.6000003815,713245.4000005722,711418.5,711509.6999998093,711435.3,713169.9,1,40,,
trial,html.Screen,8_36_0,2024-03-05T20:21:23.696Z,,,,2,-0.0389988030702649,-0.0143212271490256,,0.05,false,hl,6069.900000190712,response,1.0656673213158945,0.9580524993628117,-0.6902169768463723,-0.8082541692781954,1.090479378618752,-0.7318963938408748,high,low,,ISIC_0064669.JPG,,ISIC_0033985.JPG,33,25,false,0.13,lh,keypress(e),0,true,719240.1000003815,719239.8000001907,713153.3,713245.6000003815,713169.9,719158.5,1,40,37,
sequence,flow.Sequence,8_36,2024-03-05T20:21:23.696Z,,,,,,,,,,,6069.900000190712,completion,,,,,,,high,low,,,,,,,false,,,,,true,719240.6000003815,719239.8000001907,713153.3,713245.6000003815,713169.9,719158.5,1,40,,
trial,html.Screen,8_37_0,2024-03-05T20:21:27.600Z,,,,2,-0.0324770283903853,-0.0249968632204382,,0.05,false,hl,3985.4000005722046,response,0.969947771489652,1.0080524993628117,-0.6902169768463723,-0.6651811306243314,1.090479378618752,-0.7818963938408748,high,low,,ISIC_7266462.JPG,,ISIC_7254389.JPG,33,25,false,0.15000000000000002,ll,keypress(f),0,true,723144.3000001907,723143.9000005722,719154,719240.8000001907,719158.5,723061.8,1,40,38,
sequence,flow.Sequence,8_37,2024-03-05T20:21:27.601Z,,,,,,,,,,,3985.4000005722046,completion,,,,,,,high,low,,,,,,,false,,,,,true,723145.1000003815,723143.9000005722,719154,719240.6999998093,719158.5,723061.8,1,40,,
trial,html.Screen,8_38_0,2024-03-05T20:21:29.453Z,,,,2,-0.0217698886732706,0.0410870915161425,,0.05,true,ll,1936.0000001906883,response,-0.702815065838286,1.0580524993628118,-0.6902169768463723,-0.8363670617045607,1.090479378618752,-0.7818963938408748,low,low,,ISIC_0072173.JPG,,ISIC_0056710.JPG,33,62,false,0.1,ll,keypress(f),0,true,724997.9000005722,724997.8000001907,723059.384,723145.4000005722,723061.8,724913.1,1,40,39,
sequence,flow.Sequence,8_38,2024-03-05T20:21:29.454Z,,,,,,,,,,,1936.0000001906883,completion,,,,,,,low,low,,,,,,,false,,,,,true,724998.1999998093,724997.8000001907,723059.384,723145.4000005722,723061.8,724913.1,1,40,,
trial,html.Screen,8_39_0,2024-03-05T20:21:33.136Z,,,,2,0,0.0264544974620926,,0.05,false,lh,3766.800000572228,response,-0.7197989269080959,1.0580524993628118,-0.700774096164446,0.9410141415297968,1.090479378618752,-0.700774096164446,low,high,,ISIC_0056991.JPG,,ISIC_2635051.JPG,33,25,false,0.18000000000000005,ll,keypress(f),0,true,728680.3000001907,728679.9000005722,724912.766,724998.1999998093,724913.1,728599.6,1,40,40,
sequence,flow.Sequence,8_39,2024-03-05T20:21:33.136Z,,,,,,,,,,,3766.800000572228,completion,,,,,,,low,high,,,,,,,false,,,,,true,728680.9000005722,728679.9000005722,724912.766,724998.1999998093,724913.1,728599.6,1,40,,
stair_loop,flow.Loop,8,2024-03-05T20:21:33.137Z,,,,,,,,,,,159511.80600057216,completion,,,,,,,,,,,,,,,false,,,,,true,728681.3000001907,728679.9000005722,569168.094,569245.6999998093,569168.094,728599.6,1,40,,
exp_instructions,html.Screen,9,2024-03-05T20:21:44.981Z,,,,,,,,,,,11925.800000572228,response,,,,,,,,,,,,,,,,,continue,keypress(Space),,,740525.6999998093,740525.4000005722,728597.626,728681.4000005722,728599.6,740442.7,,,,
trial,html.Screen,10_0_0,2024-03-05T20:21:50.798Z,,,,1,-0.0070725527271049,-0.0049995141077508,,0.05,true,ll,5899.800000000047,response,-0.8800173162815772,1.0343952468283686,-0.8045725673195145,-0.7770513300237836,1.079565620888864,-0.8117475122519482,low,low,,ISIC_6124481.JPG,9,ISIC_0030852.JPG,33,54,false,0.1,ll,keypress(f),0,false,746342.6999998093,746342.5,740441.462,740525.8000001907,740442.7,746264.5,5,600,1,
break,html.Screen,10_0_1,2024-03-05T20:21:50.799Z,,,,,,,,,,,NaN,,,,,,,,low,low,,,,,,,false,,,,,false,746343.1000003815,746343,,746342.8000001907,,746264.5,5,600,,
break_continue,html.Screen,10_0_2,2024-03-05T20:21:50.799Z,,,,,,,,,,,NaN,,,,,,,,low,low,,,,,,,false,,,,,false,746343.5,746343.4000005722,,746343.3000001907,,746264.5,5,600,,
sequence,flow.Sequence,10_0,2024-03-05T20:21:50.799Z,,,,,,,,,,,5900.700000572251,completion,,,,,,,low,low,,,,,,,false,,,,,false,746343.6000003815,746343.4000005722,740441.462,740525.8000001907,740442.7,746264.5,5,600,,
trial,html.Screen,10_1_0,2024-03-05T20:21:53.456Z,,,,1,0.0409338693593207,-0.0072462710499874,,0.05,true,ll,2735.1000003814697,response,-0.838482148534353,1.0343952468283686,-0.8045725673195145,-0.8179691667073062,1.079565620888864,-0.8117475122519482,low,low,,ISIC_3608788.JPG,10,ISIC_0055079.JPG,33,54,false,0.1,ll,keypress(f),0,false,749000.1000003815,748999.6000003815,746247.6,746343.6000003815,746264.5,748916.3,5,600,2,
break,html.Screen,10_1_1,2024-03-05T20:21:53.457Z,,,,,,,,,,,NaN,,,,,,,,low,low,,,,,,,false,,,,,false,749001.6000003815,749001.3000001907,,749000.6000003815,,748916.3,5,600,,
break_continue,html.Screen,10_1_2,2024-03-05T20:21:53.458Z,,,,,,,,,,,NaN,,,,,,,,low,low,,,,,,,false,,,,,false,749002.6000003815,749002.3000001907,,749002,,748916.3,5,600,,
sequence,flow.Sequence,10_1,2024-03-05T20:21:53.459Z,,,,,,,,,,,2737.800000190735,completion,,,,,,,low,low,,,,,,,false,,,,,false,749002.9000005722,749002.3000001907,746247.6,746343.6000003815,746264.5,748916.3,5,600,,
trial,html.Screen,10_2_0,2024-03-05T20:22:01.806Z,,,,1,-0.0456515796420274,0.0273567130070961,,0.05,false,hh,8434.100000572158,response,1.0565911491759823,1.0343952468283686,-0.8045725673195145,1.0221582682700174,1.079565620888864,-0.8117475122519482,high,high,,ISIC_0068610.JPG,9,ISIC_6604862.JPG,33,32,false,0.1,hl,keypress(j),0,false,757350.6000003815,757350.4000005722,748915.034,749003.1000003815,748916.3,757273.3,5,600,3,
break,html.Screen,10_2_1,2024-03-05T20:22:01.807Z,,,,,,,,,,,NaN,,,,,,,,high,high,,,,,,,false,,,,,false,757350.9000005722,757350.9000005722,,757350.6999998093,,757273.3,5,600,,
break_continue,html.Screen,10_2_2,2024-03-05T20:22:01.807Z,,,,,,,,,,,NaN,,,,,,,,high,high,,,,,,,false,,,,,false,757351.1999998093,757351.1000003815,,757351,,757273.3,5,600,,
sequence,flow.Sequence,10_2,2024-03-05T20:22:01.807Z,,,,,,,,,,,8434.800000381423,completion,,,,,,,high,high,,,,,,,false,,,,,false,757351.3000001907,757351.1000003815,748915.034,749003.1000003815,748916.3,757273.3,5,600,,
trial,html.Screen,10_3_0,2024-03-05T20:22:07.006Z,,,,1,-0.0027483411352856,-0.0100996915276271,,0.05,false,ll,5276.399999809219,response,-0.7112620697206866,1.0343952468283686,-0.8045725673195145,-0.8642861042532918,1.079565620888864,-0.8117475122519482,low,low,,ISIC_7364041.JPG,9,ISIC_0011315.JPG,33,54,false,0.1,hl,keypress(j),0,false,762549.9000005722,762549.6999998093,757256.8,757351.3000001907,757273.3,762477.5,5,600,4,
break,html.Screen,10_3_1,2024-03-05T20:22:07.006Z,,,,,,,,,,,NaN,,,,,,,,low,low,,,,,,,false,,,,,false,762550.6999998093,762550.5,,762550.1999998093,,762477.5,5,600,,
break_continue,html.Screen,10_3_2,2024-03-05T20:22:07.007Z,,,,,,,,,,,NaN,,,,,,,,low,low,,,,,,,false,,,,,false,762551.1000003815,762550.9000005722,,762550.8000001907,,762477.5,5,600,,
sequence,flow.Sequence,10_3,2024-03-05T20:22:07.007Z,,,,,,,,,,,5277.600000572158,completion,,,,,,,low,low,,,,,,,false,,,,,false,762551.3000001907,762550.9000005722,757256.8,757351.3000001907,757273.3,762477.5,5,600,,
trial,html.Screen,10_4_0,2024-03-05T20:22:10.608Z,,,,1,0.0409338693593207,-0.0072462710499874,,0.05,true,ll,3674.199999809265,response,-0.8068224817535752,1.0343952468283686,-0.8045725673195145,-0.8996141262602615,1.079565620888864,-0.8117475122519482,low,low,,ISIC_3608788.JPG,8,ISIC_0059601.JPG,33,54,false,0.1,ll,keypress(f),0,false,766152.1999998093,766151.6999998093,762458.024,762551.3000001907,762477.5,766080.9,5,600,5,
break,html.Screen,10_4_1,2024-03-05T20:22:10.609Z,,,,,,,,,,,NaN,,,,,,,,low,low,,,,,,,false,,,,,false,766153.6000003815,766153.1999998093,,766152.5,,766080.9,5,600,,
break_continue,html.Screen,10_4_2,2024-03-05T20:22:10.610Z,,,,,,,,,,,NaN,,,,,,,,low,low,,,,,,,false,,,,,false,766154.5,766154.1000003815,,766153.8000001907,,766080.9,5,600,,
sequence,flow.Sequence,10_4,2024-03-05T20:22:10.610Z,,,,,,,,,,,3676.6000003814697,completion,,,,,,,low,low,,,,,,,false,,,,,false,766154.6999998093,766154.1000003815,762458.024,762551.3000001907,762477.5,766080.9,5,600,,
trial,html.Screen,10_5_0,2024-03-05T20:22:12.288Z,,,,1,-0.0456515796420274,0.0273567130070961,,0.05,true,hh,1750.5999999999767,response,1.09666761087476,1.0343952468283686,-0.8045725673195145,1.1072126870290426,1.079565620888864,-0.8117475122519482,high,high,,ISIC_0068610.JPG,10,ISIC_0071754.JPG,33,32,false,0.1,hh,keypress(i),0,false,767831.9000005722,767831.5,766061.696,766155.1000003815,766080.9,767748.5,5,600,6,
break,html.Screen,10_5_1,2024-03-05T20:22:12.288Z,,,,,,,,,,,NaN,,,,,,,,high,high,,,,,,,false,,,,,false,767832.8000001907,767832.6000003815,,767832.1999998093,,767748.5,5,600,,
break_continue,html.Screen,10_5_2,2024-03-05T20:22:12.289Z,,,,,,,,,,,NaN,,,,,,,,high,high,,,,,,,false,,,,,false,767833.4000005722,767833.3000001907,,767833.1000003815,,767748.5,5,600,,
sequence,flow.Sequence,10_5,2024-03-05T20:22:12.289Z,,,,,,,,,,,1752.4000001907116,completion,,,,,,,high,high,,,,,,,false,,,,,false,767833.5,767833.3000001907,766061.696,766154.9000005722,766080.9,767748.5,5,600,,
trial,html.Screen,10_6_0,2024-03-05T20:22:16.856Z,,,,1,-0.0027483411352856,-0.0100996915276271,,0.05,true,ll,4651.10000038147,response,-0.830715954875818,1.0343952468283686,-0.8045725673195145,-0.8162119374466767,1.079565620888864,-0.8117475122519482,low,low,,ISIC_7364041.JPG,8,ISIC_0011894.JPG,33,54,false,0.1,ll,keypress(f),0,false,772399.9000005722,772399.6000003815,767748.38,767833.6000003815,767748.5,772319,5,600,7,
break,html.Screen,10_6_1,2024-03-05T20:22:16.857Z,,,,,,,,,,,NaN,,,,,,,,low,low,,,,,,,false,,,,,false,772401.4000005722,772400.9000005722,,772400.4000005722,,772319,5,600,,
break_continue,html.Screen,10_6_2,2024-03-05T20:22:16.858Z,,,,,,,,,,,NaN,,,,,,,,low,low,,,,,,,false,,,,,false,772402.1000003815,772401.9000005722,,772401.5,,772319,5,600,,
sequence,flow.Sequence,10_6,2024-03-05T20:22:16.858Z,,,,,,,,,,,4653.400000572205,completion,,,,,,,low,low,,,,,,,false,,,,,false,772402.4000005722,772401.9000005722,767748.38,767833.6000003815,767748.5,772319,5,600,,
trial,html.Screen,10_7_0,2024-03-05T20:22:19.248Z,,,,1,0.0097091270150747,-0.0417921315885292,,0.05,false,lh,2472.800000190735,response,-0.8947611078712571,1.0343952468283686,-0.8045725673195145,0.8960964505004638,1.079565620888864,-0.8117475122519482,low,high,,ISIC_3967213.JPG,9,ISIC_6441128.JPG,33,27,false,0.20000000000000007,hh,keypress(i),0,false,774792.1999998093,774791.8000001907,772318.896,772402.6999998093,772319,774721.6,5,600,8,
break,html.Screen,10_7_1,2024-03-05T20:22:19.249Z,,,,,,,,,,,NaN,,,,,,,,low,high,,,,,,,false,,,,,false,774793.6000003815,774793.3000001907,,774792.6000003815,,774721.6,5,600,,
break_continue,html.Screen,10_7_2,2024-03-05T20:22:19.250Z,,,,,,,,,,,NaN,,,,,,,,low,high,,,,,,,false,,,,,false,774794.5,774794.1000003815,,774793.8000001907,,774721.6,5,600,,
sequence,flow.Sequence,10_7,2024-03-05T20:22:19.250Z,,,,,,,,,,,2475.1000003814697,completion,,,,,,,low,high,,,,,,,false,,,,,false,774794.6999998093,774794.1000003815,772318.896,772402.6000003815,772319,774721.6,5,600,,
trial,html.Screen,10_8_0,2024-03-05T20:22:21.287Z,,,,1,-0.0069555338059566,0.0310100918136373,,0.05,true,hh,2109.700000190758,response,1.0769490291795207,1.0343952468283686,-0.8045725673195145,1.0174515954885954,1.079565620888864,-0.8117475122519482,high,high,,ISIC_0011177.JPG,10,ISIC_0028135.JPG,33,32,false,0.1,hh,keypress(i),0,false,776831.8000001907,776831.3000001907,774703.178,774795,774721.6,776755.9,5,600,9,
break,html.Screen,10_8_1,2024-03-05T20:22:21.288Z,,,,,,,,,,,NaN,,,,,,,,high,high,,,,,,,false,,,,,false,776832.3000001907,776832.1999998093,,776832,,776755.9,5,600,,
break_continue,html.Screen,10_8_2,2024-03-05T20:22:21.288Z,,,,,,,,,,,NaN,,,,,,,,high,high,,,,,,,false,,,,,false,776832.5,776832.5,,776832.3000001907,,776755.9,5,600,,
sequence,flow.Sequence,10_8,2024-03-05T20:22:21.288Z,,,,,,,,,,,2110.9000000000233,completion,,,,,,,high,high,,,,,,,false,,,,,false,776832.5,776832.5,774703.178,774794.9000005722,774721.6,776755.9,5,600,,
trial,html.Screen,10_9_0,2024-03-05T20:22:24.272Z,,,,1,0.0362376068089956,0.047825070846155,,0.05,true,ll,3060.0999999999767,response,-0.728025646114591,1.0343952468283686,-0.8045725673195145,-0.8706009868766001,1.079565620888864,-0.8117475122519482,low,low,,ISIC_6985114.JPG,9,ISIC_6452498.JPG,33,54,false,0.1,ll,keypress(f),0,false,779816.5,779816,776739.5,776832.6000003815,776755.9,779742,5,600,10,
break,html.Screen,10_9_1,2024-03-05T20:22:24.273Z,,,,,,,,,,,NaN,,,,,,,,low,low,,,,,,,false,,,,,false,779817.8000001907,779817.5,,779816.9000005722,,779742,5,600,,
break_continue,html.Screen,10_9_2,2024-03-05T20:22:24.274Z,,,,,,,,,,,NaN,,,,,,,,low,low,,,,,,,false,,,,,false,779818.6999998093,779818.5,,779818.1000003815,,779742,5,600,,
sequence,flow.Sequence,10_9,2024-03-05T20:22:24.275Z,,,,,,,,,,,3062.5999999999767,completion,,,,,,,low,low,,,,,,,false,,,,,false,779819,779818.5,776739.5,776832.6000003815,776755.9,779742,5,600,,
trial,html.Screen,10_10_0,2024-03-05T20:22:27.398Z,,,,1,-0.0389988030702649,-0.0143212271490256,,0.05,true,ll,3200.1000003814697,response,-0.7074495439272471,1.0343952468283686,-0.8045725673195145,-0.7908195179596742,1.079565620888864,-0.8117475122519482,low,low,,ISIC_0064669.JPG,8,ISIC_0033843.JPG,33,54,false,0.1,ll,keypress(f),0,false,782942.3000001907,782942.1000003815,779725.3,779819.1999998093,779742,782861,5,600,11,
break,html.Screen,10_10_1,2024-03-05T20:22:27.398Z,,,,,,,,,,,NaN,,,,,,,,low,low,,,,,,,false,,,,,false,782942.8000001907,782942.6999998093,,782942.5,,782861,5,600,,
break_continue,html.Screen,10_10_2,2024-03-05T20:22:27.399Z,,,,,,,,,,,NaN,,,,,,,,low,low,,,,,,,false,,,,,false,782943.1000003815,782943,,782943,,782861,5,600,,
sequence,flow.Sequence,10_10,2024-03-05T20:22:27.399Z,,,,,,,,,,,3201,completion,,,,,,,low,low,,,,,,,false,,,,,false,782943.1999998093,782943,779725.3,779819.1999998093,779742,782861,5,600,,
trial,html.Screen,10_11_0,2024-03-05T20:22:35.613Z,,,,1,-0.0456515796420274,0.0273567130070961,,0.05,false,lh,8296.10000038147,response,-0.991146183030456,1.0343952468283686,-0.8045725673195145,0.9949639823722534,1.079565620888864,-0.8117475122519482,low,high,,ISIC_0068610.JPG,9,ISIC_6342224.JPG,33,27,false,0.20000000000000007,hl,keypress(j),0,false,791157.1999998093,791157.1000003815,782860.744,782943.3000001907,782861,791084.2,5,600,12,
break,html.Screen,10_11_1,2024-03-05T20:22:35.613Z,,,,,,,,,,,NaN,,,,,,,,low,high,,,,,,,false,,,,,false,791157.5,791157.4000005722,,791157.3000001907,,791084.2,5,600,,
break_continue,html.Screen,10_11_2,2024-03-05T20:22:35.613Z,,,,,,,,,,,NaN,,,,,,,,low,high,,,,,,,false,,,,,false,791157.6000003815,791157.5,,791157.5,,791084.2,5,600,,
sequence,flow.Sequence,10_11,2024-03-05T20:22:35.613Z,,,,,,,,,,,8296.5,completion,,,,,,,low,high,,,,,,,false,,,,,false,791157.6000003815,791157.5,782860.744,782943.1999998093,782861,791084.2,5,600,,
trial,html.Screen,10_12_0,2024-03-05T20:22:40.062Z,,,,1,0,0.0264544974620926,,0.05,false,lh,4521.600000190781,response,-0.7833710010171356,1.0343952468283686,-0.8045725673195145,0.9315588090336896,1.079565620888864,-0.8117475122519482,low,high,,ISIC_0056991.JPG,10,ISIC_3826102.JPG,33,27,false,0.20000000000000007,hl,keypress(j),0,false,795605.9000005722,795605.8000001907,791067.6,791157.6000003815,791084.2,795521.3,5,600,13,
break,html.Screen,10_12_1,2024-03-05T20:22:40.062Z,,,,,,,,,,,NaN,,,,,,,,low,high,,,,,,,false,,,,,false,795606.1999998093,795606.1000003815,,795606,,795521.3,5,600,,
break_continue,html.Screen,10_12_2,2024-03-05T20:22:40.062Z,,,,,,,,,,,NaN,,,,,,,,low,high,,,,,,,false,,,,,false,795606.1999998093,795606.1999998093,,795606.1999998093,,795521.3,5,600,,
sequence,flow.Sequence,10_12,2024-03-05T20:22:40.062Z,,,,,,,,,,,4521.999999809312,completion,,,,,,,low,high,,,,,,,false,,,,,false,795606.3000001907,795606.1999998093,791067.6,791157.6000003815,791084.2,795521.3,5,600,,
trial,html.Screen,10_13_0,2024-03-05T20:22:44.999Z,,,,1,0.0113873532168551,0.0054999201556291,,0.05,true,hl,5022.000000190688,response,1.10953285327247,1.0343952468283686,-0.8045725673195145,-0.7377773112414787,1.079565620888864,-0.8117475122519482,high,low,,ISIC_8812621.JPG,8,ISIC_1720840.JPG,33,26,false,0.17000000000000004,hl,keypress(j),0,false,800543.6999998093,800543.3000001907,795518.96,795606.3000001907,795521.3,800458.8,5,600,14,
break,html.Screen,10_13_1,2024-03-05T20:22:45.001Z,,,,,,,,,,,NaN,,,,,,,,high,low,,,,,,,false,,,,,false,800545.1000003815,800544.8000001907,,800544.1999998093,,800458.8,5,600,,
break_continue,html.Screen,10_13_2,2024-03-05T20:22:45.001Z,,,,,,,,,,,NaN,,,,,,,,high,low,,,,,,,false,,,,,false,800545.1999998093,800545.1999998093,,800545.1000003815,,800458.8,5,600,,
sequence,flow.Sequence,10_13,2024-03-05T20:22:45.001Z,,,,,,,,,,,5023.899999809219,completion,,,,,,,high,low,,,,,,,false,,,,,false,800545.3000001907,800545.1999998093,795518.96,795606.3000001907,795521.3,800458.8,5,600,,
trial,html.Screen,10_14_0,2024-03-05T20:22:51.910Z,,,,1,0,0.0264544974620926,,0.05,false,lh,6995.899999809219,response,-0.6714344890480403,1.0343952468283686,-0.8045725673195145,0.9362962536620838,1.079565620888864,-0.8117475122519482,low,high,,ISIC_0056991.JPG,9,ISIC_3691320.JPG,33,27,false,0.20000000000000007,hl,keypress(j),0,false,807454.9000005722,807454.6999998093,800455.576,800545.3000001907,800458.8,807381.1,5,600,15,
break,html.Screen,10_14_1,2024-03-05T20:22:51.911Z,,,,,,,,,,,NaN,,,,,,,,low,high,,,,,,,false,,,,,false,807455.6000003815,807455.5,,807455.1000003815,,807381.1,5,600,,
break_continue,html.Screen,10_14_2,2024-03-05T20:22:51.911Z,,,,,,,,,,,NaN,,,,,,,,low,high,,,,,,,false,,,,,false,807456,807455.9000005722,,807455.6999998093,,807381.1,5,600,,
sequence,flow.Sequence,10_14,2024-03-05T20:22:51.912Z,,,,,,,,,,,6997.100000572158,completion,,,,,,,low,high,,,,,,,false,,,,,false,807456.1000003815,807455.9000005722,800455.576,800545.3000001907,800458.8,807381.1,5,600,,
trial,html.Screen,10_15_0,2024-03-05T20:22:54.544Z,,,,1,-0.0107854985447517,-0.0478010417136109,,0.05,false,lh,2706.9000000000233,response,-0.6132586392346531,1.0343952468283686,-0.8045725673195145,0.9190152836889912,1.079565620888864,-0.8117475122519482,low,high,,ISIC_0010500.JPG,10,ISIC_5833422.JPG,33,27,false,0.20000000000000007,hl,keypress(j),0,false,810088.4000005722,810088,807364.8,807456.3000001907,807381.1,810017,5,600,16,
break,html.Screen,10_15_1,2024-03-05T20:22:54.545Z,,,,,,,,,,,NaN,,,,,,,,low,high,,,,,,,false,,,,,false,810089.8000001907,810089.5,,810088.9000005722,,810017,5,600,,
break_continue,html.Screen,10_15_2,2024-03-05T20:22:54.546Z,,,,,,,,,,,NaN,,,,,,,,low,high,,,,,,,false,,,,,false,810090.6000003815,810090.4000005722,,810090.1000003815,,810017,5,600,,
sequence,flow.Sequence,10_15,2024-03-05T20:22:54.546Z,,,,,,,,,,,2709.300000572228,completion,,,,,,,low,high,,,,,,,false,,,,,false,810090.9000005722,810090.4000005722,807364.8,807456.1999998093,807381.1,810017,5,600,,
trial,html.Screen,10_16_0,2024-03-05T20:22:56.865Z,,,,1,-0.0069555338059566,0.0310100918136373,,0.05,true,ll,2391.300000190735,response,-0.7597421372185947,1.0343952468283686,-0.8045725673195145,-0.8314283330495001,1.079565620888864,-0.8117475122519482,low,low,,ISIC_0011177.JPG,9,ISIC_0009894.JPG,33,54,false,0.1,ll,keypress(f),0,false,812409.5,812408.3000001907,809998.802,810091.1999998093,810017,812335.3,5,600,17,
break,html.Screen,10_16_1,2024-03-05T20:22:56.868Z,,,,,,,,,,,NaN,,,,,,,,low,low,,,,,,,false,,,,,false,812413,812412.6999998093,,812411.8000001907,,812335.3,5,600,,
break_continue,html.Screen,10_16_2,2024-03-05T20:22:56.869Z,,,,,,,,,,,NaN,,,,,,,,low,low,,,,,,,false,,,,,false,812413.1999998093,812413.1000003815,,812413,,812335.3,5,600,,
sequence,flow.Sequence,10_16,2024-03-05T20:22:56.869Z,,,,,,,,,,,2396.1000003814697,completion,,,,,,,low,low,,,,,,,false,,,,,false,812413.3000001907,812413.1000003815,809998.802,810091.1000003815,810017,812335.3,5,600,,
trial,html.Screen,10_17_0,2024-03-05T20:22:59.415Z,,,,1,-0.0217698886732706,0.0410870915161425,,0.05,false,hl,2624.300000381423,response,0.8779019908870269,1.0343952468283686,-0.8045725673195145,-0.6618560427590258,1.079565620888864,-0.8117475122519482,high,low,,ISIC_0072173.JPG,8,ISIC_0012025.JPG,33,26,false,0.17000000000000004,ll,keypress(f),0,false,814959.9000005722,814959.6000003815,812318.9,812413.3000001907,812335.3,814887.7,5,600,18,
break,html.Screen,10_17_1,2024-03-05T20:22:59.417Z,,,,,,,,,,,NaN,,,,,,,,high,low,,,,,,,false,,,,,false,814961.3000001907,814960.8000001907,,814960.3000001907,,814887.7,5,600,,
break_continue,html.Screen,10_17_2,2024-03-05T20:22:59.418Z,,,,,,,,,,,NaN,,,,,,,,high,low,,,,,,,false,,,,,false,814962,814961.8000001907,,814961.5,,814887.7,5,600,,
sequence,flow.Sequence,10_17,2024-03-05T20:22:59.418Z,,,,,,,,,,,2626.5000001906883,completion,,,,,,,high,low,,,,,,,false,,,,,false,814962.4000005722,814961.8000001907,812318.9,812413.3000001907,812335.3,814887.7,5,600,,
trial,html.Screen,10_18_0,2024-03-05T20:23:07.381Z,,,,1,-0.0107854985447517,-0.0478010417136109,,0.05,false,ll,8037.499999809312,response,-0.7303551628669714,1.0343952468283686,-0.8045725673195145,-0.8663139955905144,1.079565620888864,-0.8117475122519482,low,low,,ISIC_0010500.JPG,9,ISIC_0010040.JPG,33,54,false,0.1,hl,keypress(j),0,false,822925.1999998093,822925.1999998093,814870.8,814962.6000003815,814887.7,822843.8,5,600,19,
break,html.Screen,10_18_1,2024-03-05T20:23:07.381Z,,,,,,,,,,,NaN,,,,,,,,low,low,,,,,,,false,,,,,false,822925.5,822925.4000005722,,822925.3000001907,,822843.8,5,600,,
break_continue,html.Screen,10_18_2,2024-03-05T20:23:07.381Z,,,,,,,,,,,NaN,,,,,,,,low,low,,,,,,,false,,,,,false,822925.5,822925.5,,822925.5,,822843.8,5,600,,
sequence,flow.Sequence,10_18,2024-03-05T20:23:07.381Z,,,,,,,,,,,8037.800000000047,completion,,,,,,,low,low,,,,,,,false,,,,,false,822925.6000003815,822925.5,814870.8,814962.5,814887.7,822843.8,5,600,,
trial,html.Screen,10_19_0,2024-03-05T20:23:10.327Z,,,,1,-0.007397293189458,-0.0174716772037504,,0.05,false,lh,3027.5000001906883,response,-0.8655167308525522,1.0343952468283686,-0.8045725673195145,0.9298580423306444,1.079565620888864,-0.8117475122519482,low,high,,ISIC_0056226.JPG,9,ISIC_4603706.JPG,33,27,false,0.20000000000000007,hh,keypress(i),0,false,825871.6999998093,825871.3000001907,822827.3,822925.6999998093,822843.8,825796.4,5,600,20,
break,html.Screen,10_19_1,2024-03-05T20:23:10.328Z,,,,,,,,,,,NaN,,,,,,,,low,high,,,,,,,false,,,,,false,825872.8000001907,825872.5,,825872.1000003815,,825796.4,5,600,,
break_continue,html.Screen,10_19_2,2024-03-05T20:23:10.329Z,,,,,,,,,,,NaN,,,,,,,,low,high,,,,,,,false,,,,,false,825873.5,825873.1999998093,,825873,,825796.4,5,600,,
sequence,flow.Sequence,10_19,2024-03-05T20:23:10.329Z,,,,,,,,,,,3029.3999998092186,completion,,,,,,,low,high,,,,,,,false,,,,,false,825873.6999998093,825873.1999998093,822827.3,822925.6999998093,822843.8,825796.4,5,600,,
trial,html.Screen,10_20_0,2024-03-05T20:23:15.718Z,,,,1,0.000047919190197942736,0.0462652940855003,,0.05,true,ll,5466.000000572181,response,-0.728025646114591,1.0343952468283686,-0.8045725673195145,-0.8706009868766001,1.079565620888864,-0.8117475122519482,low,low,,ISIC_0011507.JPG,9,ISIC_6452498.JPG,33,54,false,0.1,ll,keypress(f),0,false,831262.6999998093,831262.4000005722,825779.6,825873.9000005722,825796.4,831184.2,5,600,21,
break,html.Screen,10_20_1,2024-03-05T20:23:15.719Z,,,,,,,,,,,NaN,,,,,,,,low,low,,,,,,,false,,,,,false,831263.6000003815,831263.3000001907,,831262.9000005722,,831184.2,5,600,,
break_continue,html.Screen,10_20_2,2024-03-05T20:23:15.720Z,,,,,,,,,,,NaN,,,,,,,,low,low,,,,,,,false,,,,,false,831264.1000003815,831263.9000005722,,831263.6999998093,,831184.2,5,600,,
sequence,flow.Sequence,10_20,2024-03-05T20:23:15.720Z,,,,,,,,,,,5467.500000572181,completion,,,,,,,low,low,,,,,,,false,,,,,false,831264.1999998093,831263.9000005722,825779.6,825873.8000001907,825796.4,831184.2,5,600,,
trial,html.Screen,10_21_0,2024-03-05T20:23:19.997Z,,,,1,-0.0324770283903853,-0.0249968632204382,,0.05,true,ll,4357.300000000047,response,-0.7188988684304753,1.0343952468283686,-0.8045725673195145,-0.798262046903754,1.079565620888864,-0.8117475122519482,low,low,,ISIC_7266462.JPG,10,ISIC_0068407.JPG,33,54,false,0.1,ll,keypress(f),0,false,835541.6000003815,835541.5,831167.6,831264.4000005722,831184.2,835454.3,5,600,22,
break,html.Screen,10_21_1,2024-03-05T20:23:19.997Z,,,,,,,,,,,NaN,,,,,,,,low,low,,,,,,,false,,,,,false,835541.9000005722,835541.8000001907,,835541.6999998093,,835454.3,5,600,,
break_continue,html.Screen,10_21_2,2024-03-05T20:23:19.997Z,,,,,,,,,,,NaN,,,,,,,,low,low,,,,,,,false,,,,,false,835541.9000005722,835541.9000005722,,835541.9000005722,,835454.3,5,600,,
sequence,flow.Sequence,10_21,2024-03-05T20:23:19.997Z,,,,,,,,,,,4357.700000572251,completion,,,,,,,low,low,,,,,,,false,,,,,false,835541.9000005722,835541.9000005722,831167.6,831264.3000001907,831184.2,835454.3,5,600,,
trial,html.Screen,10_22_0,2024-03-05T20:23:23.549Z,,,,1,0.0159061451859594,0.0296598845560212,,0.05,true,hl,3638.8999998092186,response,0.869932994914832,1.0343952468283686,-0.8045725673195145,-0.8880533324432531,1.079565620888864,-0.8117475122519482,high,low,,ISIC_0072564.JPG,9,ISIC_8617084.JPG,33,26,false,0.17000000000000004,hl,keypress(j),0,false,839093.4000005722,839093.1999998093,835452.028,835542,835454.3,839007.2,5,600,23,
break,html.Screen,10_22_1,2024-03-05T20:23:23.549Z,,,,,,,,,,,NaN,,,,,,,,high,low,,,,,,,false,,,,,false,839093.8000001907,839093.6999998093,,839093.5,,839007.2,5,600,,
break_continue,html.Screen,10_22_2,2024-03-05T20:23:23.549Z,,,,,,,,,,,NaN,,,,,,,,high,low,,,,,,,false,,,,,false,839094,839093.9000005722,,839093.8000001907,,839007.2,5,600,,
sequence,flow.Sequence,10_22,2024-03-05T20:23:23.550Z,,,,,,,,,,,3639.600000572158,completion,,,,,,,high,low,,,,,,,false,,,,,false,839094.1000003815,839093.9000005722,835452.028,835542,835454.3,839007.2,5,600,,
trial,html.Screen,10_23_0,2024-03-05T20:23:26.013Z,,,,1,-0.0217698886732706,0.0410870915161425,,0.05,false,hl,2550.3000000000466,response,1.0396927560986136,1.0343952468283686,-0.8045725673195145,-0.6700895381759688,1.079565620888864,-0.8117475122519482,high,low,,ISIC_0072173.JPG,9,ISIC_0066149.JPG,33,26,false,0.17000000000000004,hh,keypress(i),0,false,841557.6000003815,841557.5,839005.088,839094.1999998093,839007.2,841475.8,5,600,24,
break,html.Screen,10_23_1,2024-03-05T20:23:26.013Z,,,,,,,,,,,NaN,,,,,,,,high,low,,,,,,,false,,,,,false,841557.9000005722,841557.8000001907,,841557.8000001907,,841475.8,5,600,,
break_continue,html.Screen,10_23_2,2024-03-05T20:23:26.014Z,,,,,,,,,,,NaN,,,,,,,,high,low,,,,,,,false,,,,,false,841558.4000005722,841558.1999998093,,841558.1000003815,,841475.8,5,600,,
sequence,flow.Sequence,10_23,2024-03-05T20:23:26.014Z,,,,,,,,,,,2550.9999998093117,completion,,,,,,,high,low,,,,,,,false,,,,,false,841558.6000003815,841558.1999998093,839005.088,839094.1999998093,839007.2,841475.8,5,600,,
trial,html.Screen,10_24_0,2024-03-05T20:23:28.087Z,,,,1,0.0245376145053177,-0.0436993426328401,,0.05,true,hh,2155.5000001906883,response,0.9525123994269484,1.0343952468283686,-0.8045725673195145,1.0779941204178511,1.079565620888864,-0.8117475122519482,high,high,,ISIC_0056444.JPG,8,ISIC_0009642.JPG,33,32,false,0.1,hh,keypress(i),0,false,843631.6000003815,843631.3000001907,841459.2,841558.6999998093,841475.8,843544.4,5,600,25,
break,html.Screen,10_24_1,2024-03-05T20:23:28.088Z,,,,,,,,,,,NaN,,,,,,,,high,high,,,,,,,false,,,,,false,843632.6999998093,843632.4000005722,,843632,,843544.4,5,600,,
break_continue,html.Screen,10_24_2,2024-03-05T20:23:28.089Z,,,,,,,,,,,NaN,,,,,,,,high,high,,,,,,,false,,,,,false,843633.1999998093,843633.1000003815,,843632.8000001907,,843544.4,5,600,,
sequence,flow.Sequence,10_24,2024-03-05T20:23:28.089Z,,,,,,,,,,,2157.300000381423,completion,,,,,,,high,high,,,,,,,false,,,,,false,843633.4000005722,843633.1000003815,841459.2,841558.6999998093,841475.8,843544.4,5,600,,
trial,html.Screen,10_25_0,2024-03-05T20:23:29.808Z,,,,1,0.0277178575053843,-0.0395587463147856,,0.05,false,hl,1807.5999999999767,response,0.8701680819250541,1.0343952468283686,-0.8045725673195145,-0.701391706020652,1.079565620888864,-0.8117475122519482,high,low,,ISIC_0010807.JPG,9,ISIC_5736979.JPG,33,26,false,0.17000000000000004,hh,keypress(i),0,false,845352.4000005722,845352,843543.324,843633.6000003815,843544.4,845279.4,5,600,26,
break,html.Screen,10_25_1,2024-03-05T20:23:29.809Z,,,,,,,,,,,NaN,,,,,,,,high,low,,,,,,,false,,,,,false,845353.6000003815,845353.1999998093,,845352.6999998093,,845279.4,5,600,,
break_continue,html.Screen,10_25_2,2024-03-05T20:23:29.810Z,,,,,,,,,,,NaN,,,,,,,,high,low,,,,,,,false,,,,,false,845354.4000005722,845354.1000003815,,845353.8000001907,,845279.4,5,600,,
sequence,flow.Sequence,10_25,2024-03-05T20:23:29.810Z,,,,,,,,,,,1809.7000003814464,completion,,,,,,,high,low,,,,,,,false,,,,,false,845354.6000003815,845354.1000003815,843543.324,843633.6000003815,843544.4,845279.4,5,600,,
trial,html.Screen,10_26_0,2024-03-05T20:23:31.440Z,,,,1,-0.0389988030702649,-0.0143212271490256,,0.05,true,hh,1704.7000003814464,response,0.9525123994269484,1.0343952468283686,-0.8045725673195145,1.0779941204178511,1.079565620888864,-0.8117475122519482,high,high,,ISIC_0064669.JPG,8,ISIC_0009642.JPG,33,32,false,0.1,hh,keypress(i),0,false,846984.3000001907,846984.1000003815,845262.698,845354.8000001907,845279.4,846897.2,5,600,27,
break,html.Screen,10_26_1,2024-03-05T20:23:31.441Z,,,,,,,,,,,NaN,,,,,,,,high,high,,,,,,,false,,,,,false,846985.6000003815,846985.1999998093,,846984.8000001907,,846897.2,5,600,,
break_continue,html.Screen,10_26_2,2024-03-05T20:23:31.442Z,,,,,,,,,,,NaN,,,,,,,,high,high,,,,,,,false,,,,,false,846986.3000001907,846986,,846985.8000001907,,846897.2,5,600,,
sequence,flow.Sequence,10_26,2024-03-05T20:23:31.442Z,,,,,,,,,,,1706.5999999999767,completion,,,,,,,high,high,,,,,,,false,,,,,false,846986.5,846986,845262.698,845354.6999998093,845279.4,846897.2,5,600,,
trial,html.Screen,10_27_0,2024-03-05T20:23:33.800Z,,,,1,-0.0085520978188085,0.0464691161264081,,0.05,true,ll,2446.6000001907814,response,-0.8068224817535752,1.0343952468283686,-0.8045725673195145,-0.8996141262602615,1.079565620888864,-0.8117475122519482,low,low,,ISIC_0758797.JPG,9,ISIC_0059601.JPG,33,54,false,0.1,ll,keypress(f),0,false,849344.1999998093,849343.8000001907,846896.708,846986.6999998093,846897.2,849265.822,5,600,28,
break,html.Screen,10_27_1,2024-03-05T20:23:33.801Z,,,,,,,,,,,NaN,,,,,,,,low,low,,,,,,,false,,,,,false,849345.5,849345.1999998093,,849344.6000003815,,849265.822,5,600,,
break_continue,html.Screen,10_27_2,2024-03-05T20:23:33.802Z,,,,,,,,,,,NaN,,,,,,,,low,low,,,,,,,false,,,,,false,849346.3000001907,849346,,849345.6999998093,,849265.822,5,600,,
sequence,flow.Sequence,10_27,2024-03-05T20:23:33.802Z,,,,,,,,,,,2448.8000000000466,completion,,,,,,,low,low,,,,,,,false,,,,,false,849346.6000003815,849346,846896.708,846986.6000003815,846897.2,849265.822,5,600,,
trial,html.Screen,10_28_0,2024-03-05T20:23:39.272Z,,,,1,-0.0085520978188085,0.0464691161264081,,0.05,false,lh,5549.877999809221,response,-0.6971413872676647,1.0343952468283686,-0.8045725673195145,0.9786113496628154,1.079565620888864,-0.8117475122519482,low,high,,ISIC_0758797.JPG,8,ISIC_8195528.JPG,33,27,false,0.20000000000000007,hl,keypress(j),0,false,854816.1000003815,854815.6999998093,849265.822,849346.6999998093,849265.822,854737,5,600,29,
break,html.Screen,10_28_1,2024-03-05T20:23:39.273Z,,,,,,,,,,,NaN,,,,,,,,low,high,,,,,,,false,,,,,false,854817.6000003815,854817.1999998093,,854816.6000003815,,854737,5,600,,
break_continue,html.Screen,10_28_2,2024-03-05T20:23:39.274Z,,,,,,,,,,,NaN,,,,,,,,low,high,,,,,,,false,,,,,false,854818.5,854818.1999998093,,854817.9000005722,,854737,5,600,,
sequence,flow.Sequence,10_28,2024-03-05T20:23:39.274Z,,,,,,,,,,,5552.377999809221,completion,,,,,,,low,high,,,,,,,false,,,,,false,854818.8000001907,854818.1999998093,849265.822,849346.6999998093,849265.822,854737,5,600,,
trial,html.Screen,10_29_0,2024-03-05T20:23:42.559Z,,,,1,-0.0070725527271049,-0.0049995141077508,,0.05,true,ll,3366.4000005722046,response,-0.838053327796249,1.0343952468283686,-0.8045725673195145,-0.8312425167370745,1.079565620888864,-0.8117475122519482,low,low,,ISIC_6124481.JPG,9,ISIC_4834687.JPG,33,54,false,0.1,ll,keypress(f),0,false,858103.6999998093,858103.4000005722,854736.118,854819,854737,858023,5,600,30,
break,html.Screen,10_29_1,2024-03-05T20:23:42.560Z,,,,,,,,,,,NaN,,,,,,,,low,low,,,,,,,false,,,,,false,858104.8000001907,858104.5,,858104,,858023,5,600,,
break_continue,html.Screen,10_29_2,2024-03-05T20:23:42.561Z,,,,,,,,,,,NaN,,,,,,,,low,low,,,,,,,false,,,,,false,858105.6000003815,858105.4000005722,,858105,,858023,5,600,,
sequence,flow.Sequence,10_29,2024-03-05T20:23:42.561Z,,,,,,,,,,,3368.4000005722046,completion,,,,,,,low,low,,,,,,,false,,,,,false,858105.8000001907,858105.4000005722,854736.118,854818.9000005722,854737,858023,5,600,,
trial,html.Screen,10_30_0,2024-03-05T20:23:44.400Z,,,,1,-0.0107854985447517,-0.0478010417136109,,0.05,true,hh,1920.8000001907349,response,0.96885674750163,1.0343952468283686,-0.8045725673195145,1.153255258098753,1.079565620888864,-0.8117475122519482,high,high,,ISIC_0010500.JPG,9,ISIC_5722914.JPG,33,32,false,0.1,hh,keypress(i),0,false,859944.1000003815,859943.8000001907,858022.288,858106,858023,859857.9,5,600,31,
break,html.Screen,10_30_1,2024-03-05T20:23:44.401Z,,,,,,,,,,,NaN,,,,,,,,high,high,,,,,,,false,,,,,false,859945.8000001907,859945.1999998093,,859944.6000003815,,859857.9,5,600,,
break_continue,html.Screen,10_30_2,2024-03-05T20:23:44.402Z,,,,,,,,,,,NaN,,,,,,,,high,high,,,,,,,false,,,,,false,859946.6000003815,859946.3000001907,,859946,,859857.9,5,600,,
sequence,flow.Sequence,10_30,2024-03-05T20:23:44.402Z,,,,,,,,,,,1923.3000001907349,completion,,,,,,,high,high,,,,,,,false,,,,,false,859946.9000005722,859946.3000001907,858022.288,858105.9000005722,858023,859857.9,5,600,,
trial,html.Screen,10_31_0,2024-03-05T20:23:48.183Z,,,,1,0.0348234368746005,-0.0236866303880924,,0.05,true,ll,3869.5999999999767,response,-0.838482148534353,1.0343952468283686,-0.8045725673195145,-0.8179691667073062,1.079565620888864,-0.8117475122519482,low,low,,ISIC_0011099.JPG,9,ISIC_0055079.JPG,33,54,false,0.1,ll,keypress(f),0,false,863727.8000001907,863727.5,859857.542,859947.1000003815,859857.9,863644.3,5,600,32,
break,html.Screen,10_31_1,2024-03-05T20:23:48.185Z,,,,,,,,,,,NaN,,,,,,,,low,low,,,,,,,false,,,,,false,863729.1000003815,863728.8000001907,,863728.1999998093,,863644.3,5,600,,
break_continue,html.Screen,10_31_2,2024-03-05T20:23:48.185Z,,,,,,,,,,,NaN,,,,,,,,low,low,,,,,,,false,,,,,false,863729.9000005722,863729.6999998093,,863729.3000001907,,863644.3,5,600,,
sequence,flow.Sequence,10_31,2024-03-05T20:23:48.186Z,,,,,,,,,,,3871.799999809242,completion,,,,,,,low,low,,,,,,,false,,,,,false,863730.1999998093,863729.6999998093,859857.542,859947,859857.9,863644.3,5,600,,
trial,html.Screen,10_32_0,2024-03-05T20:23:51.856Z,,,,1,-0.039728379742806,0.0228701131373768,,0.05,false,lh,3755.8999998092186,response,-0.6386144741600837,1.0343952468283686,-0.8045725673195145,0.9535552759852256,1.079565620888864,-0.8117475122519482,low,high,,ISIC_0054073.JPG,9,ISIC_1744817.JPG,33,27,false,0.20000000000000007,ll,keypress(f),0,false,867400.6000003815,867400.1999998093,863642.122,863730.4000005722,863644.3,867314.1,5,600,33,
break,html.Screen,10_32_1,2024-03-05T20:23:51.858Z,,,,,,,,,,,NaN,,,,,,,,low,high,,,,,,,false,,,,,false,867402.1999998093,867401.6999998093,,867401,,867314.1,5,600,,
break_continue,html.Screen,10_32_2,2024-03-05T20:23:51.859Z,,,,,,,,,,,NaN,,,,,,,,low,high,,,,,,,false,,,,,false,867403,867402.8000001907,,867402.5,,867314.1,5,600,,
sequence,flow.Sequence,10_32,2024-03-05T20:23:51.859Z,,,,,,,,,,,3758.5000001906883,completion,,,,,,,low,high,,,,,,,false,,,,,false,867403.4000005722,867402.8000001907,863642.122,863730.4000005722,863644.3,867314.1,5,600,,
trial,html.Screen,10_33_0,2024-03-05T20:23:53.942Z,,,,1,0.0112310719058792,-0.0469047359904117,,0.05,false,hl,2172.300000572228,response,0.8860551570327019,1.0343952468283686,-0.8045725673195145,-0.8067116931297591,1.079565620888864,-0.8117475122519482,high,low,,ISIC_0068184.JPG,9,ISIC_1457687.JPG,33,26,false,0.17000000000000004,hh,keypress(i),0,false,869486.5,869486.4000005722,867311.896,867403.6000003815,867314.1,869399.1,5,600,34,
break,html.Screen,10_33_1,2024-03-05T20:23:53.943Z,,,,,,,,,,,NaN,,,,,,,,high,low,,,,,,,false,,,,,false,869487.1000003815,869487,,869486.6999998093,,869399.1,5,600,,
break_continue,html.Screen,10_33_2,2024-03-05T20:23:53.943Z,,,,,,,,,,,NaN,,,,,,,,high,low,,,,,,,false,,,,,false,869487.4000005722,869487.3000001907,,869487.3000001907,,869399.1,5,600,,
sequence,flow.Sequence,10_33,2024-03-05T20:23:53.943Z,,,,,,,,,,,2173.200000190758,completion,,,,,,,high,low,,,,,,,false,,,,,false,869487.6000003815,869487.3000001907,867311.896,867403.5,867314.1,869399.1,5,600,,
trial,html.Screen,10_34_0,2024-03-05T20:23:57.504Z,,,,1,0,0.0264544974620926,,0.05,false,hl,3648.700000190758,response,1.0656673213158945,1.0343952468283686,-0.8045725673195145,-0.8082541692781954,1.079565620888864,-0.8117475122519482,high,low,,ISIC_0056991.JPG,9,ISIC_0033985.JPG,33,26,false,0.17000000000000004,hh,keypress(i),0,false,873048.1000003815,873047.8000001907,869398.424,869487.6999998093,869399.1,872968.6,5,600,35,
break,html.Screen,10_34_1,2024-03-05T20:23:57.505Z,,,,,,,,,,,NaN,,,,,,,,high,low,,,,,,,false,,,,,false,873049.5,873049.1000003815,,873048.6000003815,,872968.6,5,600,,
break_continue,html.Screen,10_34_2,2024-03-05T20:23:57.506Z,,,,,,,,,,,NaN,,,,,,,,high,low,,,,,,,false,,,,,false,873050.3000001907,873050.1000003815,,873049.6999998093,,872968.6,5,600,,
sequence,flow.Sequence,10_34,2024-03-05T20:23:57.506Z,,,,,,,,,,,3651.000000381493,completion,,,,,,,high,low,,,,,,,false,,,,,false,873050.6000003815,873050.1000003815,869398.424,869487.6000003815,869399.1,872968.6,5,600,,
trial,html.Screen,10_35_0,2024-03-05T20:23:59.848Z,,,,1,-0.0107854985447517,-0.0478010417136109,,0.05,false,hl,2423.700000190758,response,1.0656673213158945,1.0343952468283686,-0.8045725673195145,-0.8082541692781954,1.079565620888864,-0.8117475122519482,high,low,,ISIC_0010500.JPG,10,ISIC_0033985.JPG,33,26,false,0.17000000000000004,hh,keypress(i),0,false,875392.6999998093,875392.3000001907,872966.454,873050.8000001907,872968.6,875320.8,5,600,36,
break,html.Screen,10_35_1,2024-03-05T20:23:59.850Z,,,,,,,,,,,NaN,,,,,,,,high,low,,,,,,,false,,,,,false,875394.3000001907,875394,,875393.4000005722,,875320.8,5,600,,
break_continue,html.Screen,10_35_2,2024-03-05T20:23:59.851Z,,,,,,,,,,,NaN,,,,,,,,high,low,,,,,,,false,,,,,false,875395.1000003815,875394.9000005722,,875394.5,,875320.8,5,600,,
sequence,flow.Sequence,10_35,2024-03-05T20:23:59.851Z,,,,,,,,,,,2426.300000572228,completion,,,,,,,high,low,,,,,,,false,,,,,false,875395.4000005722,875394.9000005722,872966.454,873050.8000001907,872968.6,875320.8,5,600,,
trial,html.Screen,10_36_0,2024-03-05T20:24:03.064Z,,,,1,0.013431314305098,-0.0140597582944232,,0.05,true,ll,3286.8999998092186,response,-0.8471355550006346,1.0343952468283686,-0.8045725673195145,-0.8721011160837115,1.079565620888864,-0.8117475122519482,low,low,,ISIC_0069617.JPG,9,ISIC_0025744.JPG,33,54,false,0.1,ll,keypress(f),0,false,878608.1000003815,878607.6999998093,875304.2,875395.6999998093,875320.8,878523.2,5,600,37,
break,html.Screen,10_36_1,2024-03-05T20:24:03.065Z,,,,,,,,,,,NaN,,,,,,,,low,low,,,,,,,false,,,,,false,878609.5,878609.1999998093,,878608.5,,878523.2,5,600,,
break_continue,html.Screen,10_36_2,2024-03-05T20:24:03.066Z,,,,,,,,,,,NaN,,,,,,,,low,low,,,,,,,false,,,,,false,878610.4000005722,878610.1000003815,,878609.6999998093,,878523.2,5,600,,
sequence,flow.Sequence,10_36,2024-03-05T20:24:03.066Z,,,,,,,,,,,3289.300000381423,completion,,,,,,,low,low,,,,,,,false,,,,,false,878610.6999998093,878610.1000003815,875304.2,875395.6000003815,875320.8,878523.2,5,600,,
trial,html.Screen,10_37_0,2024-03-05T20:24:08.744Z,,,,1,-0.0450282431170921,0,,0.05,false,lh,5765.200000572251,response,-0.809764442462202,1.0343952468283686,-0.8045725673195145,1.005337148078696,1.079565620888864,-0.8117475122519482,low,high,,ISIC_1805163.JPG,9,ISIC_2379379.JPG,33,27,false,0.20000000000000007,hl,keypress(j),0,false,884288.8000001907,884288.4000005722,878522.518,878611,878523.2,884211.3,5,600,38,
break,html.Screen,10_37_1,2024-03-05T20:24:08.746Z,,,,,,,,,,,NaN,,,,,,,,low,high,,,,,,,false,,,,,false,884290,884289.6999998093,,884289.1999998093,,884211.3,5,600,,
break_continue,html.Screen,10_37_2,2024-03-05T20:24:08.746Z,,,,,,,,,,,NaN,,,,,,,,low,high,,,,,,,false,,,,,false,884290.8000001907,884290.6000003815,,884290.1999998093,,884211.3,5,600,,
sequence,flow.Sequence,10_37,2024-03-05T20:24:08.747Z,,,,,,,,,,,5767.400000381516,completion,,,,,,,low,high,,,,,,,false,,,,,false,884291.1000003815,884290.6000003815,878522.518,878610.9000005722,878523.2,884211.3,5,600,,
trial,html.Screen,10_38_0,2024-03-05T20:24:11.232Z,,,,1,0.013431314305098,-0.0140597582944232,,0.05,true,ll,2565.0000001906883,response,-0.9012711689442632,1.0343952468283686,-0.8045725673195145,-0.8639942067158306,1.079565620888864,-0.8117475122519482,low,low,,ISIC_0069617.JPG,9,ISIC_0032718.JPG,33,54,false,0.1,ll,keypress(f),0,false,886776.6999998093,886776.3000001907,884194.6,884291.1999998093,884211.3,886696.7,5,600,39,
break,html.Screen,10_38_1,2024-03-05T20:24:11.234Z,,,,,,,,,,,NaN,,,,,,,,low,low,,,,,,,false,,,,,false,886778,886777.6000003815,,886777.1000003815,,886696.7,5,600,,
break_continue,html.Screen,10_38_2,2024-03-05T20:24:11.234Z,,,,,,,,,,,NaN,,,,,,,,low,low,,,,,,,false,,,,,false,886778.8000001907,886778.6000003815,,886778.1999998093,,886696.7,5,600,,
sequence,flow.Sequence,10_38,2024-03-05T20:24:11.235Z,,,,,,,,,,,2567.300000381423,completion,,,,,,,low,low,,,,,,,false,,,,,false,886779.1000003815,886778.6000003815,884194.6,884291.1999998093,884211.3,886696.7,5,600,,
trial,html.Screen,10_39_0,2024-03-05T20:24:19.456Z,,,,1,-0.0450282431170921,0,,0.05,true,hh,8303.499999809312,response,1.0858641668099058,1.0343952468283686,-0.8045725673195145,1.1638942560200525,1.079565620888864,-0.8117475122519482,high,high,,ISIC_1805163.JPG,8,ISIC_5439597.JPG,33,32,false,0.1,hh,keypress(i),0,false,895000.6000003815,895000.1999998093,886680.2,886779.3000001907,886696.7,894920.1,5,600,40,
break,html.Screen,10_39_1,2024-03-05T20:24:19.458Z,,,,,,,,,,,NaN,,,,,,,,high,high,,,,,,,false,,,,,false,895002.1999998093,895001.6999998093,,895001.1000003815,,894920.1,5,600,,
break_continue,html.Screen,10_39_2,2024-03-05T20:24:19.459Z,,,,,,,,,,,NaN,,,,,,,,high,high,,,,,,,false,,,,,false,895003,895002.8000001907,,895002.4000005722,,894920.1,5,600,,
