sender,sender_type,sender_id,timestamp,meta,,age,blockNo,c1,c2,condition,control_tolerance,correct,correctResponse,duration,ended_on,f1,f1_high,f1_low,f2,f2_high,f2_low,feature_level1,feature_level2,gender,img_left,img_reveal,img_right,n_control_images,n_target_images,practice,range_tolerance,response,response_action,selection_duration,staircase,time_commit,time_end,time_render,time_run,time_show,time_switch,total_blocks,total_trials,trialNo,url
informed_consent,html.Screen,0,2023-11-20T20:23:01.989Z,"{""labjs_version"":""20.2.4"",""labjs_build"":{""flavor"":""development"",""commit"":""f5b4a49f956347addd546a832a3327688c2c0fef""},""location"":""https://labjs.felixhenninger.com/api/labjs_preview/index.html"",""userAgent"":""Mozilla/5.0 (Windows NT 10.0; Win64; x64) AppleWebKit/537.36 (KHTML, like Gecko) Chrome/119.0.0.0 Safari/537.36"",""platform"":""Win32"",""language"":""en-US"",""locale"":""en-US"",""timeZone"":""America/Chicago"",""timezoneOffset"":360,""screen_width"":1920,""screen_height"":1080,""scroll_width"":945,""scroll_height"":918,""window_innerWidth"":945,""window_innerHeight"":966,""devicePixelRatio"":1}",,,,,,,,,,37531.18399997616,response,,,,,,,,,,,,,,,,,consent,click button,,,38089.300000071526,38082.89999997616,535.019,693.2000000476837,551.716,37951.789,,,,{}
Demography form,html.Form,1,2023-11-20T20:23:24.430Z,,,26,,,,,,,,22577.311000023845,form submission,,,,,,,,,male,,,,,,,,,,,,60529.200000047684,60529.10000002384,37935.007,38089.5,37951.789,60401.66,,,,
Welcome,html.Screen,2,2023-11-20T20:24:05.985Z,,,,,,,"[""asym"",""bor""]",,,,41681.84,response,,,,,,,,,,,,,,,,,continue,click button,,,102084,102083.5,60384.945,60529.300000071526,60401.66,101951.933,,,,
demo_instructions,html.Screen,3,2023-11-20T20:24:57.970Z,,,,,,,,,,,52115.96699997615,response,,,,,,,,,,,,,,,,,continue,click button,,,154068.39999997616,154067.89999997616,101935.099,102084.10000002384,101951.933,153934.826,,,,
trial,html.Screen,4_0_0,2023-11-20T20:25:13.569Z,,,,0,-1.2071341803968807,-1.235960269089932,,,true,hh,15733.173999999999,response,1.057008495826831,1.2,-1.2,1.1278122585028287,1.2,-1.2,high,high,,ISIC_0058174.JPG,,ISIC_2819798.JPG,,26,true,0.15000000000000002,hh,keypress(i),100,false,169668.30000007153,169668,153918.291,154068.39999997616,153934.826,169551.526,1,16,1,
sequence,flow.Sequence,4_0,2023-11-20T20:25:13.575Z,,,,,,,,,,,15733.173999999999,completion,,,,,,,high,high,,,,,,,true,,,,,false,169674.10000002384,169668,153918.291,154068.39999997616,153934.826,169551.526,1,16,,
trial,html.Screen,4_1_0,2023-11-20T20:25:20.605Z,,,,0,-1.185875658992962,-1.2635548590325487,,,true,hh,7151.973999999987,response,1.0858641668099058,1.2,-1.2,1.1638942560200525,1.2,-1.2,high,high,,ISIC_0011703.JPG,,ISIC_5439597.JPG,,26,true,0.15000000000000002,hh,keypress(i),100,false,176703.80000007153,176703.5,169535.126,169674.10000002384,169551.526,176584.808,1,16,2,
sequence,flow.Sequence,4_1,2023-11-20T20:25:20.605Z,,,,,,,,,,,7151.973999999987,completion,,,,,,,high,high,,,,,,,true,,,,,false,176703.89999997616,176703.5,169535.126,169674.10000002384,169551.526,176584.808,1,16,,
trial,html.Screen,4_2_0,2023-11-20T20:25:24.403Z,,,,0,-1.247270138097585,-1.1704704713504994,,,true,hh,3916.792000023852,response,1.2711018615747949,1.2,-1.2,1.1042234044781618,1.2,-1.2,high,high,,ISIC_0065774.JPG,,ISIC_8603734.JPG,,26,true,0.15000000000000002,hh,keypress(i),100,false,180501.80000007153,180501.60000002384,176568.334,176704,176584.808,180384.995,1,16,3,
sequence,flow.Sequence,4_2,2023-11-20T20:25:24.403Z,,,,,,,,,,,3916.792000023852,completion,,,,,,,high,high,,,,,,,true,,,,,false,180502,180501.60000002384,176568.334,176704,176584.808,180384.995,1,16,,
trial,html.Screen,4_3_0,2023-11-20T20:25:27.016Z,,,,0,-1.1877026569952844,-1.1604367569896263,,,true,hh,2729.904999976163,response,1.1210325063849345,1.2,-1.2,1.1498648320956202,1.2,-1.2,high,high,,ISIC_0064589.JPG,,ISIC_0032162.JPG,,26,true,0.15000000000000002,hh,keypress(i),100,false,183115.10000002384,183114.89999997616,180368.4,180502,180384.995,183001.564,1,16,4,
sequence,flow.Sequence,4_3,2023-11-20T20:25:27.016Z,,,,,,,,,,,2729.904999976163,completion,,,,,,,high,high,,,,,,,true,,,,,false,183115.30000007153,183114.89999997616,180368.4,180502,180384.995,183001.564,1,16,,
trial,html.Screen,4_4_0,2023-11-20T20:25:37.503Z,,,,0,1.2711018615747949,1.1042234044781618,,,true,ll,10599.835999976145,response,-1.152619213055059,1.2,-1.2,-1.1117876838408909,1.2,-1.2,low,low,,ISIC_8603734.JPG,,ISIC_0061915.JPG,,30,true,0.1,ll,keypress(f),100,false,193601.60000002384,193601.39999997616,182984.972,183115.39999997616,183001.564,193485.001,1,16,5,
sequence,flow.Sequence,4_4,2023-11-20T20:25:37.503Z,,,,,,,,,,,10599.835999976145,completion,,,,,,,low,low,,,,,,,true,,,,,false,193601.70000004768,193601.39999997616,182984.972,183115.39999997616,183001.564,193485.001,1,16,,
trial,html.Screen,4_5_0,2023-11-20T20:25:40.739Z,,,,0,1.086647361897092,1.1528935990320313,,,true,ll,3352.5990000238526,response,-1.3188821610161792,1.2,-1.2,-1.1433456871226346,1.2,-1.2,low,low,,ISIC_3505339.JPG,,ISIC_0030798.JPG,,53,true,0.15000000000000002,ll,keypress(f),100,false,196837.80000007153,196837.60000002384,193468.561,193601.80000007153,193485.001,196718.103,1,16,6,
sequence,flow.Sequence,4_5,2023-11-20T20:25:40.739Z,,,,,,,,,,,3352.5990000238526,completion,,,,,,,low,low,,,,,,,true,,,,,false,196837.89999997616,196837.60000002384,193468.561,193601.80000007153,193485.001,196718.103,1,16,,
trial,html.Screen,4_6_0,2023-11-20T20:25:44.216Z,,,,0,1.2012395086389958,1.0618985767073823,,,true,ll,3596.2969999761553,response,-1.152619213055059,1.2,-1.2,-1.1117876838408909,1.2,-1.2,low,low,,ISIC_9876004.JPG,,ISIC_0061915.JPG,,53,true,0.15000000000000002,ll,keypress(f),100,false,200314.60000002384,200314.39999997616,196701.442,196838,196718.103,200184.96,1,16,7,
sequence,flow.Sequence,4_6,2023-11-20T20:25:44.216Z,,,,,,,,,,,3596.2969999761553,completion,,,,,,,low,low,,,,,,,true,,,,,false,200314.80000007153,200314.39999997616,196701.442,196838,196718.103,200184.96,1,16,,
trial,html.Screen,4_7_0,2023-11-20T20:25:55.788Z,,,,0,1.0858641668099058,1.1638942560200525,,,true,ll,11701.939999976166,response,-1.2631894117279046,1.2,-1.2,-1.0916958871221865,1.2,-1.2,low,low,,ISIC_5439597.JPG,,ISIC_0065748.JPG,,53,true,0.15000000000000002,ll,keypress(f),100,false,211887,211886.89999997616,200168.383,200314.80000007153,200184.96,211768.539,1,16,8,
sequence,flow.Sequence,4_7,2023-11-20T20:25:55.788Z,,,,,,,,,,,11701.939999976166,completion,,,,,,,low,low,,,,,,,true,,,,,false,211887.20000004768,211886.89999997616,200168.383,200314.80000007153,200184.96,211768.539,1,16,,
trial,html.Screen,4_8_0,2023-11-20T20:26:11.565Z,,,,0,1.2075172235545184,-0.9116724966267612,,,true,lh,15895.360999976168,response,-0.7809949855371787,1.2,-1.2,0.8493861117004308,1.2,-1.2,low,high,,ISIC_0024235.JPG,,ISIC_7450481.JPG,,27,true,0.42000000000000026,lh,keypress(e),100,false,227664.10000002384,227663.89999997616,211751.431,211887.20000004768,211768.539,227534.797,1,16,9,
sequence,flow.Sequence,4_8,2023-11-20T20:26:11.566Z,,,,,,,,,,,15895.360999976168,completion,,,,,,,low,high,,,,,,,true,,,,,false,227664.39999997616,227663.89999997616,211751.431,211887.20000004768,211768.539,227534.797,1,16,,
trial,html.Screen,4_9_0,2023-11-20T20:26:27.291Z,,,,0,0.858338058340649,-0.9540612223480284,,,true,lh,15855.102999976167,response,-0.8655167308525522,1.2,-1.2,0.9298580423306444,1.2,-1.2,low,high,,ISIC_8922893.JPG,,ISIC_4603706.JPG,,27,true,0.42000000000000026,lh,keypress(e),100,false,243390,243389.89999997616,227518.124,227664.39999997616,227534.797,243268.339,1,16,10,
sequence,flow.Sequence,4_9,2023-11-20T20:26:27.291Z,,,,,,,,,,,15855.102999976167,completion,,,,,,,low,high,,,,,,,true,,,,,false,243390.10000002384,243389.89999997616,227518.124,227664.39999997616,227534.797,243268.339,1,16,,
trial,html.Screen,4_10_0,2023-11-20T20:26:37.849Z,,,,0,0.858338058340649,-0.9540612223480284,,,true,lh,10679.160999999993,response,-0.7809949855371787,1.2,-1.2,0.8493861117004308,1.2,-1.2,low,high,,ISIC_8922893.JPG,,ISIC_7450481.JPG,,27,true,0.42000000000000026,lh,keypress(e),100,false,253947.80000007153,253947.5,243251.403,243390.20000004768,243268.339,253818.242,1,16,11,
sequence,flow.Sequence,4_10,2023-11-20T20:26:37.849Z,,,,,,,,,,,10679.160999999993,completion,,,,,,,low,high,,,,,,,true,,,,,false,253948,253947.5,243251.403,243390.20000004768,243268.339,253818.242,1,16,,
trial,html.Screen,4_11_0,2023-11-20T20:26:44.550Z,,,,0,1.2364994561934892,-0.9174173651516624,,,true,lh,6829.958000047685,response,-1.0115965332688306,1.2,-1.2,0.8282633603842442,1.2,-1.2,low,high,,ISIC_3481133.JPG,,ISIC_1069587.JPG,,27,true,0.42000000000000026,lh,keypress(e),100,false,260648.39999997616,260648.20000004768,253801.558,253948,253818.242,260534.719,1,16,12,
sequence,flow.Sequence,4_11,2023-11-20T20:26:44.550Z,,,,,,,,,,,6829.958000047685,completion,,,,,,,low,high,,,,,,,true,,,,,false,260648.5,260648.20000004768,253801.558,253948,253818.242,260534.719,1,16,,
trial,html.Screen,4_12_0,2023-11-20T20:27:00.550Z,,,,0,-0.8623414234919863,0.782830143980698,,,true,hl,16113.38100002383,response,0.879102500583965,1.2,-1.2,-1.0933081951979773,1.2,-1.2,high,low,,ISIC_2727016.JPG,,ISIC_0046223.JPG,,26,true,0.3600000000000002,hl,keypress(j),100,false,276648.10000002384,276648.10000002384,260518.01,260648.60000002384,260534.719,276534.73,1,16,13,
sequence,flow.Sequence,4_12,2023-11-20T20:27:00.550Z,,,,,,,,,,,16113.38100002383,completion,,,,,,,high,low,,,,,,,true,,,,,false,276648.39999997616,276648.10000002384,260518.01,260648.60000002384,260534.719,276534.73,1,16,,
trial,html.Screen,4_13_0,2023-11-20T20:27:09.589Z,,,,0,-0.991146183030456,0.9949639823722534,,,true,hl,9152.669999976177,response,0.991282840649944,1.2,-1.2,-0.9397921099839784,1.2,-1.2,high,low,,ISIC_6342224.JPG,,ISIC_0000463.JPG,,33,true,0.42000000000000026,hl,keypress(j),100,false,285687.60000002384,285687.39999997616,276518.014,276648.5,276534.73,285568.444,1,16,14,
sequence,flow.Sequence,4_13,2023-11-20T20:27:09.589Z,,,,,,,,,,,9152.669999976177,completion,,,,,,,high,low,,,,,,,true,,,,,false,285687.8000000715,285687.39999997616,276518.014,276648.39999997616,276534.73,285568.444,1,16,,
trial,html.Screen,4_14_0,2023-11-20T20:27:35.525Z,,,,0,-1.276222161935671,0.9657780821973284,,,true,hl,26054.45599997614,response,1.27543269240326,1.2,-1.2,-0.80839597388021,1.2,-1.2,high,low,,ISIC_6710411.JPG,,ISIC_3296136.JPG,,33,true,0.42000000000000026,hl,keypress(j),100,false,311623.10000002384,311622.89999997616,285551.348,285687.89999997616,285568.444,311501.436,1,16,15,
sequence,flow.Sequence,4_14,2023-11-20T20:27:35.525Z,,,,,,,,,,,26054.45599997614,completion,,,,,,,high,low,,,,,,,true,,,,,false,311623.3000000715,311622.89999997616,285551.348,285687.89999997616,285568.444,311501.436,1,16,,
trial,html.Screen,4_15_0,2023-11-20T20:27:47.572Z,,,,0,-0.9235571765207048,1.0008081653938232,,,true,hl,12168.764000047697,response,0.7951166058716005,1.2,-1.2,-1.477327500998078,1.2,-1.2,high,low,,ISIC_8796632.JPG,,ISIC_0033925.JPG,,33,true,0.42000000000000026,hl,keypress(j),100,false,323670.39999997616,323670.2000000477,311484.665,311623.3000000715,311501.436,323551.555,1,16,16,
sequence,flow.Sequence,4_15,2023-11-20T20:27:47.572Z,,,,,,,,,,,12168.764000047697,completion,,,,,,,high,low,,,,,,,true,,,,,false,323670.60000002384,323670.2000000477,311484.665,311623.3000000715,311501.436,323551.555,1,16,,
demonstration_loop,flow.Loop,4,2023-11-20T20:27:47.572Z,,,,,,,,,,,169735.37400004768,completion,,,,,,,,,,,,,,,true,,,,,false,323670.60000002384,323670.2000000477,153918.291,154068.39999997616,153934.826,323551.555,1,16,,
practice_instructions,html.Screen,5,2023-11-20T20:28:02.215Z,,,,,,,,,,,14755.945000000007,response,,,,,,,,,,,,,,,,,continue,click button,,,338313.2000000477,338307.5,323534.731,323670.7000000477,323551.555,338184.629,,,,
trial,html.Screen,6_0_0,2023-11-20T20:28:15.674Z,,,,1,-1.2181031651370575,-1.2158573487067317,,,false,hh,13581.471000023826,response,1.3411179702686655,1.2,-1.2,1.255103311449152,1.2,-1.2,high,high,,ISIC_7242312.JPG,,ISIC_5611010.JPG,,26,true,0.15000000000000002,hl,keypress(j),0,false,351771.89999997616,351766.10000002384,338167.962,338313.39999997616,338184.629,351634.577,1,40,1,
sequence,flow.Sequence,6_0,2023-11-20T20:28:15.674Z,,,,,,,,,,,13581.471000023826,completion,,,,,,,high,high,,,,,,,true,,,,,false,351772,351766.10000002384,338167.962,338313.3000000715,338184.629,351634.577,1,40,,
trial,html.Screen,6_1_0,2023-11-20T20:28:23.842Z,,,,1,-1.1033977063872138,-1.2513071571733083,,,true,hh,8305.322999976168,response,1.1137763092539212,1.2,-1.2,1.1599906701455132,1.2,-1.2,high,high,,ISIC_0025472.JPG,,ISIC_5413788.JPG,,26,true,0.15000000000000002,hh,keypress(i),0,false,359940,359939.89999997616,351617.446,351772.10000002384,351634.577,359801.241,1,40,2,
sequence,flow.Sequence,6_1,2023-11-20T20:28:23.842Z,,,,,,,,,,,8305.322999976168,completion,,,,,,,high,high,,,,,,,true,,,,,false,359940.10000002384,359939.89999997616,351617.446,351772.10000002384,351634.577,359801.241,1,40,,
trial,html.Screen,6_2_0,2023-11-20T20:28:39.833Z,,,,1,1.331700944308701,-0.9395196143259436,,,,,16016.684999999998,timeout,-0.8035152873995188,1.2,-1.2,0.82868450251632,1.2,-1.2,low,high,,ISIC_1668831.JPG,,ISIC_0010671.JPG,,27,true,0.42000000000000026,,,0,false,375930.8000000715,375930.60000002384,359784.544,359940.2000000477,359801.241,375817.926,1,40,3,
sequence,flow.Sequence,6_2,2023-11-20T20:28:39.833Z,,,,,,,,,,,16129.359000023862,completion,,,,,,,low,high,,,,,,,true,,,,,false,375930.89999997616,375930.60000002384,359784.544,359940.2000000477,359801.241,375817.926,1,40,,
trial,html.Screen,6_3_0,2023-11-20T20:28:40.994Z,,,,1,1.0751036484083878,-1.143906455483852,,,true,lh,1274.0740000000224,response,-0.7871162143493278,1.2,-1.2,0.8429329800778957,1.2,-1.2,low,high,,ISIC_0064406.JPG,,ISIC_3439215.JPG,,27,true,0.42000000000000026,lh,keypress(e),0,false,377092.2000000477,377092,375801.233,375930.89999997616,375817.926,376951.216,1,40,4,
sequence,flow.Sequence,6_3,2023-11-20T20:28:40.994Z,,,,,,,,,,,1274.0740000000224,completion,,,,,,,low,high,,,,,,,true,,,,,false,377092.3000000715,377092,375801.233,375930.89999997616,375817.926,376951.216,1,40,,
trial,html.Screen,6_4_0,2023-11-20T20:28:55.042Z,,,,1,-1.0115965332688306,0.8282633603842442,,,true,hl,14188.984000047669,response,0.8809306963311293,1.2,-1.2,-0.8614910030038974,1.2,-1.2,high,low,,ISIC_1069587.JPG,,ISIC_0013731.JPG,,26,true,0.3600000000000002,hl,keypress(j),0,false,391140.3000000715,391140.2000000477,376934.764,377092.39999997616,376951.216,391001.349,1,40,5,
sequence,flow.Sequence,6_4,2023-11-20T20:28:55.042Z,,,,,,,,,,,14188.984000047669,completion,,,,,,,high,low,,,,,,,true,,,,,false,391140.39999997616,391140.2000000477,376934.764,377092.3000000715,376951.216,391001.349,1,40,,
trial,html.Screen,6_5_0,2023-11-20T20:29:01.954Z,,,,1,-1.152619213055059,-1.1117876838408909,,,true,hh,7050.651000000013,response,0.7856258389240071,1.2,-1.2,1.239970909956787,1.2,-1.2,high,high,,ISIC_0061915.JPG,,ISIC_7860137.JPG,,253,true,0.42000000000000026,hh,keypress(i),0,false,398052.2000000477,398052,390984.076,391140.39999997616,391001.349,397917.861,1,40,6,
sequence,flow.Sequence,6_5,2023-11-20T20:29:01.954Z,,,,,,,,,,,7050.651000000013,completion,,,,,,,high,high,,,,,,,true,,,,,false,398052.3000000715,398052,390984.076,391140.39999997616,391001.349,397917.861,1,40,,
trial,html.Screen,6_6_0,2023-11-20T20:29:09.858Z,,,,1,-0.8035152873995188,0.82868450251632,,,true,hl,8038.43900007155,response,0.9696118525781644,1.2,-1.2,-0.9244148283103414,1.2,-1.2,high,low,,ISIC_0010671.JPG,,ISIC_7927525.JPG,,26,true,0.3600000000000002,hl,keypress(j),0,false,405956.39999997616,405956.3000000715,397901.218,398052.3000000715,397917.861,405817.858,1,40,7,
sequence,flow.Sequence,6_6,2023-11-20T20:29:09.858Z,,,,,,,,,,,8038.43900007155,completion,,,,,,,high,low,,,,,,,true,,,,,false,405956.5,405956.3000000715,397901.218,398052.3000000715,397917.861,405817.858,1,40,,
trial,html.Screen,6_7_0,2023-11-20T20:29:18.289Z,,,,1,1.2364994561934892,-0.9174173651516624,,,true,lh,8570.242000023834,response,-0.7833710010171356,1.2,-1.2,0.9315588090336896,1.2,-1.2,low,high,,ISIC_3481133.JPG,,ISIC_3826102.JPG,,27,true,0.42000000000000026,lh,keypress(e),0,false,414388.10000002384,414388.10000002384,405801.162,405956.60000002384,405817.858,414251.177,1,40,8,
sequence,flow.Sequence,6_7,2023-11-20T20:29:18.290Z,,,,,,,,,,,8570.242000023834,completion,,,,,,,low,high,,,,,,,true,,,,,false,414388.3000000715,414388.10000002384,405801.162,405956.5,405817.858,414251.177,1,40,,
trial,html.Screen,6_8_0,2023-11-20T20:29:34.282Z,,,,1,-0.9235571765207048,1.0008081653938232,,,,,16016.834999999963,timeout,1.0865333402803938,1.2,-1.2,-1.0542635307358266,1.2,-1.2,high,low,,ISIC_8796632.JPG,,ISIC_0034006.JPG,,26,true,0.3600000000000002,,,0,false,430380.8000000715,430380.7000000477,414234.434,414388.3000000715,414251.177,430268.012,1,40,9,
sequence,flow.Sequence,6_8,2023-11-20T20:29:34.282Z,,,,,,,,,,,16129.523000047659,completion,,,,,,,high,low,,,,,,,true,,,,,false,430380.8000000715,430380.7000000477,414234.434,414388.3000000715,414251.177,430268.012,1,40,,
trial,html.Screen,6_9_0,2023-11-20T20:29:43.809Z,,,,1,1.1388430156686884,1.2700552354887775,,,true,ll,9639.488000000012,response,-0.9152802917888962,1.2,-1.2,-0.8414601987949015,1.2,-1.2,low,low,,ISIC_9939653.JPG,,ISIC_0060341.JPG,,339,true,0.42000000000000026,ll,keypress(f),0,false,439907.60000002384,439907.5,430251.202,430380.89999997616,430268.012,439767.822,1,40,10,
sequence,flow.Sequence,6_9,2023-11-20T20:29:43.809Z,,,,,,,,,,,9639.488000000012,completion,,,,,,,low,low,,,,,,,true,,,,,false,439907.7000000477,439907.5,430251.202,430380.89999997616,430268.012,439767.822,1,40,,
trial,html.Screen,6_10_0,2023-11-20T20:29:55.186Z,,,,1,0.9696118525781644,-0.9244148283103414,,,true,lh,11516.378000047698,response,-0.8947611078712571,1.2,-1.2,0.8960964505004638,1.2,-1.2,low,high,,ISIC_7927525.JPG,,ISIC_6441128.JPG,,27,true,0.42000000000000026,lh,keypress(e),0,false,451284.3000000715,451284.2000000477,439751.083,439907.8000000715,439767.822,451151.122,1,40,11,
sequence,flow.Sequence,6_10,2023-11-20T20:29:55.186Z,,,,,,,,,,,11516.378000047698,completion,,,,,,,low,high,,,,,,,true,,,,,false,451284.3000000715,451284.2000000477,439751.083,439907.8000000715,439767.822,451151.122,1,40,,
trial,html.Screen,6_11_0,2023-11-20T20:29:59.458Z,,,,1,1.201100953917304,1.1751492358160105,,,true,ll,4404.878000000026,response,-1.2254187569955004,1.2,-1.2,-1.174555235109734,1.2,-1.2,low,low,,ISIC_0647224.JPG,,ISIC_0027187.JPG,,245,true,0.3600000000000002,ll,keypress(f),0,false,455556.2000000477,455556,451134.27,451284.39999997616,451151.122,455417.768,1,40,12,
sequence,flow.Sequence,6_11,2023-11-20T20:29:59.458Z,,,,,,,,,,,4404.878000000026,completion,,,,,,,low,low,,,,,,,true,,,,,false,455556.3000000715,455556,451134.27,451284.3000000715,451151.122,455417.768,1,40,,
trial,html.Screen,6_12_0,2023-11-20T20:30:07.250Z,,,,1,1.2706447584800626,1.0903308007916603,,,true,ll,7930.432000047702,response,-1.247270138097585,1.2,-1.2,-1.1704704713504994,1.2,-1.2,low,low,,ISIC_9425937.JPG,,ISIC_0065774.JPG,,53,true,0.15000000000000002,ll,keypress(f),0,false,463348.3000000715,463348.2000000477,455401.28,455556.39999997616,455417.768,463217.781,1,40,13,
sequence,flow.Sequence,6_12,2023-11-20T20:30:07.251Z,,,,,,,,,,,7930.432000047702,completion,,,,,,,low,low,,,,,,,true,,,,,false,463348.5,463348.2000000477,455401.28,455556.39999997616,455417.768,463217.781,1,40,,
trial,html.Screen,6_13_0,2023-11-20T20:30:14.258Z,,,,1,-0.8200962008791046,0.7936051642828523,,,true,hl,7138.118999976141,response,0.8979276789594874,1.2,-1.2,-0.925374811016654,1.2,-1.2,high,low,,ISIC_0027031.JPG,,ISIC_4208361.JPG,,26,true,0.3600000000000002,hl,keypress(j),0,false,470356,470355.89999997616,463200.999,463348.5,463217.781,470217.939,1,40,14,
sequence,flow.Sequence,6_13,2023-11-20T20:30:14.258Z,,,,,,,,,,,7138.118999976141,completion,,,,,,,high,low,,,,,,,true,,,,,false,470356.10000002384,470355.89999997616,463200.999,463348.5,463217.781,470217.939,1,40,,
trial,html.Screen,6_14_0,2023-11-20T20:30:19.874Z,,,,1,-1.255256820488545,-1.1206426433062562,,,true,hh,5754.161000023829,response,1.1653123206802332,1.2,-1.2,1.2976858999596654,1.2,-1.2,high,high,,ISIC_0024652.JPG,,ISIC_0071508.JPG,,253,true,0.42000000000000026,hh,keypress(i),0,false,475972.10000002384,475972.10000002384,470200.923,470356.10000002384,470217.939,475834.458,1,40,15,
sequence,flow.Sequence,6_14,2023-11-20T20:30:19.874Z,,,,,,,,,,,5754.161000023829,completion,,,,,,,high,high,,,,,,,true,,,,,false,475972.2000000477,475972.10000002384,470200.923,470356.10000002384,470217.939,475834.458,1,40,,
trial,html.Screen,6_15_0,2023-11-20T20:30:22.642Z,,,,1,-0.948927472020595,1.0660437155921598,,,true,hl,2905.3420000715414,response,1.331700944308701,1.2,-1.2,-0.9395196143259436,1.2,-1.2,high,low,,ISIC_5808758.JPG,,ISIC_1668831.JPG,,26,true,0.3600000000000002,hl,keypress(j),0,false,478739.89999997616,478739.8000000715,475818.04,475972.3000000715,475834.458,478601.101,1,40,16,
sequence,flow.Sequence,6_15,2023-11-20T20:30:22.642Z,,,,,,,,,,,2905.3420000715414,completion,,,,,,,high,low,,,,,,,true,,,,,false,478740,478739.8000000715,475818.04,475972.2000000477,475834.458,478601.101,1,40,,
trial,html.Screen,6_16_0,2023-11-20T20:30:27.138Z,,,,1,1.0865333402803938,-1.0542635307358266,,,true,lh,4634.398999999976,response,-0.8035152873995188,1.2,-1.2,0.82868450251632,1.2,-1.2,low,high,,ISIC_0034006.JPG,,ISIC_0010671.JPG,,27,true,0.42000000000000026,lh,keypress(e),0,false,483235.60000002384,483235.5,478584.548,478740.10000002384,478601.101,483101.286,1,40,17,
sequence,flow.Sequence,6_16,2023-11-20T20:30:27.138Z,,,,,,,,,,,4634.398999999976,completion,,,,,,,low,high,,,,,,,true,,,,,false,483235.7000000477,483235.5,478584.548,478740.10000002384,478601.101,483101.286,1,40,,
trial,html.Screen,6_17_0,2023-11-20T20:30:30.034Z,,,,1,1.2724584600905462,1.1411016103695344,,,true,ll,3030.713999999978,response,-0.9342143229318964,1.2,-1.2,-1.195482218669593,1.2,-1.2,low,low,,ISIC_0059625.JPG,,ISIC_8073555.JPG,,245,true,0.3600000000000002,ll,keypress(f),0,false,486132.10000002384,486132,483084.31,483235.8000000715,483101.286,486001.123,1,40,18,
sequence,flow.Sequence,6_17,2023-11-20T20:30:30.034Z,,,,,,,,,,,3030.713999999978,completion,,,,,,,low,low,,,,,,,true,,,,,false,486132.2000000477,486132,483084.31,483235.7000000477,483101.286,486001.123,1,40,,
trial,html.Screen,6_18_0,2023-11-20T20:30:34.130Z,,,,1,-1.101214461533281,-1.1849883512428183,,,true,hh,4226.47700002382,response,1.131522954199764,1.2,-1.2,1.1047184491749509,1.2,-1.2,high,high,,ISIC_0064943.JPG,,ISIC_1868816.JPG,,26,true,0.15000000000000002,hh,keypress(i),0,false,490227.7000000477,490227.60000002384,485984.534,486132.3000000715,486001.123,490084.416,1,40,19,
sequence,flow.Sequence,6_18,2023-11-20T20:30:34.130Z,,,,,,,,,,,4226.47700002382,completion,,,,,,,high,high,,,,,,,true,,,,,false,490227.8000000715,490227.60000002384,485984.534,486132.3000000715,486001.123,490084.416,1,40,,
trial,html.Screen,6_19_0,2023-11-20T20:30:41.650Z,,,,1,1.1642596483638106,1.109799097093339,,,true,ll,7663.0839999999735,response,-1.1253220985777015,1.2,-1.2,-1.108725659461368,1.2,-1.2,low,low,,ISIC_0765584.JPG,,ISIC_0054954.JPG,,30,true,0.1,ll,keypress(f),0,false,497747.7000000477,497747.5,490067.897,490227.8000000715,490084.416,497618.006,1,40,20,
sequence,flow.Sequence,6_19,2023-11-20T20:30:41.650Z,,,,,,,,,,,7663.0839999999735,completion,,,,,,,low,low,,,,,,,true,,,,,false,497747.8000000715,497747.5,490067.897,490227.8000000715,490084.416,497618.006,1,40,,
trial,html.Screen,6_20_0,2023-11-20T20:30:45.458Z,,,,1,-1.126264390089724,-1.271896565050952,,,true,hh,3937.994000000006,response,1.2503149164557643,1.2,-1.2,1.0796591227570405,1.2,-1.2,high,high,,ISIC_1520897.JPG,,ISIC_2466892.JPG,,26,true,0.15000000000000002,hh,keypress(i),0,false,501556.10000002384,501556,497600.945,497747.8000000715,497618.006,501417.727,1,40,21,
sequence,flow.Sequence,6_20,2023-11-20T20:30:45.458Z,,,,,,,,,,,3937.994000000006,completion,,,,,,,high,high,,,,,,,true,,,,,false,501556.2000000477,501556,497600.945,497747.8000000715,497618.006,501417.727,1,40,,
trial,html.Screen,6_21_0,2023-11-20T20:30:47.186Z,,,,1,-0.8200962008791046,0.7936051642828523,,,true,hl,1866.2729999999865,response,1.0143509683988825,1.2,-1.2,-1.3163955902021656,1.2,-1.2,high,low,,ISIC_0027031.JPG,,ISIC_0062031.JPG,,26,true,0.3600000000000002,hl,keypress(j),0,false,503284,503284,501401.179,501556.39999997616,501417.727,503151.117,1,40,22,
sequence,flow.Sequence,6_21,2023-11-20T20:30:47.186Z,,,,,,,,,,,1866.2729999999865,completion,,,,,,,high,low,,,,,,,true,,,,,false,503284.10000002384,503284,501401.179,501556.3000000715,501417.727,503151.117,1,40,,
trial,html.Screen,6_22_0,2023-11-20T20:30:53.410Z,,,,1,1.2503149164557643,1.0796591227570405,,,true,ll,6356.683000071498,response,-0.8471355550006346,1.2,-1.2,-0.8721011160837115,1.2,-1.2,low,low,,ISIC_2466892.JPG,,ISIC_0025744.JPG,,339,true,0.42000000000000026,ll,keypress(f),0,false,509507.89999997616,509507.8000000715,503134.725,503284.2000000477,503151.117,509367.73,1,40,23,
sequence,flow.Sequence,6_22,2023-11-20T20:30:53.410Z,,,,,,,,,,,6356.683000071498,completion,,,,,,,low,low,,,,,,,true,,,,,false,509508,509507.8000000715,503134.725,503284.10000002384,503151.117,509367.73,1,40,,
trial,html.Screen,6_23_0,2023-11-20T20:31:04.594Z,,,,1,1.020990671779317,-1.0116513850520903,,,true,lh,11324.070000071544,response,-1.276222161935671,1.2,-1.2,0.9657780821973284,1.2,-1.2,low,high,,ISIC_0011995.JPG,,ISIC_6710411.JPG,,27,true,0.42000000000000026,lh,keypress(e),0,false,520691.89999997616,520691.8000000715,509351.166,509508.10000002384,509367.73,520551.054,1,40,24,
sequence,flow.Sequence,6_23,2023-11-20T20:31:04.594Z,,,,,,,,,,,11324.070000071544,completion,,,,,,,low,high,,,,,,,true,,,,,false,520692,520691.8000000715,509351.166,509508.10000002384,509367.73,520551.054,1,40,,
trial,html.Screen,6_24_0,2023-11-20T20:31:19.922Z,,,,1,1.0026266089287914,-1.0913275913920335,,,true,lh,15468.845999976154,response,-1.0264463986917702,1.2,-1.2,1.2804054832904397,1.2,-1.2,low,high,,ISIC_0033520.JPG,,ISIC_7889838.JPG,,27,true,0.42000000000000026,lh,keypress(e),0,false,536020,536019.8999999762,520534.446,520692.10000002384,520551.054,535884.44,1,40,25,
sequence,flow.Sequence,6_24,2023-11-20T20:31:19.922Z,,,,,,,,,,,15468.845999976154,completion,,,,,,,low,high,,,,,,,true,,,,,false,536020.1000000238,536019.8999999762,520534.446,520692.10000002384,520551.054,535884.44,1,40,,
trial,html.Screen,6_25_0,2023-11-20T20:31:26.387Z,,,,1,-1.2282561398079586,-1.210457198775374,,,true,hh,6600.560000000056,response,0.953802353776362,1.2,-1.2,0.927101493584587,1.2,-1.2,high,high,,ISIC_9141817.JPG,,ISIC_9751601.JPG,,179,true,0.3600000000000002,hh,keypress(i),0,false,542485.1000000238,542485,535867.134,536020.1000000238,535884.44,542351.02,1,40,26,
sequence,flow.Sequence,6_25,2023-11-20T20:31:26.388Z,,,,,,,,,,,6600.560000000056,completion,,,,,,,high,high,,,,,,,true,,,,,false,542485.2000000477,542485,535867.134,536020.1000000238,535884.44,542351.02,1,40,,
trial,html.Screen,6_26_0,2023-11-20T20:31:38.834Z,,,,1,1.1181734135756094,-0.944560381774994,,,true,lh,12580.87999997614,response,-1.0115965332688306,1.2,-1.2,0.8282633603842442,1.2,-1.2,low,high,,ISIC_9688534.JPG,,ISIC_1069587.JPG,,27,true,0.42000000000000026,lh,keypress(e),0,false,554932,554931.8999999762,542334.334,542485.2000000477,542351.02,554801.174,1,40,27,
sequence,flow.Sequence,6_26,2023-11-20T20:31:38.834Z,,,,,,,,,,,12580.87999997614,completion,,,,,,,low,high,,,,,,,true,,,,,false,554932.1000000238,554931.8999999762,542334.334,542485.2000000477,542351.02,554801.174,1,40,,
trial,html.Screen,6_27_0,2023-11-20T20:31:43.090Z,,,,1,-1.2952503640839694,-1.107234527385344,,,true,hh,4386.826000000001,response,0.9775292052543314,1.2,-1.2,1.416374477459548,1.2,-1.2,high,high,,ISIC_0034134.JPG,,ISIC_0012681.JPG,,179,true,0.3600000000000002,hh,keypress(i),0,false,559188.1000000238,559188,554784.363,554932.2000000477,554801.174,559051.125,1,40,28,
sequence,flow.Sequence,6_27,2023-11-20T20:31:43.091Z,,,,,,,,,,,4386.826000000001,completion,,,,,,,high,high,,,,,,,true,,,,,false,559188.2000000477,559188,554784.363,554932.2000000477,554801.174,559051.125,1,40,,
trial,html.Screen,6_28_0,2023-11-20T20:31:44.578Z,,,,1,1.1653123206802332,1.2976858999596654,,,true,ll,1624.7749999761581,response,-1.1033977063872138,1.2,-1.2,-1.2513071571733083,1.2,-1.2,low,low,,ISIC_0071508.JPG,,ISIC_0025472.JPG,,30,true,0.1,ll,keypress(f),0,false,560676,560675.8999999762,559034.353,559188.3000000715,559051.125,560534.333,1,40,29,
sequence,flow.Sequence,6_28,2023-11-20T20:31:44.578Z,,,,,,,,,,,1624.7749999761581,completion,,,,,,,low,low,,,,,,,true,,,,,false,560676.1000000238,560675.8999999762,559034.353,559188.2000000477,559051.125,560534.333,1,40,,
trial,html.Screen,6_29_0,2023-11-20T20:31:48.418Z,,,,1,-0.9235571765207048,1.0008081653938232,,,true,hl,3981.566999976174,response,0.9433720631499012,1.2,-1.2,-1.0582071940347648,1.2,-1.2,high,low,,ISIC_8796632.JPG,,ISIC_4890201.JPG,,26,true,0.3600000000000002,hl,keypress(j),0,false,564516,564515.8999999762,560517.869,560676.1000000238,560534.333,564384.555,1,40,30,
sequence,flow.Sequence,6_29,2023-11-20T20:31:48.419Z,,,,,,,,,,,3981.566999976174,completion,,,,,,,high,low,,,,,,,true,,,,,false,564516.1000000238,564515.8999999762,560517.869,560676.1000000238,560534.333,564384.555,1,40,,
trial,html.Screen,6_30_0,2023-11-20T20:31:51.506Z,,,,1,-1.2915523362516486,-1.1264977790562936,,,true,hh,3219.344999976107,response,1.204229955025689,1.2,-1.2,1.399772623581101,1.2,-1.2,high,high,,ISIC_0502582.JPG,,ISIC_0056930.JPG,,253,true,0.42000000000000026,hh,keypress(i),0,false,567604.1000000238,567603.8999999762,564367.828,564516.2000000477,564384.555,567467.763,1,40,31,
sequence,flow.Sequence,6_30,2023-11-20T20:31:51.506Z,,,,,,,,,,,3219.344999976107,completion,,,,,,,high,high,,,,,,,true,,,,,false,567604.1000000238,567603.8999999762,564367.828,564516.2000000477,564384.555,567467.763,1,40,,
trial,html.Screen,6_31_0,2023-11-20T20:31:58.594Z,,,,1,1.241406480986552,1.081912821786771,,,true,ll,7223.736999999965,response,-1.101346104814838,1.2,-1.2,-1.1225813067473052,1.2,-1.2,low,low,,ISIC_4223155.JPG,,ISIC_8175453.JPG,,30,true,0.1,ll,keypress(f),0,false,574691.6000000238,574691.5,567451.108,567604.1000000238,567467.763,574550.957,1,40,32,
sequence,flow.Sequence,6_31,2023-11-20T20:31:58.594Z,,,,,,,,,,,7223.736999999965,completion,,,,,,,low,low,,,,,,,true,,,,,false,574691.7000000477,574691.5,567451.108,567604.1000000238,567467.763,574550.957,1,40,,
trial,html.Screen,6_32_0,2023-11-20T20:32:01.730Z,,,,1,-1.0164576835546473,0.8120626538423016,,,true,hl,3276.7430000476306,response,1.2075172235545184,1.2,-1.2,-0.9116724966267612,1.2,-1.2,high,low,,ISIC_6002694.JPG,,ISIC_0024235.JPG,,26,true,0.3600000000000002,hl,keypress(j),0,false,577827.8000000715,577827.7000000477,574534.189,574691.7000000477,574550.957,577684.32,1,40,33,
sequence,flow.Sequence,6_32,2023-11-20T20:32:01.730Z,,,,,,,,,,,3276.7430000476306,completion,,,,,,,high,low,,,,,,,true,,,,,false,577827.8000000715,577827.7000000477,574534.189,574691.7000000477,574550.957,577684.32,1,40,,
trial,html.Screen,6_33_0,2023-11-20T20:32:08.898Z,,,,1,-1.0022829373011404,0.8311726972863814,,,true,hl,7311.480000071577,response,0.9696118525781644,1.2,-1.2,-0.9244148283103414,1.2,-1.2,high,low,,ISIC_0033287.JPG,,ISIC_7927525.JPG,,33,true,0.42000000000000026,hl,keypress(j),0,false,584995.8999999762,584995.8000000715,577667.63,577827.8000000715,577684.32,584868.162,1,40,34,
sequence,flow.Sequence,6_33,2023-11-20T20:32:08.899Z,,,,,,,,,,,7311.480000071577,completion,,,,,,,high,low,,,,,,,true,,,,,false,584996,584995.8000000715,577667.63,577827.8000000715,577684.32,584868.162,1,40,,
trial,html.Screen,6_34_0,2023-11-20T20:32:21.203Z,,,,1,0.879102500583965,-1.0933081951979773,,,true,lh,12431.93800002383,response,-0.9388660854518424,1.2,-1.2,0.79533948698576,1.2,-1.2,low,high,,ISIC_0046223.JPG,,ISIC_9291926.JPG,,27,true,0.42000000000000026,lh,keypress(e),0,false,597300.2000000477,597300.1000000238,584834.373,584996,584868.162,597167.856,1,40,35,
sequence,flow.Sequence,6_34,2023-11-20T20:32:21.203Z,,,,,,,,,,,12431.93800002383,completion,,,,,,,low,high,,,,,,,true,,,,,false,597300.2000000477,597300.1000000238,584834.373,584996,584868.162,597167.856,1,40,,
trial,html.Screen,6_35_0,2023-11-20T20:32:27.234Z,,,,1,1.1137763092539212,1.1599906701455132,,,true,ll,6163.944000071497,response,-1.24994064298842,1.2,-1.2,-0.8554516937538746,1.2,-1.2,low,low,,ISIC_5413788.JPG,,ISIC_0061829.JPG,,245,true,0.3600000000000002,ll,keypress(f),0,false,603331.8999999762,603331.8000000715,597150.723,597300.3000000715,597167.856,603200.971,1,40,36,
sequence,flow.Sequence,6_35,2023-11-20T20:32:27.235Z,,,,,,,,,,,6163.944000071497,completion,,,,,,,low,low,,,,,,,true,,,,,false,603332,603331.8000000715,597150.723,597300.3000000715,597167.856,603200.971,1,40,,
trial,html.Screen,6_36_0,2023-11-20T20:32:28.979Z,,,,1,0.9579209317488,-1.0147487101263497,,,true,lh,1875.0289999999804,response,-1.0022829373011404,1.2,-1.2,0.8311726972863814,1.2,-1.2,low,high,,ISIC_8124482.JPG,,ISIC_0033287.JPG,,27,true,0.42000000000000026,lh,keypress(e),0,false,605076,605076,603184.569,603332.1000000238,603200.971,604934.283,1,40,37,
sequence,flow.Sequence,6_36,2023-11-20T20:32:28.979Z,,,,,,,,,,,1875.0289999999804,completion,,,,,,,low,high,,,,,,,true,,,,,false,605076.1000000238,605076,603184.569,603332.1000000238,603200.971,604934.283,1,40,,
trial,html.Screen,6_37_0,2023-11-20T20:32:35.891Z,,,,1,-0.948927472020595,1.0660437155921598,,,true,hl,7053.616999976104,response,1.011737552725394,1.2,-1.2,-0.8500530224490773,1.2,-1.2,high,low,,ISIC_5808758.JPG,,ISIC_2998367.JPG,,26,true,0.3600000000000002,hl,keypress(j),0,false,611988,611987.8999999762,604917.865,605076.2000000477,604934.283,611851.08,1,40,38,
sequence,flow.Sequence,6_37,2023-11-20T20:32:35.891Z,,,,,,,,,,,7053.616999976104,completion,,,,,,,high,low,,,,,,,true,,,,,false,611988.1000000238,611987.8999999762,604917.865,605076.2000000477,604934.283,611851.08,1,40,,
trial,html.Screen,6_38_0,2023-11-20T20:32:37.330Z,,,,1,1.1642596483638106,1.109799097093339,,,true,ll,1576.7200000715675,response,-1.5702813729098637,1.2,-1.2,-0.9212652806192184,1.2,-1.2,low,low,,ISIC_0765584.JPG,,ISIC_1247683.JPG,,339,true,0.42000000000000026,ll,keypress(f),0,false,613427.8999999762,613427.8000000715,611834.23,611988.1000000238,611851.08,613284.276,1,40,39,
sequence,flow.Sequence,6_38,2023-11-20T20:32:37.331Z,,,,,,,,,,,1576.7200000715675,completion,,,,,,,low,low,,,,,,,true,,,,,false,613428,613427.8000000715,611834.23,611988.1000000238,611851.08,613284.276,1,40,,
trial,html.Screen,6_39_0,2023-11-20T20:32:39.731Z,,,,1,-1.156827121261563,-1.2544342720917778,,,true,hh,2543.8240000238875,response,1.2724584600905462,1.2,-1.2,1.1411016103695344,1.2,-1.2,high,high,,ISIC_0060397.JPG,,ISIC_0059625.JPG,,26,true,0.15000000000000002,hh,keypress(i),0,false,615828.1000000238,615828.1000000238,613267.764,613428,613284.276,615684.272,1,40,40,
sequence,flow.Sequence,6_39,2023-11-20T20:32:39.731Z,,,,,,,,,,,2543.8240000238875,completion,,,,,,,high,high,,,,,,,true,,,,,false,615828.3000000715,615828.1000000238,613267.764,613428,613284.276,615684.272,1,40,,
practice_loop,flow.Loop,6,2023-11-20T20:32:39.731Z,,,,,,,,,,,277643.4710000238,completion,,,,,,,,,,,,,,,true,,,,,false,615828.3999999762,615828.1000000238,338167.962,338313.3000000715,338184.629,615684.272,1,40,,
stair_instructions,html.Screen,7,2023-11-20T20:32:44.146Z,,,,,,,,,,,4558.028000071528,response,,,,,,,,,,,,,,,,,continue,click button,,,620242.8999999762,620242.3000000715,615667.824,615828.3999999762,615684.272,620100.941,,,,
trial,html.Screen,8_0_0,2023-11-20T20:32:56.742Z,,,,2,0.0188047466661863,-0.0288346930436979,,0.05,false,ll,12737.958999976167,response,-1.247270138097585,1.2,-1.2,-1.1704704713504994,1.2,-1.2,low,low,,ISIC_0014157.JPG,,ISIC_0065774.JPG,33,30,false,0.1,hh,keypress(i),0,true,632839,632838.8999999762,620084.474,620243.1000000238,620100.941,632717.61,1,40,1,
sequence,flow.Sequence,8_0,2023-11-20T20:32:56.742Z,,,,,,,,,,,12737.958999976167,completion,,,,,,,low,low,,,,,,,false,,,,,true,632839.1000000238,632838.8999999762,620084.474,620243,620100.941,632717.61,1,40,,
trial,html.Screen,8_1_0,2023-11-20T20:33:06.355Z,,,,2,-0.0450282431170921,0,,0.05,false,hh,9734.19000007154,response,1.0959058628476686,1.15,-1.2,1.1684835186766898,1.15,-1.2,high,high,,ISIC_1805163.JPG,,ISIC_5920470.JPG,33,30,false,0.13,lh,keypress(e),0,true,642451.8999999762,642451.8000000715,632701.061,632839.2000000477,632717.61,642317.571,1,40,2,
sequence,flow.Sequence,8_1,2023-11-20T20:33:06.355Z,,,,,,,,,,,9734.19000007154,completion,,,,,,,high,high,,,,,,,false,,,,,true,642452,642451.8000000715,632701.061,632839.2000000477,632717.61,642317.571,1,40,,
trial,html.Screen,8_2_0,2023-11-20T20:33:22.350Z,,,,2,-0.0329095507339554,0.0382899749693245,,0.05,,,16016.849000000046,timeout,-1.276222161935671,1.15,-1.15,0.9657780821973284,1.15,-1.15,low,high,,ISIC_8812781.JPG,,ISIC_6710411.JPG,33,27,false,0.3700000000000002,,,0,true,658447.3000000715,658447.2000000477,642300.796,642452.1000000238,642317.571,658334.42,1,40,3,
sequence,flow.Sequence,8_2,2023-11-20T20:33:22.350Z,,,,,,,,,,,16129.629000047687,completion,,,,,,,low,high,,,,,,,false,,,,,true,658447.3000000715,658447.2000000477,642300.796,642452.1000000238,642317.571,658334.42,1,40,,
trial,html.Screen,8_3_0,2023-11-20T20:33:28.021Z,,,,2,0.0188047466661863,-0.0288346930436979,,0.05,true,hh,5783.380000071484,response,1.241406480986552,1.15,-1.15,1.081912821786771,1.15,-1.15,high,high,,ISIC_0014157.JPG,,ISIC_4223155.JPG,33,30,false,0.13,hh,keypress(i),0,true,664117.8999999762,664117.8000000715,658317.815,658447.3999999762,658334.42,663984.214,1,40,4,
sequence,flow.Sequence,8_3,2023-11-20T20:33:28.021Z,,,,,,,,,,,5783.380000071484,completion,,,,,,,high,high,,,,,,,false,,,,,true,664118.1000000238,664117.8000000715,658317.815,658447.3000000715,658334.42,663984.214,1,40,,
trial,html.Screen,8_4_0,2023-11-20T20:33:44.017Z,,,,2,-0.007397293189458,-0.0174716772037504,,0.05,,,16016.836999999941,timeout,-1.0122398223568725,1.15,-1.15,0.7505228537454216,1.1116596513866615,-1.15,low,high,,ISIC_0056226.JPG,,ISIC_0033802.JPG,33,29,false,0.3700000000000002,,,0,true,680113.8000000715,680113.7000000477,663967.362,664118.1000000238,663984.214,680001.051,1,40,5,
sequence,flow.Sequence,8_4,2023-11-20T20:33:44.017Z,,,,,,,,,,,16129.486000047647,completion,,,,,,,low,high,,,,,,,false,,,,,true,680113.8999999762,680113.7000000477,663967.362,664118.1000000238,663984.214,680001.051,1,40,,
trial,html.Screen,8_5_0,2023-11-20T20:33:48.531Z,,,,2,0.0113873532168551,0.0054999201556291,,0.05,true,ll,4626.8489999761805,response,-1.2015106101917423,1.15,-1.15,-1.071085024260525,1.1116596513866615,-1.15,low,low,,ISIC_8812621.JPG,,ISIC_0072496.JPG,33,27,false,0.1,ll,keypress(f),0,true,684628.1000000238,684627.8999999762,679984.38,680114,680001.051,684484.192,1,40,6,
sequence,flow.Sequence,8_5,2023-11-20T20:33:48.531Z,,,,,,,,,,,4626.8489999761805,completion,,,,,,,low,low,,,,,,,false,,,,,true,684628.2000000477,684627.8999999762,679984.38,680114,680001.051,684484.192,1,40,,
trial,html.Screen,8_6_0,2023-11-20T20:33:56.915Z,,,,2,0,0.0264544974620926,,0.05,false,lh,8527.707999976119,response,-0.8092423703106274,1.15,-1.15,1.1870093485714288,1.1116596513866615,-1.15,low,high,,ISIC_0056991.JPG,,ISIC_8592235.JPG,33,29,false,0.3700000000000002,hh,keypress(i),0,true,693012,693011.8999999762,684467.65,684628.2000000477,684484.192,692884.725,1,40,7,
sequence,flow.Sequence,8_6,2023-11-20T20:33:56.915Z,,,,,,,,,,,8527.707999976119,completion,,,,,,,low,high,,,,,,,false,,,,,true,693012.2000000477,693011.8999999762,684467.65,684628.2000000477,684484.192,692884.725,1,40,,
trial,html.Screen,8_7_0,2023-11-20T20:34:00.371Z,,,,2,-0.0363437082783146,-0.0333332186217051,,0.05,true,hh,3583.2750000000233,response,1.09666761087476,1.15,-1.15,1.1072126870290426,1.1116596513866615,-1.15,high,high,,ISIC_3314555.JPG,,ISIC_0071754.JPG,33,26,false,0.11,hh,keypress(i),0,true,696468.1000000238,696468,692850.754,693012.2000000477,692884.725,696334.437,1,40,8,
sequence,flow.Sequence,8_7,2023-11-20T20:34:00.371Z,,,,,,,,,,,3583.2750000000233,completion,,,,,,,high,high,,,,,,,false,,,,,true,696468.2000000477,696468,692850.754,693012.2000000477,692884.725,696334.437,1,40,,
trial,html.Screen,8_8_0,2023-11-20T20:34:11.523Z,,,,2,0.0409338693593207,-0.0072462710499874,,0.05,false,hh,11285.26300004765,response,1.0789197754694622,1.0971110178002357,-1.15,1.1654690806750023,1.0971110178002357,-1.15,high,high,,ISIC_3608788.JPG,,ISIC_1576437.JPG,33,30,false,0.11,lh,keypress(e),0,true,707619.8000000715,707619.7000000477,696317.691,696468.2000000477,696334.437,707484.338,1,40,9,
sequence,flow.Sequence,8_8,2023-11-20T20:34:11.523Z,,,,,,,,,,,11285.26300004765,completion,,,,,,,high,high,,,,,,,false,,,,,true,707620,707619.7000000477,696317.691,696468.2000000477,696334.437,707484.338,1,40,,
trial,html.Screen,8_9_0,2023-11-20T20:34:13.890Z,,,,2,-0.0217698886732706,0.0410870915161425,,0.05,true,hh,2503.0619999761693,response,1.1210325063849345,1.1471110178002357,-1.15,1.1498648320956202,1.0971110178002357,-1.15,high,high,,ISIC_0072173.JPG,,ISIC_0032162.JPG,33,25,false,0.1,hh,keypress(i),0,true,709987.6000000238,709987.3999999762,707467.585,707620,707484.338,709850.819,1,40,10,
sequence,flow.Sequence,8_9,2023-11-20T20:34:13.891Z,,,,,,,,,,,2503.0619999761693,completion,,,,,,,high,high,,,,,,,false,,,,,true,709987.6000000238,709987.3999999762,707467.585,707620,707484.338,709850.819,1,40,,
trial,html.Screen,8_10_0,2023-11-20T20:34:26.243Z,,,,2,-0.0070725527271049,-0.0049995141077508,,0.05,true,hl,12488.981000071508,response,0.879102500583965,1.1471110178002357,-1.15,-1.0933081951979773,1.0854486692402772,-1.15,high,low,,ISIC_6124481.JPG,,ISIC_0046223.JPG,33,25,false,0.30000000000000016,hl,keypress(j),0,true,722339.8999999762,722339.8000000715,709834.116,709987.7000000477,709850.819,722200.82,1,40,11,
sequence,flow.Sequence,8_10,2023-11-20T20:34:26.243Z,,,,,,,,,,,12488.981000071508,completion,,,,,,,high,low,,,,,,,false,,,,,true,722340,722339.8000000715,709834.116,709987.7000000477,709850.819,722200.82,1,40,,
trial,html.Screen,8_11_0,2023-11-20T20:34:30.242Z,,,,2,0.0245376145053177,-0.0436993426328401,,0.05,true,ll,4138.280000023893,response,-1.2015106101917423,1.0971110178002357,-1.15,-1.071085024260525,1.0854486692402772,-1.0999999999999999,low,low,,ISIC_0056444.JPG,,ISIC_0072496.JPG,33,32,false,0.1,ll,keypress(f),0,true,726339.3000000715,726339.1000000238,722183.887,722340,722200.82,726200.802,1,40,12,
sequence,flow.Sequence,8_11,2023-11-20T20:34:30.242Z,,,,,,,,,,,4138.280000023893,completion,,,,,,,low,low,,,,,,,false,,,,,true,726339.3999999762,726339.1000000238,722183.887,722340,722200.82,726200.802,1,40,,
trial,html.Screen,8_12_0,2023-11-20T20:34:35.170Z,,,,2,0.0277178575053843,-0.0395587463147856,,0.05,true,hh,5066.4980000715,response,0.9962130178668478,1.0971110178002357,-1.15,1.0198919808587756,1.0854486692402772,-1.0999999999999999,high,high,,ISIC_0010807.JPG,,ISIC_0595080.JPG,33,30,false,0.11,hh,keypress(i),0,true,731267.3999999762,731267.3000000715,726184.309,726339.5,726200.802,731134.135,1,40,13,
sequence,flow.Sequence,8_12,2023-11-20T20:34:35.170Z,,,,,,,,,,,5066.4980000715,completion,,,,,,,high,high,,,,,,,false,,,,,true,731267.5,731267.3000000715,726184.309,726339.5,726200.802,731134.135,1,40,,
trial,html.Screen,8_13_0,2023-11-20T20:34:46.450Z,,,,2,0.013431314305098,-0.0140597582944232,,0.05,true,lh,11413.264999976149,response,-1.276222161935671,1.0971110178002357,-1.15,0.9657780821973284,1.0854486692402772,-1.0999999999999999,low,high,,ISIC_0069617.JPG,,ISIC_6710411.JPG,33,26,false,0.3600000000000002,lh,keypress(e),0,true,742547.5,742547.3999999762,731117.516,731267.6000000238,731134.135,742417.574,1,40,14,
sequence,flow.Sequence,8_13,2023-11-20T20:34:46.451Z,,,,,,,,,,,11413.264999976149,completion,,,,,,,low,high,,,,,,,false,,,,,true,742547.6000000238,742547.3999999762,731117.516,731267.6000000238,731134.135,742417.574,1,40,,
trial,html.Screen,8_14_0,2023-11-20T20:34:55.250Z,,,,2,-0.0329095507339554,0.0382899749693245,,0.05,true,lh,8929.726000071503,response,-0.8947611078712571,1.0971110178002357,-1.0999999999999999,0.8960964505004638,0.942835031528052,-1.0999999999999999,low,high,,ISIC_8812781.JPG,,ISIC_6441128.JPG,33,25,false,0.27000000000000013,lh,keypress(e),0,true,751347.3000000715,751347.3000000715,742400.625,742547.6000000238,742417.574,751217.673,1,40,15,
sequence,flow.Sequence,8_14,2023-11-20T20:34:55.250Z,,,,,,,,,,,8929.726000071503,completion,,,,,,,low,high,,,,,,,false,,,,,true,751347.5,751347.3000000715,742400.625,742547.6000000238,742417.574,751217.673,1,40,,
trial,html.Screen,8_15_0,2023-11-20T20:35:11.143Z,,,,2,-0.0389988030702649,-0.0143212271490256,,0.05,,,15883.073000000091,timeout,-1.1682648288591504,1.0971110178002357,-1.0999999999999999,-1.004142980655507,0.942835031528052,-1.0999999999999999,low,low,,ISIC_0064669.JPG,,ISIC_3936223.JPG,33,31,false,0.1,,,0,true,767239.5,767239.3999999762,751200.468,751347.6000000238,751217.673,767100.746,1,40,16,
sequence,flow.Sequence,8_15,2023-11-20T20:35:11.143Z,,,,,,,,,,,16021.726999976207,completion,,,,,,,low,low,,,,,,,false,,,,,true,767239.6000000238,767239.3999999762,751200.468,751347.5,751217.673,767100.746,1,40,,
trial,html.Screen,8_16_0,2023-11-20T20:35:18.723Z,,,,2,-0.0069555338059566,0.0310100918136373,,0.05,true,ll,7718.653999976115,response,-1.1254252603792554,1.0971110178002357,-1.0999999999999999,-1.0263116781284176,0.942835031528052,-1.0999999999999999,low,low,,ISIC_0011177.JPG,,ISIC_0032420.JPG,33,31,false,0.1,ll,keypress(f),0,true,774819.6000000238,774819.3999999762,767084.232,767239.7000000477,767100.746,774684.199,1,40,17,
sequence,flow.Sequence,8_16,2023-11-20T20:35:18.723Z,,,,,,,,,,,7718.653999976115,completion,,,,,,,low,low,,,,,,,false,,,,,true,774819.7000000477,774819.3999999762,767084.232,767239.7000000477,767100.746,774684.199,1,40,,
trial,html.Screen,8_17_0,2023-11-20T20:35:26.034Z,,,,2,0.000047919190197942736,0.0462652940855003,,0.05,true,hh,7447.001000047661,response,1.0650525146668357,1.0971110178002357,-1.0499999999999998,0.9852293825146712,0.942835031528052,-1.0499999999999998,high,high,,ISIC_0011507.JPG,,ISIC_6642608.JPG,33,39,false,0.1,hh,keypress(i),0,true,782131.3999999762,782131.2000000477,774667.383,774819.8000000715,774684.199,782000.837,1,40,18,
sequence,flow.Sequence,8_17,2023-11-20T20:35:26.035Z,,,,,,,,,,,7447.001000047661,completion,,,,,,,high,high,,,,,,,false,,,,,true,782131.3999999762,782131.2000000477,774667.383,774819.8000000715,774684.199,782000.837,1,40,,
trial,html.Screen,8_18_0,2023-11-20T20:35:36.979Z,,,,2,0.0409338693593207,-0.0072462710499874,,0.05,false,hl,11074.763000023784,response,0.7133243033950115,0.8906629165075675,-1.0499999999999998,-0.9575090175925351,0.8906629165075675,-1.0499999999999998,high,low,,ISIC_3608788.JPG,,ISIC_1369273.JPG,33,25,false,0.19000000000000006,lh,keypress(e),0,true,793075.8000000715,793075.6000000238,781983.898,782131.5,782000.837,792934.063,1,40,19,
sequence,flow.Sequence,8_18,2023-11-20T20:35:36.979Z,,,,,,,,,,,11074.763000023784,completion,,,,,,,high,low,,,,,,,false,,,,,true,793075.8000000715,793075.6000000238,781983.898,782131.5,782000.837,792934.063,1,40,,
trial,html.Screen,8_19_0,2023-11-20T20:35:47.122Z,,,,2,-0.0456515796420274,0.0273567130070961,,0.05,false,hh,10285.137000047718,response,0.9991910338212396,0.9406629165075675,-1.0499999999999998,0.9242629064104082,0.8906629165075675,-1.0999999999999999,high,high,,ISIC_0068610.JPG,,ISIC_7795549.JPG,33,44,false,0.1,hl,keypress(j),0,true,803219.3999999762,803219.2000000477,792917.224,793075.8999999762,792934.063,803084.046,1,40,20,
sequence,flow.Sequence,8_19,2023-11-20T20:35:47.123Z,,,,,,,,,,,10285.137000047718,completion,,,,,,,high,high,,,,,,,false,,,,,true,803219.3999999762,803219.2000000477,792917.224,793075.8999999762,792934.063,803084.046,1,40,,
trial,html.Screen,8_20_0,2023-11-20T20:35:53.346Z,,,,2,0.0277178575053843,-0.0395587463147856,,0.05,true,hh,6359.154000047711,response,0.9936778235464944,0.9406629165075675,-1.0499999999999998,0.9945365746760566,0.9406629165075675,-1.0999999999999999,high,high,,ISIC_0010807.JPG,,ISIC_5108076.JPG,33,43,false,0.1,hh,keypress(i),0,true,809443.3000000715,809443.2000000477,803067.483,803219.5,803084.046,809300.704,1,40,21,
sequence,flow.Sequence,8_20,2023-11-20T20:35:53.347Z,,,,,,,,,,,6359.154000047711,completion,,,,,,,high,high,,,,,,,false,,,,,true,809443.3999999762,809443.2000000477,803067.483,803219.3999999762,803084.046,809300.704,1,40,,
trial,html.Screen,8_21_0,2023-11-20T20:36:01.859Z,,,,2,-0.0456515796420274,0.0273567130070961,,0.05,false,lh,8655.096000071499,response,-1.276222161935671,0.9441071991112755,-1.0499999999999998,0.9657780821973284,0.9406629165075675,-1.0999999999999999,low,high,,ISIC_0068610.JPG,,ISIC_6710411.JPG,33,27,false,0.2500000000000001,ll,keypress(f),0,true,817955.8999999762,817955.8000000715,809283.835,809443.3999999762,809300.704,817817.428,1,40,22,
sequence,flow.Sequence,8_21,2023-11-20T20:36:01.859Z,,,,,,,,,,,8655.096000071499,completion,,,,,,,low,high,,,,,,,false,,,,,true,817956,817955.8000000715,809283.835,809443.3999999762,809300.704,817817.428,1,40,,
trial,html.Screen,8_22_0,2023-11-20T20:36:12.835Z,,,,2,-0.039728379742806,0.0228701131373768,,0.05,true,ll,11114.272000047727,response,-1.0762260610050776,0.9441071991112755,-1.0499999999999998,-1.082709423673037,0.9906629165075675,-1.0999999999999999,low,low,,ISIC_0054073.JPG,,ISIC_0058666.JPG,33,31,false,0.1,ll,keypress(f),0,true,828931.7000000477,828931.7000000477,817800.46,817956,817817.428,828800.83,1,40,23,
sequence,flow.Sequence,8_22,2023-11-20T20:36:12.835Z,,,,,,,,,,,11114.272000047727,completion,,,,,,,low,low,,,,,,,false,,,,,true,828931.8999999762,828931.7000000477,817800.46,817956,817817.428,828800.83,1,40,,
trial,html.Screen,8_23_0,2023-11-20T20:36:19.699Z,,,,2,-0.0027483411352856,-0.0100996915276271,,0.05,false,hl,6994.9700000715675,response,0.7745647318095624,0.9441071991112755,-1.0294677423390572,-1.1610302064435811,0.9906629165075675,-1.0999999999999999,high,low,,ISIC_7364041.JPG,,ISIC_0033004.JPG,33,25,false,0.22000000000000008,hh,keypress(i),0,true,835795.8999999762,835795.8000000715,828783.784,828931.8999999762,828800.83,835667.438,1,40,24,
sequence,flow.Sequence,8_23,2023-11-20T20:36:19.699Z,,,,,,,,,,,6994.9700000715675,completion,,,,,,,high,low,,,,,,,false,,,,,true,835796,835795.8000000715,828783.784,828931.8999999762,828800.83,835667.438,1,40,,
trial,html.Screen,8_24_0,2023-11-20T20:36:26.595Z,,,,2,0.0362376068089956,0.047825070846155,,0.05,false,lh,7024.0620000000345,response,-0.887838744955182,0.9441071991112755,-1.0294677423390572,0.7545096650863988,0.9906629165075675,-1.15,low,high,,ISIC_6985114.JPG,,ISIC_1488727.JPG,33,27,false,0.2500000000000001,ll,keypress(f),0,true,842691.7000000477,842691.5,835650.634,835796,835667.438,842550.67,1,40,25,
sequence,flow.Sequence,8_24,2023-11-20T20:36:26.595Z,,,,,,,,,,,7024.0620000000345,completion,,,,,,,low,high,,,,,,,false,,,,,true,842691.8000000715,842691.5,835650.634,835796,835667.438,842550.67,1,40,,
trial,html.Screen,8_25_0,2023-11-20T20:36:32.051Z,,,,2,0,0.0264544974620926,,0.05,false,hl,5596.729999976116,response,1.0751036484083878,0.9441071991112755,-1.0294677423390572,-1.143906455483852,1.0406629165075676,-1.15,high,low,,ISIC_0056991.JPG,,ISIC_0064406.JPG,33,27,false,0.2400000000000001,ll,keypress(f),0,true,848147.5,848147.3999999762,842533.918,842691.8999999762,842550.67,848017.334,1,40,26,
sequence,flow.Sequence,8_25,2023-11-20T20:36:32.051Z,,,,,,,,,,,5596.729999976116,completion,,,,,,,high,low,,,,,,,false,,,,,true,848147.7000000477,848147.3999999762,842533.918,842691.8999999762,842550.67,848017.334,1,40,,
trial,html.Screen,8_26_0,2023-11-20T20:36:37.155Z,,,,2,0.0188047466661863,-0.0288346930436979,,0.05,false,hl,5234.165999999968,response,1.1181734135756094,0.9941071991112755,-1.0294677423390572,-0.944560381774994,1.0406629165075676,-1.15,high,low,,ISIC_0014157.JPG,,ISIC_9688534.JPG,33,25,false,0.2600000000000001,hh,keypress(i),0,true,853251.6000000238,853251.5,848000.725,848147.7000000477,848017.334,853117.312,1,40,27,
sequence,flow.Sequence,8_26,2023-11-20T20:36:37.155Z,,,,,,,,,,,5234.165999999968,completion,,,,,,,high,low,,,,,,,false,,,,,true,853251.7000000477,853251.5,848000.725,848147.7000000477,848017.334,853117.312,1,40,,
trial,html.Screen,8_27_0,2023-11-20T20:36:43.859Z,,,,2,0.000047919190197942736,0.0462652940855003,,0.05,false,lh,6838.1879999999655,response,-0.8200962008791046,0.9941071991112755,-1.0294677423390572,0.7936051642828523,1.0406629165075676,-1.15,low,high,,ISIC_0011507.JPG,,ISIC_0027031.JPG,33,25,false,0.2500000000000001,hh,keypress(i),0,true,859955.7000000477,859955.5,853100.642,853251.7000000477,853117.312,859817.32,1,40,28,
sequence,flow.Sequence,8_27,2023-11-20T20:36:43.859Z,,,,,,,,,,,6838.1879999999655,completion,,,,,,,low,high,,,,,,,false,,,,,true,859955.8000000715,859955.5,853100.642,853251.7000000477,853117.312,859817.32,1,40,,
trial,html.Screen,8_28_0,2023-11-20T20:36:48.195Z,,,,2,0,0.0264544974620926,,0.05,true,ll,4473.780000023893,response,-1.156827121261563,0.9941071991112755,-1.0794677423390573,-1.2544342720917778,1.0406629165075676,-1.15,low,low,,ISIC_0056991.JPG,,ISIC_0060397.JPG,33,31,false,0.11,ll,keypress(f),0,true,864291.2000000477,864291.1000000238,859800.877,859955.8000000715,859817.32,864150.679,1,40,29,
sequence,flow.Sequence,8_28,2023-11-20T20:36:48.195Z,,,,,,,,,,,4473.780000023893,completion,,,,,,,low,low,,,,,,,false,,,,,true,864291.3000000715,864291.1000000238,859800.877,859955.8000000715,859817.32,864150.679,1,40,,
trial,html.Screen,8_29_0,2023-11-20T20:37:02.515Z,,,,2,-0.0085520978188085,0.0464691161264081,,0.05,false,hh,14461.02100004768,response,0.9786457729523576,0.9941071991112755,-1.0794677423390573,1.1189056385517386,1.0406629165075676,-1.15,high,high,,ISIC_0758797.JPG,,ISIC_3926019.JPG,33,32,false,0.1,hl,keypress(j),0,true,878611.8000000715,878611.7000000477,864134.117,864291.3999999762,864150.679,878484.51,1,40,30,
sequence,flow.Sequence,8_29,2023-11-20T20:37:02.515Z,,,,,,,,,,,14461.02100004768,completion,,,,,,,high,high,,,,,,,false,,,,,true,878612,878611.7000000477,864134.117,864291.3999999762,864150.679,878484.51,1,40,,
trial,html.Screen,8_30_0,2023-11-20T20:37:06.883Z,,,,2,0.0245376145053177,-0.0436993426328401,,0.05,true,ll,4494.690000047674,response,-1.042261683252976,0.9441071991112755,-1.0794677423390573,-1.2304407834713986,1.0906629165075676,-1.15,low,low,,ISIC_0056444.JPG,,ISIC_0011870.JPG,33,31,false,0.11,ll,keypress(f),0,true,882979.3000000715,882979.2000000477,878450.306,878612,878484.51,882850.622,1,40,31,
sequence,flow.Sequence,8_30,2023-11-20T20:37:06.883Z,,,,,,,,,,,4494.690000047674,completion,,,,,,,low,low,,,,,,,false,,,,,true,882979.3999999762,882979.2000000477,878450.306,878612,878484.51,882850.622,1,40,,
trial,html.Screen,8_31_0,2023-11-20T20:37:14.947Z,,,,2,0.0051189696037511,-0.0396625911332438,,0.05,false,hl,8193.07800004771,response,0.7265003924540593,0.9441071991112755,-1.1924375277815882,-1.3016394336708117,1.0906629165075676,-1.1924375277815882,high,low,,ISIC_9742891.JPG,,ISIC_0027684.JPG,33,25,false,0.2500000000000001,lh,keypress(e),0,true,891043.7000000477,891043.7000000477,882834.08,882979.5,882850.622,890900.607,1,40,32,
sequence,flow.Sequence,8_31,2023-11-20T20:37:14.947Z,,,,,,,,,,,8193.07800004771,completion,,,,,,,high,low,,,,,,,false,,,,,true,891043.8999999762,891043.7000000477,882834.08,882979.5,882850.622,890900.607,1,40,,
trial,html.Screen,8_32_0,2023-11-20T20:37:30.934Z,,,,2,0.0113873532168551,0.0054999201556291,,0.05,,,16016.701000000001,timeout,-1.101214461533281,0.9941071991112755,-1.1924375277815882,-1.1849883512428183,1.0906629165075676,-1.1924375277815882,low,low,,ISIC_8812621.JPG,,ISIC_0064943.JPG,33,30,false,0.1,,,0,true,907030.2000000477,907030.1000000238,890883.951,891043.8999999762,890900.607,906917.308,1,40,33,
sequence,flow.Sequence,8_32,2023-11-20T20:37:30.934Z,,,,,,,,,,,16129.493000023882,completion,,,,,,,low,low,,,,,,,false,,,,,true,907030.3000000715,907030.1000000238,890883.951,891043.8999999762,890900.607,906917.308,1,40,,
trial,html.Screen,8_33_0,2023-11-20T20:37:42.915Z,,,,2,0.0102460616775615,-0.0309670599545429,,0.05,false,hl,12094.091999976197,response,0.7622914383475332,0.9941071991112755,-1.1924375277815882,-1.2637655821850098,1.0906629165075676,-1.1924375277815882,high,low,,ISIC_0072041.JPG,,ISIC_0032005.JPG,33,25,false,0.27000000000000013,hh,keypress(i),0,true,919011.5,919011.3999999762,906900.686,907030.3000000715,906917.308,918884.426,1,40,34,
sequence,flow.Sequence,8_33,2023-11-20T20:37:42.915Z,,,,,,,,,,,12094.091999976197,completion,,,,,,,high,low,,,,,,,false,,,,,true,919011.6000000238,919011.3999999762,906900.686,907030.3000000715,906917.308,918884.426,1,40,,
trial,html.Screen,8_34_0,2023-11-20T20:37:50.051Z,,,,2,0.0188047466661863,-0.0288346930436979,,0.05,false,ll,7262.674000023864,response,-1.2915523362516486,0.9941071991112755,-1.1924375277815882,-1.1264977790562936,1.0906629165075676,-1.1924375277815882,low,low,,ISIC_0014157.JPG,,ISIC_0502582.JPG,33,30,false,0.1,hh,keypress(i),0,true,926147.2000000477,926147.1000000238,918850.347,919011.7000000477,918884.426,926017.214,1,40,35,
sequence,flow.Sequence,8_34,2023-11-20T20:37:50.051Z,,,,,,,,,,,7262.674000023864,completion,,,,,,,low,low,,,,,,,false,,,,,true,926147.3000000715,926147.1000000238,918850.347,919011.6000000238,918884.426,926017.214,1,40,,
trial,html.Screen,8_35_0,2023-11-20T20:37:53.331Z,,,,2,-0.0107854985447517,-0.0478010417136109,,0.05,false,lh,3410.185999976122,response,-0.8200962008791046,0.9941071991112755,-1.1924375277815882,0.7936051642828523,1.0906629165075676,-1.1924375277815882,low,high,,ISIC_0010500.JPG,,ISIC_0027031.JPG,33,27,false,0.39000000000000024,hh,keypress(i),0,true,929427.5,929427.3999999762,926000.589,926147.3000000715,926017.214,929283.894,1,40,36,
sequence,flow.Sequence,8_35,2023-11-20T20:37:53.331Z,,,,,,,,,,,3410.185999976122,completion,,,,,,,low,high,,,,,,,false,,,,,true,929427.6000000238,929427.3999999762,926000.589,926147.3000000715,926017.214,929283.894,1,40,,
trial,html.Screen,8_36_0,2023-11-20T20:37:58.499Z,,,,2,0.0134764727102299,0.0033499036460912,,0.05,false,hl,5311.706000023871,response,1.0026266089287914,0.9941071991112755,-1.1924375277815882,-1.0913275913920335,1.0906629165075676,-1.1924375277815882,high,low,,ISIC_0009998.JPG,,ISIC_0033520.JPG,33,25,false,0.27000000000000013,hh,keypress(i),0,true,934595.6000000238,934595.6000000238,929267.438,929427.7000000477,929283.894,934467.453,1,40,37,
sequence,flow.Sequence,8_36,2023-11-20T20:37:58.499Z,,,,,,,,,,,5311.706000023871,completion,,,,,,,high,low,,,,,,,false,,,,,true,934595.7000000477,934595.6000000238,929267.438,929427.6000000238,929283.894,934467.453,1,40,,
trial,html.Screen,8_37_0,2023-11-20T20:38:03.939Z,,,,2,0.0409338693593207,-0.0072462710499874,,0.05,false,lh,5568.247000047704,response,-0.8816288864119318,0.8481158866058218,-1.1924375277815882,0.801867301188093,1.0906629165075676,-1.1924375277815882,low,high,,ISIC_3608788.JPG,,ISIC_9196783.JPG,33,27,false,0.39000000000000024,ll,keypress(f),0,true,940035.8000000715,940035.7000000477,934434.008,934595.8000000715,934467.453,939900.63,1,40,38,
sequence,flow.Sequence,8_37,2023-11-20T20:38:03.940Z,,,,,,,,,,,5568.247000047704,completion,,,,,,,low,high,,,,,,,false,,,,,true,940035.8999999762,940035.7000000477,934434.008,934595.7000000477,934467.453,939900.63,1,40,,
trial,html.Screen,8_38_0,2023-11-20T20:38:11.699Z,,,,2,0.0159061451859594,0.0296598845560212,,0.05,false,hl,7894.7699999761535,response,0.7265003924540593,0.8481158866058218,-1.1924375277815882,-1.3016394336708117,1.1406629165075677,-1.1924375277815882,high,low,,ISIC_0072564.JPG,,ISIC_0027684.JPG,33,27,false,0.2300000000000001,lh,keypress(e),0,true,947795.5,947795.3999999762,939883.908,940035.8999999762,939900.63,947667.552,1,40,39,
sequence,flow.Sequence,8_38,2023-11-20T20:38:11.699Z,,,,,,,,,,,7894.7699999761535,completion,,,,,,,high,low,,,,,,,false,,,,,true,947795.6000000238,947795.3999999762,939883.908,940035.8999999762,939900.63,947667.552,1,40,,
trial,html.Screen,8_39_0,2023-11-20T20:38:17.571Z,,,,2,0,0.0264544974620926,,0.05,false,hl,6000.048000023817,response,0.6762618798182235,0.8981158866058219,-1.1924375277815882,-1.067875773627714,1.1406629165075677,-1.1924375277815882,high,low,,ISIC_0056991.JPG,,ISIC_0000135.JPG,33,25,false,0.2300000000000001,ll,keypress(f),0,true,953667.7000000477,953667.6000000238,947633.884,947795.6000000238,947667.552,953534.048,1,40,40,
sequence,flow.Sequence,8_39,2023-11-20T20:38:17.572Z,,,,,,,,,,,6000.048000023817,completion,,,,,,,high,low,,,,,,,false,,,,,true,953667.8000000715,953667.6000000238,947633.884,947795.6000000238,947667.552,953534.048,1,40,,
stair_loop,flow.Loop,8,2023-11-20T20:38:17.572Z,,,,,,,,,,,333566.65900002385,completion,,,,,,,,,,,,,,,false,,,,,true,953667.8999999762,953667.6000000238,620084.474,620243,620100.941,953534.048,1,40,,
exp_instructions,html.Screen,9,2023-11-20T20:38:36.979Z,,,,,,,,,,,19540.95200000005,response,,,,,,,,,,,,,,,,,continue,keypress(Space),,,973075.3999999762,973075,953517.063,953668,953534.048,972933.822,,,,
trial,html.Screen,10_0_0,2023-11-20T20:38:49.381Z,,,,1,0.0051189696037511,-0.0396625911332438,,0.05,false,hl,12543.577999976114,response,0.8579451262594331,0.9545362881052724,-1.1133839844373379,-0.9633172970727744,1.0531629165075682,-1.1590968875017151,high,low,,ISIC_9742891.JPG,9,ISIC_0067172.JPG,33,27,false,0.2500000000000001,hh,keypress(i),0,false,985477.6000000238,985477.3999999762,972916.67,973075.5,972933.822,985333.829,5,600,1,
break,html.Screen,10_0_1,2023-11-20T20:38:49.382Z,,,,,,,,,,,NaN,,,,,,,,high,low,,,,,,,false,,,,,false,985478,985477.8999999762,,985477.6000000238,,985333.829,5,600,,
break_continue,html.Screen,10_0_2,2023-11-20T20:38:49.382Z,,,,,,,,,,,NaN,,,,,,,,high,low,,,,,,,false,,,,,false,985478.3000000715,985478.2000000477,,985478.1000000238,,985333.829,5,600,,
sequence,flow.Sequence,10_0,2023-11-20T20:38:49.382Z,,,,,,,,,,,12544.37800004764,completion,,,,,,,high,low,,,,,,,false,,,,,false,985478.3999999762,985478.2000000477,972916.67,973075.5,972933.822,985333.829,5,600,,
trial,html.Screen,10_1_0,2023-11-20T20:39:03.603Z,,,,1,0.0112310719058792,-0.0469047359904117,,0.05,false,ll,14365.670999999973,response,-1.101346104814838,0.9545362881052724,-1.1133839844373379,-1.1225813067473052,1.0531629165075682,-1.1590968875017151,low,low,,ISIC_0068184.JPG,10,ISIC_8175453.JPG,33,25,false,0.1,hh,keypress(i),0,false,999699.6000000238,999699.5,985316.773,985478.5,985333.829,999567.201,5,600,2,
break,html.Screen,10_1_1,2023-11-20T20:39:03.604Z,,,,,,,,,,,NaN,,,,,,,,low,low,,,,,,,false,,,,,false,999699.8999999762,999699.8999999762,,999699.7000000477,,999567.201,5,600,,
break_continue,html.Screen,10_1_2,2023-11-20T20:39:03.604Z,,,,,,,,,,,NaN,,,,,,,,low,low,,,,,,,false,,,,,false,999700.1000000238,999700.1000000238,,999700,,999567.201,5,600,,
sequence,flow.Sequence,10_1,2023-11-20T20:39:03.604Z,,,,,,,,,,,14366.271000023815,completion,,,,,,,low,low,,,,,,,false,,,,,false,999700.2000000477,999700.1000000238,985316.773,985478.3999999762,985333.829,999567.201,5,600,,
trial,html.Screen,10_2_0,2023-11-20T20:39:10.083Z,,,,1,0.0112310719058792,-0.0469047359904117,,0.05,false,lh,6611.999000047683,response,-1.2429840165564423,0.9545362881052724,-1.1133839844373379,0.7308963943423881,1.0531629165075682,-1.1590968875017151,low,high,,ISIC_0068184.JPG,9,ISIC_1264576.JPG,33,28,false,0.3300000000000002,ll,keypress(f),0,false,1006179.3000000715,1006179.2000000477,999550.609,999700.3000000715,999567.201,1006050.745,5,600,3,
break,html.Screen,10_2_1,2023-11-20T20:39:10.084Z,,,,,,,,,,,NaN,,,,,,,,low,high,,,,,,,false,,,,,false,1006179.6000000238,1006179.6000000238,,1006179.3999999762,,1006050.745,5,600,,
break_continue,html.Screen,10_2_2,2023-11-20T20:39:10.084Z,,,,,,,,,,,NaN,,,,,,,,low,high,,,,,,,false,,,,,false,1006179.8999999762,1006179.8000000715,,1006179.7000000477,,1006050.745,5,600,,
sequence,flow.Sequence,10_2,2023-11-20T20:39:10.084Z,,,,,,,,,,,6612.599000071525,completion,,,,,,,low,high,,,,,,,false,,,,,false,1006179.8999999762,1006179.8000000715,999550.609,999700.3000000715,999567.201,1006050.745,5,600,,
trial,html.Screen,10_3_0,2023-11-20T20:39:17.412Z,,,,1,-0.0070725527271049,-0.0049995141077508,,0.05,false,hh,7456.8550000238465,response,0.9859190680307316,0.9545362881052724,-1.1133839844373379,1.0904756837966545,1.0531629165075682,-1.1590968875017151,high,high,,ISIC_6124481.JPG,9,ISIC_0063151.JPG,33,32,false,0.1,hl,keypress(j),0,false,1013507.7000000477,1013507.6000000238,1006033.658,1006179.8999999762,1006050.745,1013367.175,5,600,4,
break,html.Screen,10_3_1,2023-11-20T20:39:17.412Z,,,,,,,,,,,NaN,,,,,,,,high,high,,,,,,,false,,,,,false,1013508,1013508,,1013507.8000000715,,1013367.175,5,600,,
break_continue,html.Screen,10_3_2,2023-11-20T20:39:17.412Z,,,,,,,,,,,NaN,,,,,,,,high,high,,,,,,,false,,,,,false,1013508.3000000715,1013508.2000000477,,1013508.1000000238,,1013367.175,5,600,,
sequence,flow.Sequence,10_3,2023-11-20T20:39:17.412Z,,,,,,,,,,,7457.455000047688,completion,,,,,,,high,high,,,,,,,false,,,,,false,1013508.3000000715,1013508.2000000477,1006033.658,1006179.8999999762,1006050.745,1013367.175,5,600,,
trial,html.Screen,10_4_0,2023-11-20T20:39:23.348Z,,,,1,-0.0389988030702649,-0.0143212271490256,,0.05,false,ll,6076.324999999953,response,-1.1783311757907324,0.9545362881052724,-1.1133839844373379,-1.0915173513546716,1.0531629165075682,-1.1590968875017151,low,low,,ISIC_0064669.JPG,9,ISIC_8241457.JPG,33,25,false,0.1,lh,keypress(e),0,false,1019443.6000000238,1019443.5,1013350.575,1013508.3000000715,1013367.175,1019300.462,5,600,5,
break,html.Screen,10_4_1,2023-11-20T20:39:23.348Z,,,,,,,,,,,NaN,,,,,,,,low,low,,,,,,,false,,,,,false,1019443.8999999762,1019443.8999999762,,1019443.7000000477,,1019300.462,5,600,,
break_continue,html.Screen,10_4_2,2023-11-20T20:39:23.348Z,,,,,,,,,,,NaN,,,,,,,,low,low,,,,,,,false,,,,,false,1019444,1019444,,1019443.8999999762,,1019300.462,5,600,,
sequence,flow.Sequence,10_4,2023-11-20T20:39:23.348Z,,,,,,,,,,,6076.824999999953,completion,,,,,,,low,low,,,,,,,false,,,,,false,1019444.2000000477,1019444,1013350.575,1013508.3000000715,1013367.175,1019300.462,5,600,,
trial,html.Screen,10_5_0,2023-11-20T20:39:34.051Z,,,,1,-0.0107854985447517,-0.0478010417136109,,0.05,false,ll,10846.9379999761,response,-1.152619213055059,0.9545362881052724,-1.1133839844373379,-1.1117876838408909,1.0531629165075682,-1.1590968875017151,low,low,,ISIC_0010500.JPG,9,ISIC_0061915.JPG,33,25,false,0.1,hh,keypress(i),0,false,1030147.3999999762,1030147.3999999762,1019283.861,1019444.2000000477,1019300.462,1030017.369,5,600,6,
break,html.Screen,10_5_1,2023-11-20T20:39:34.052Z,,,,,,,,,,,NaN,,,,,,,,low,low,,,,,,,false,,,,,false,1030147.7000000477,1030147.7000000477,,1030147.6000000238,,1030017.369,5,600,,
break_continue,html.Screen,10_5_2,2023-11-20T20:39:34.052Z,,,,,,,,,,,NaN,,,,,,,,low,low,,,,,,,false,,,,,false,1030147.8999999762,1030147.8999999762,,1030147.8999999762,,1030017.369,5,600,,
sequence,flow.Sequence,10_5,2023-11-20T20:39:34.052Z,,,,,,,,,,,10847.4379999761,completion,,,,,,,low,low,,,,,,,false,,,,,false,1030148.1000000238,1030147.8999999762,1019283.861,1019444.2000000477,1019300.462,1030017.369,5,600,,
trial,html.Screen,10_6_0,2023-11-20T20:39:43.075Z,,,,1,-0.0116094682222121,0.0258434522530318,,0.05,false,hh,9153.53099997621,response,0.8985413691921805,0.9545362881052724,-1.1133839844373379,1.1177351920180405,1.0531629165075682,-1.1590968875017151,high,high,,ISIC_9239632.JPG,8,ISIC_2805573.JPG,33,32,false,0.1,hl,keypress(j),0,false,1039171,1039170.8999999762,1030000.671,1030148.1000000238,1030017.369,1039033.862,5,600,7,
break,html.Screen,10_6_1,2023-11-20T20:39:43.075Z,,,,,,,,,,,NaN,,,,,,,,high,high,,,,,,,false,,,,,false,1039171.3000000715,1039171.3000000715,,1039171,,1039033.862,5,600,,
break_continue,html.Screen,10_6_2,2023-11-20T20:39:43.075Z,,,,,,,,,,,NaN,,,,,,,,high,high,,,,,,,false,,,,,false,1039171.5,1039171.3999999762,,1039171.3999999762,,1039033.862,5,600,,
sequence,flow.Sequence,10_6,2023-11-20T20:39:43.076Z,,,,,,,,,,,9154.03099997621,completion,,,,,,,high,high,,,,,,,false,,,,,false,1039171.6000000238,1039171.3999999762,1030000.671,1030148.1000000238,1030017.369,1039033.862,5,600,,
trial,html.Screen,10_7_0,2023-11-20T20:39:54.899Z,,,,1,-0.0363437082783146,-0.0333332186217051,,0.05,false,ll,11961.537999976194,response,-1.0762260610050776,0.9545362881052724,-1.1133839844373379,-1.082709423673037,1.0531629165075682,-1.1590968875017151,low,low,,ISIC_3314555.JPG,8,ISIC_0058666.JPG,33,25,false,0.1,lh,keypress(e),0,false,1050995.5,1050995.3999999762,1039017.064,1039171.6000000238,1039033.862,1050884.01,5,600,8,
break,html.Screen,10_7_1,2023-11-20T20:39:54.900Z,,,,,,,,,,,NaN,,,,,,,,low,low,,,,,,,false,,,,,false,1050995.8000000715,1050995.7000000477,,1050995.6000000238,,1050884.01,5,600,,
break_continue,html.Screen,10_7_2,2023-11-20T20:39:54.900Z,,,,,,,,,,,NaN,,,,,,,,low,low,,,,,,,false,,,,,false,1050996,1050995.8999999762,,1050995.8999999762,,1050884.01,5,600,,
sequence,flow.Sequence,10_7,2023-11-20T20:39:54.900Z,,,,,,,,,,,11962.037999976194,completion,,,,,,,low,low,,,,,,,false,,,,,false,1050996.1000000238,1050995.8999999762,1039017.064,1039171.6000000238,1039033.862,1050884.01,5,600,,
trial,html.Screen,10_8_0,2023-11-20T20:40:02.100Z,,,,1,-0.0050679133050021,0.0009714874637896,,0.05,false,hl,7311.389999976149,response,0.7622914383475332,0.9545362881052724,-1.1133839844373379,-1.2637655821850098,1.0531629165075682,-1.1590968875017151,high,low,,ISIC_9848743.JPG,9,ISIC_0032005.JPG,33,27,false,0.2500000000000001,hh,keypress(i),0,false,1058195.5,1058195.3999999762,1050867.351,1050996.1000000238,1050884.01,1058067.345,5,600,9,
break,html.Screen,10_8_1,2023-11-20T20:40:02.100Z,,,,,,,,,,,NaN,,,,,,,,high,low,,,,,,,false,,,,,false,1058195.8999999762,1058195.8000000715,,1058195.6000000238,,1058067.345,5,600,,
break_continue,html.Screen,10_8_2,2023-11-20T20:40:02.100Z,,,,,,,,,,,NaN,,,,,,,,high,low,,,,,,,false,,,,,false,1058196,1058196,,1058195.8999999762,,1058067.345,5,600,,
sequence,flow.Sequence,10_8,2023-11-20T20:40:02.100Z,,,,,,,,,,,7311.989999999991,completion,,,,,,,high,low,,,,,,,false,,,,,false,1058196,1058196,1050867.351,1050996.1000000238,1050884.01,1058067.345,5,600,,
trial,html.Screen,10_9_0,2023-11-20T20:40:18.101Z,,,,1,-0.0363437082783146,-0.0333332186217051,,0.05,,,16016.459999999963,timeout,1.0378929077920005,0.9545362881052724,-1.1133839844373379,1.012953297890337,1.0531629165075682,-1.1590968875017151,high,high,,ISIC_3314555.JPG,8,ISIC_0231745.JPG,33,32,false,0.1,,,0,false,1074196.7000000477,1074196.5,1058033.988,1058196.1000000238,1058067.345,1074083.805,5,600,10,
break,html.Screen,10_9_1,2023-11-20T20:40:18.101Z,,,,,,,,,,,NaN,,,,,,,,high,high,,,,,,,false,,,,,false,1074197,1074196.8999999762,,1074196.8000000715,,1074083.805,5,600,,
break_continue,html.Screen,10_9_2,2023-11-20T20:40:18.101Z,,,,,,,,,,,NaN,,,,,,,,high,high,,,,,,,false,,,,,false,1074197.2000000477,1074197.1000000238,,1074197.1000000238,,1074083.805,5,600,,
sequence,flow.Sequence,10_9,2023-11-20T20:40:18.101Z,,,,,,,,,,,16129.75500002387,completion,,,,,,,high,high,,,,,,,false,,,,,false,1074197.2000000477,1074197.1000000238,1058033.988,1058196.1000000238,1058067.345,1074083.805,5,600,,
trial,html.Screen,10_10_0,2023-11-20T20:40:27.188Z,,,,1,0.0134764727102299,0.0033499036460912,,0.05,false,lh,9199.594999976223,response,-0.796241477082623,0.9545362881052724,-1.1133839844373379,0.9017449335975743,1.0531629165075682,-1.1590968875017151,low,high,,ISIC_0009998.JPG,8,ISIC_8588033.JPG,33,28,false,0.3300000000000002,ll,keypress(f),0,false,1083283.3999999762,1083283.3999999762,1074067.113,1074197.3000000715,1074083.805,1083150.377,5,600,11,
break,html.Screen,10_10_1,2023-11-20T20:40:27.188Z,,,,,,,,,,,NaN,,,,,,,,low,high,,,,,,,false,,,,,false,1083283.8000000715,1083283.8000000715,,1083283.6000000238,,1083150.377,5,600,,
break_continue,html.Screen,10_10_2,2023-11-20T20:40:27.188Z,,,,,,,,,,,NaN,,,,,,,,low,high,,,,,,,false,,,,,false,1083284,1083284,,1083283.8000000715,,1083150.377,5,600,,
sequence,flow.Sequence,10_10,2023-11-20T20:40:27.188Z,,,,,,,,,,,9200.195000000065,completion,,,,,,,low,high,,,,,,,false,,,,,false,1083284,1083284,1074067.113,1074197.3000000715,1074083.805,1083150.377,5,600,,
trial,html.Screen,10_11_0,2023-11-20T20:40:42.883Z,,,,1,0.0348234368746005,-0.0236866303880924,,0.05,false,lh,15828.823000047589,response,-1.0164576835546473,0.9545362881052724,-1.1133839844373379,0.8120626538423016,1.0531629165075682,-1.1590968875017151,low,high,,ISIC_0011099.JPG,9,ISIC_6002694.JPG,33,28,false,0.3300000000000002,hl,keypress(j),0,false,1098979.3999999762,1098979.2000000477,1083133.715,1083284,1083150.377,1098850.569,5,600,12,
break,html.Screen,10_11_1,2023-11-20T20:40:42.884Z,,,,,,,,,,,NaN,,,,,,,,low,high,,,,,,,false,,,,,false,1098979.7000000477,1098979.6000000238,,1098979.3999999762,,1098850.569,5,600,,
break_continue,html.Screen,10_11_2,2023-11-20T20:40:42.884Z,,,,,,,,,,,NaN,,,,,,,,low,high,,,,,,,false,,,,,false,1098979.8000000715,1098979.8000000715,,1098979.7000000477,,1098850.569,5,600,,
sequence,flow.Sequence,10_11,2023-11-20T20:40:42.884Z,,,,,,,,,,,15829.42300007143,completion,,,,,,,low,high,,,,,,,false,,,,,false,1098979.8999999762,1098979.8000000715,1083133.715,1083284,1083150.377,1098850.569,5,600,,
trial,html.Screen,10_12_0,2023-11-20T20:40:48.707Z,,,,1,-0.0324770283903853,-0.0249968632204382,,0.05,true,ll,5952.231000071624,response,-1.1383813631375823,0.9545362881052724,-1.1133839844373379,-1.1319312220332556,1.0531629165075682,-1.1590968875017151,low,low,,ISIC_7266462.JPG,9,ISIC_6227397.JPG,33,25,false,0.1,ll,keypress(f),0,false,1104803,1104802.8000000715,1098833.501,1098979.8999999762,1098850.569,1104667.178,5,600,13,
break,html.Screen,10_12_1,2023-11-20T20:40:48.707Z,,,,,,,,,,,NaN,,,,,,,,low,low,,,,,,,false,,,,,false,1104803.3000000715,1104803.2000000477,,1104803.1000000238,,1104667.178,5,600,,
break_continue,html.Screen,10_12_2,2023-11-20T20:40:48.708Z,,,,,,,,,,,NaN,,,,,,,,low,low,,,,,,,false,,,,,false,1104803.6000000238,1104803.3999999762,,1104803.3000000715,,1104667.178,5,600,,
sequence,flow.Sequence,10_12,2023-11-20T20:40:48.708Z,,,,,,,,,,,5952.830999976257,completion,,,,,,,low,low,,,,,,,false,,,,,false,1104803.6000000238,1104803.3999999762,1098833.501,1098979.8999999762,1098850.569,1104667.178,5,600,,
trial,html.Screen,10_13_0,2023-11-20T20:40:55.668Z,,,,1,0.0188047466661863,-0.0288346930436979,,0.05,false,ll,7096.422000023769,response,-1.1346217981791904,0.9545362881052724,-1.1133839844373379,-1.1555132168806113,1.0531629165075682,-1.1590968875017151,low,low,,ISIC_0014157.JPG,9,ISIC_0032771.JPG,33,25,false,0.1,hh,keypress(i),0,false,1111763.8000000715,1111763.6000000238,1104650.185,1104803.6000000238,1104667.178,1111633.953,5,600,14,
break,html.Screen,10_13_1,2023-11-20T20:40:55.668Z,,,,,,,,,,,NaN,,,,,,,,low,low,,,,,,,false,,,,,false,1111764.1000000238,1111764,,1111763.8999999762,,1111633.953,5,600,,
break_continue,html.Screen,10_13_2,2023-11-20T20:40:55.668Z,,,,,,,,,,,NaN,,,,,,,,low,low,,,,,,,false,,,,,false,1111764.3000000715,1111764.3000000715,,1111764.2000000477,,1111633.953,5,600,,
sequence,flow.Sequence,10_13,2023-11-20T20:40:55.668Z,,,,,,,,,,,7097.122000071453,completion,,,,,,,low,low,,,,,,,false,,,,,false,1111764.3999999762,1111764.3000000715,1104650.185,1104803.6000000238,1104667.178,1111633.953,5,600,,
trial,html.Screen,10_14_0,2023-11-20T20:41:01.300Z,,,,1,-0.0070725527271049,-0.0049995141077508,,0.05,false,ll,5761.5470000000205,response,-1.1033977063872138,0.9545362881052724,-1.1133839844373379,-1.2513071571733083,1.0531629165075682,-1.1590968875017151,low,low,,ISIC_6124481.JPG,9,ISIC_0025472.JPG,33,25,false,0.1,hl,keypress(j),0,false,1117395.6000000238,1117395.5,1111617.352,1111764.3999999762,1111633.953,1117283.886,5,600,15,
break,html.Screen,10_14_1,2023-11-20T20:41:01.300Z,,,,,,,,,,,NaN,,,,,,,,low,low,,,,,,,false,,,,,false,1117395.8999999762,1117395.8999999762,,1117395.7000000477,,1117283.886,5,600,,
break_continue,html.Screen,10_14_2,2023-11-20T20:41:01.300Z,,,,,,,,,,,NaN,,,,,,,,low,low,,,,,,,false,,,,,false,1117396.1000000238,1117396,,1117396,,1117283.886,5,600,,
sequence,flow.Sequence,10_14,2023-11-20T20:41:01.300Z,,,,,,,,,,,5762.0470000000205,completion,,,,,,,low,low,,,,,,,false,,,,,false,1117396.2000000477,1117396,1111617.352,1111764.3999999762,1111633.953,1117283.886,5,600,,
trial,html.Screen,10_15_0,2023-11-20T20:41:11.636Z,,,,1,-0.0107854985447517,-0.0478010417136109,,0.05,true,ll,10447.414000071585,response,-1.0215600067367807,0.9545362881052724,-1.1133839844373379,-1.1866489745604327,1.0531629165075682,-1.1590968875017151,low,low,,ISIC_0010500.JPG,10,ISIC_0000173.JPG,33,25,false,0.1,ll,keypress(f),0,false,1127731.3999999762,1127731.3000000715,1117267.126,1117396.2000000477,1117283.886,1127600.545,5,600,16,
break,html.Screen,10_15_1,2023-11-20T20:41:11.636Z,,,,,,,,,,,NaN,,,,,,,,low,low,,,,,,,false,,,,,false,1127731.8000000715,1127731.7000000477,,1127731.5,,1127600.545,5,600,,
break_continue,html.Screen,10_15_2,2023-11-20T20:41:11.636Z,,,,,,,,,,,NaN,,,,,,,,low,low,,,,,,,false,,,,,false,1127732.1000000238,1127732,,1127731.8999999762,,1127600.545,5,600,,
sequence,flow.Sequence,10_15,2023-11-20T20:41:11.636Z,,,,,,,,,,,10448.11400000006,completion,,,,,,,low,low,,,,,,,false,,,,,false,1127732.1000000238,1127732,1117267.126,1117396.2000000477,1117283.886,1127600.545,5,600,,
trial,html.Screen,10_16_0,2023-11-20T20:41:16.371Z,,,,1,-0.0389988030702649,-0.0143212271490256,,0.05,true,ll,4866.4550000000745,response,-1.188743606919222,0.9545362881052724,-1.1133839844373379,-1.0980226451001782,1.0531629165075682,-1.1590968875017151,low,low,,ISIC_0064669.JPG,9,ISIC_0060481.JPG,33,25,false,0.1,ll,keypress(f),0,false,1132467.1000000238,1132467,1127583.916,1127732.1000000238,1127600.545,1132333.663,5,600,17,
break,html.Screen,10_16_1,2023-11-20T20:41:16.372Z,,,,,,,,,,,NaN,,,,,,,,low,low,,,,,,,false,,,,,false,1132467.5,1132467.5,,1132467.3000000715,,1132333.663,5,600,,
break_continue,html.Screen,10_16_2,2023-11-20T20:41:16.372Z,,,,,,,,,,,NaN,,,,,,,,low,low,,,,,,,false,,,,,false,1132467.7000000477,1132467.6000000238,,1132467.6000000238,,1132333.663,5,600,,
sequence,flow.Sequence,10_16,2023-11-20T20:41:16.372Z,,,,,,,,,,,4867.055000023916,completion,,,,,,,low,low,,,,,,,false,,,,,false,1132467.8000000715,1132467.6000000238,1127583.916,1127732.1000000238,1127600.545,1132333.663,5,600,,
trial,html.Screen,10_17_0,2023-11-20T20:41:18.996Z,,,,1,-0.0027483411352856,-0.0100996915276271,,0.05,false,lh,2757.6370000715833,response,-0.8200962008791046,0.9545362881052724,-1.1133839844373379,0.7936051642828523,1.0531629165075682,-1.1590968875017151,low,high,,ISIC_7364041.JPG,9,ISIC_0027031.JPG,33,28,false,0.3300000000000002,hh,keypress(i),0,false,1135091.5,1135091.3000000715,1132317.057,1132467.8000000715,1132333.663,1134950.301,5,600,18,
break,html.Screen,10_17_1,2023-11-20T20:41:18.996Z,,,,,,,,,,,NaN,,,,,,,,low,high,,,,,,,false,,,,,false,1135091.8000000715,1135091.7000000477,,1135091.5,,1134950.301,5,600,,
break_continue,html.Screen,10_17_2,2023-11-20T20:41:18.996Z,,,,,,,,,,,NaN,,,,,,,,low,high,,,,,,,false,,,,,false,1135091.8999999762,1135091.8000000715,,1135091.8000000715,,1134950.301,5,600,,
sequence,flow.Sequence,10_17,2023-11-20T20:41:18.996Z,,,,,,,,,,,2758.1370000715833,completion,,,,,,,low,high,,,,,,,false,,,,,false,1135092,1135091.8000000715,1132317.057,1132467.8000000715,1132333.663,1134950.301,5,600,,
trial,html.Screen,10_18_0,2023-11-20T20:41:25.907Z,,,,1,0.0102460616775615,-0.0309670599545429,,0.05,true,ll,7052.399000047706,response,-1.135372722680314,0.9545362881052724,-1.1133839844373379,-1.0926414044454305,1.0531629165075682,-1.1590968875017151,low,low,,ISIC_0072041.JPG,9,ISIC_2355513.JPG,33,25,false,0.1,ll,keypress(f),0,false,1142002.8999999762,1142002.7000000477,1134934.071,1135092,1134950.301,1141867.183,5,600,19,
break,html.Screen,10_18_1,2023-11-20T20:41:25.907Z,,,,,,,,,,,NaN,,,,,,,,low,low,,,,,,,false,,,,,false,1142003.1000000238,1142003.1000000238,,1142002.8999999762,,1141867.183,5,600,,
break_continue,html.Screen,10_18_2,2023-11-20T20:41:25.908Z,,,,,,,,,,,NaN,,,,,,,,low,low,,,,,,,false,,,,,false,1142003.3999999762,1142003.3000000715,,1142003.2000000477,,1141867.183,5,600,,
sequence,flow.Sequence,10_18,2023-11-20T20:41:25.908Z,,,,,,,,,,,7052.999000071548,completion,,,,,,,low,low,,,,,,,false,,,,,false,1142003.3999999762,1142003.3000000715,1134934.071,1135092,1134950.301,1141867.183,5,600,,
trial,html.Screen,10_19_0,2023-11-20T20:41:32.083Z,,,,1,0.0348234368746005,-0.0236866303880924,,0.05,false,hh,6311.817000000039,response,0.8826131775592696,0.9545362881052724,-1.1133839844373379,1.1197820736747437,1.0531629165075682,-1.1590968875017151,high,high,,ISIC_0011099.JPG,8,ISIC_7137995.JPG,33,32,false,0.1,hl,keypress(j),0,false,1148179.1000000238,1148179,1141850.35,1142003.5,1141867.183,1148050.435,5,600,20,
break,html.Screen,10_19_1,2023-11-20T20:41:32.084Z,,,,,,,,,,,NaN,,,,,,,,high,high,,,,,,,false,,,,,false,1148179.3999999762,1148179.3000000715,,1148179.2000000477,,1148050.435,5,600,,
break_continue,html.Screen,10_19_2,2023-11-20T20:41:32.084Z,,,,,,,,,,,NaN,,,,,,,,high,high,,,,,,,false,,,,,false,1148179.6000000238,1148179.5,,1148179.5,,1148050.435,5,600,,
sequence,flow.Sequence,10_19,2023-11-20T20:41:32.084Z,,,,,,,,,,,6312.317000000039,completion,,,,,,,high,high,,,,,,,false,,,,,false,1148179.6000000238,1148179.5,1141850.35,1142003.5,1141867.183,1148050.435,5,600,,
trial,html.Screen,10_20_0,2023-11-20T20:41:48.084Z,,,,1,-0.0070725527271049,-0.0049995141077508,,0.05,,,16016.523000000045,timeout,-1.0022829373011404,0.9545362881052724,-1.1133839844373379,0.8311726972863814,1.0531629165075682,-1.1590968875017151,low,high,,ISIC_6124481.JPG,9,ISIC_0033287.JPG,33,28,false,0.3300000000000002,,,0,false,1164179.7000000477,1164179.7000000477,1148033.726,1148179.7000000477,1148050.435,1164066.958,5,600,21,
break,html.Screen,10_20_1,2023-11-20T20:41:48.084Z,,,,,,,,,,,NaN,,,,,,,,low,high,,,,,,,false,,,,,false,1164180,1164179.8999999762,,1164179.8999999762,,1164066.958,5,600,,
break_continue,html.Screen,10_20_2,2023-11-20T20:41:48.084Z,,,,,,,,,,,NaN,,,,,,,,low,high,,,,,,,false,,,,,false,1164180.2000000477,1164180.2000000477,,1164180,,1164066.958,5,600,,
sequence,flow.Sequence,10_20,2023-11-20T20:41:48.085Z,,,,,,,,,,,16129.765000047628,completion,,,,,,,low,high,,,,,,,false,,,,,false,1164180.2000000477,1164180.2000000477,1148033.726,1148179.6000000238,1148050.435,1164066.958,5,600,,
trial,html.Screen,10_21_0,2023-11-20T20:41:54.244Z,,,,1,-0.0363437082783146,-0.0333332186217051,,0.05,true,hl,6272.342000071425,response,0.9696118525781644,0.9545362881052724,-1.1133839844373379,-0.9244148283103414,1.0531629165075682,-1.1590968875017151,high,low,,ISIC_3314555.JPG,8,ISIC_7927525.JPG,33,27,false,0.2500000000000001,hl,keypress(j),0,false,1170339.5,1170339.3000000715,1164050.44,1164180.3000000715,1164066.958,1170200.319,5,600,22,
break,html.Screen,10_21_1,2023-11-20T20:41:54.244Z,,,,,,,,,,,NaN,,,,,,,,high,low,,,,,,,false,,,,,false,1170339.8000000715,1170339.7000000477,,1170339.6000000238,,1170200.319,5,600,,
break_continue,html.Screen,10_21_2,2023-11-20T20:41:54.244Z,,,,,,,,,,,NaN,,,,,,,,high,low,,,,,,,false,,,,,false,1170340,1170339.8999999762,,1170339.8999999762,,1170200.319,5,600,,
sequence,flow.Sequence,10_21,2023-11-20T20:41:54.244Z,,,,,,,,,,,6272.941999976058,completion,,,,,,,high,low,,,,,,,false,,,,,false,1170340.1000000238,1170339.8999999762,1164050.44,1164180.3000000715,1164066.958,1170200.319,5,600,,
trial,html.Screen,10_22_0,2023-11-20T20:41:58.275Z,,,,1,0.0159061451859594,0.0296598845560212,,0.05,true,hh,4170.580999976257,response,0.9607077625123552,0.9545362881052724,-1.1133839844373379,1.0682608339754711,1.0531629165075682,-1.1590968875017151,high,high,,ISIC_0072564.JPG,9,ISIC_0064763.JPG,33,32,false,0.1,hh,keypress(i),0,false,1174371,1174370.8999999762,1170183.426,1170340.1000000238,1170200.319,1174233.724,5,600,23,
break,html.Screen,10_22_1,2023-11-20T20:41:58.276Z,,,,,,,,,,,NaN,,,,,,,,high,high,,,,,,,false,,,,,false,1174371.3000000715,1174371.2000000477,,1174371.1000000238,,1174233.724,5,600,,
break_continue,html.Screen,10_22_2,2023-11-20T20:41:58.276Z,,,,,,,,,,,NaN,,,,,,,,high,high,,,,,,,false,,,,,false,1174371.5,1174371.5,,1174371.3999999762,,1174233.724,5,600,,
sequence,flow.Sequence,10_22,2023-11-20T20:41:58.276Z,,,,,,,,,,,4171.181000000099,completion,,,,,,,high,high,,,,,,,false,,,,,false,1174371.6000000238,1174371.5,1170183.426,1170340.1000000238,1170200.319,1174233.724,5,600,,
trial,html.Screen,10_23_0,2023-11-20T20:42:00.836Z,,,,1,0.0409338693593207,-0.0072462710499874,,0.05,true,hh,2697.675999976229,response,0.8842396282744274,0.9545362881052724,-1.1133839844373379,1.0676592823752966,1.0531629165075682,-1.1590968875017151,high,high,,ISIC_3608788.JPG,8,ISIC_0029182.JPG,33,32,false,0.1,hh,keypress(i),0,false,1176931.5,1176931.3999999762,1174216.921,1174371.6000000238,1174233.724,1176800.363,5,600,24,
break,html.Screen,10_23_1,2023-11-20T20:42:00.836Z,,,,,,,,,,,NaN,,,,,,,,high,high,,,,,,,false,,,,,false,1176931.8000000715,1176931.7000000477,,1176931.6000000238,,1176800.363,5,600,,
break_continue,html.Screen,10_23_2,2023-11-20T20:42:00.836Z,,,,,,,,,,,NaN,,,,,,,,high,high,,,,,,,false,,,,,false,1176932,1176931.8999999762,,1176931.8999999762,,1176800.363,5,600,,
sequence,flow.Sequence,10_23,2023-11-20T20:42:00.836Z,,,,,,,,,,,2698.175999976229,completion,,,,,,,high,high,,,,,,,false,,,,,false,1176932,1176931.8999999762,1174216.921,1174371.6000000238,1174233.724,1176800.363,5,600,,
trial,html.Screen,10_24_0,2023-11-20T20:42:03.412Z,,,,1,-0.0107854985447517,-0.0478010417136109,,0.05,false,lh,2706.6370000001043,response,-0.9873794329144926,0.9545362881052724,-1.1133839844373379,0.7991077882008257,1.0531629165075682,-1.1590968875017151,low,high,,ISIC_0010500.JPG,9,ISIC_0013498.JPG,33,28,false,0.3300000000000002,hh,keypress(i),0,false,1179507.2000000477,1179507,1176783.706,1176932.1000000238,1176800.363,1179366.974,5,600,25,
break,html.Screen,10_24_1,2023-11-20T20:42:03.412Z,,,,,,,,,,,NaN,,,,,,,,low,high,,,,,,,false,,,,,false,1179507.3999999762,1179507.3000000715,,1179507.2000000477,,1179366.974,5,600,,
break_continue,html.Screen,10_24_2,2023-11-20T20:42:03.412Z,,,,,,,,,,,NaN,,,,,,,,low,high,,,,,,,false,,,,,false,1179507.6000000238,1179507.6000000238,,1179507.5,,1179366.974,5,600,,
sequence,flow.Sequence,10_24,2023-11-20T20:42:03.412Z,,,,,,,,,,,2707.237000023946,completion,,,,,,,low,high,,,,,,,false,,,,,false,1179507.6000000238,1179507.6000000238,1176783.706,1176932.1000000238,1176800.363,1179366.974,5,600,,
trial,html.Screen,10_25_0,2023-11-20T20:42:11.828Z,,,,1,-0.0050679133050021,0.0009714874637896,,0.05,true,ll,8556.425999976229,response,-1.135372722680314,0.9545362881052724,-1.1133839844373379,-1.0926414044454305,1.0531629165075682,-1.1590968875017151,low,low,,ISIC_9848743.JPG,9,ISIC_2355513.JPG,33,25,false,0.1,ll,keypress(f),0,false,1187923.5,1187923.3999999762,1179350.484,1179507.6000000238,1179366.974,1187783.597,5,600,26,
break,html.Screen,10_25_1,2023-11-20T20:42:11.828Z,,,,,,,,,,,NaN,,,,,,,,low,low,,,,,,,false,,,,,false,1187923.8000000715,1187923.7000000477,,1187923.5,,1187783.597,5,600,,
break_continue,html.Screen,10_25_2,2023-11-20T20:42:11.828Z,,,,,,,,,,,NaN,,,,,,,,low,low,,,,,,,false,,,,,false,1187923.8999999762,1187923.8999999762,,1187923.8999999762,,1187783.597,5,600,,
sequence,flow.Sequence,10_25,2023-11-20T20:42:11.828Z,,,,,,,,,,,8556.925999976229,completion,,,,,,,low,low,,,,,,,false,,,,,false,1187924,1187923.8999999762,1179350.484,1179507.6000000238,1179366.974,1187783.597,5,600,,
trial,html.Screen,10_26_0,2023-11-20T20:42:14.451Z,,,,1,-0.0085520978188085,0.0464691161264081,,0.05,true,hh,2763.1030000476167,response,0.9936778235464944,0.9545362881052724,-1.1133839844373379,0.9945365746760566,1.0531629165075682,-1.1590968875017151,high,high,,ISIC_0758797.JPG,8,ISIC_5108076.JPG,33,32,false,0.1,hh,keypress(i),0,false,1190546.8000000715,1190546.7000000477,1187767.096,1187924,1187783.597,1190416.875,5,600,27,
break,html.Screen,10_26_1,2023-11-20T20:42:14.452Z,,,,,,,,,,,NaN,,,,,,,,high,high,,,,,,,false,,,,,false,1190547.1000000238,1190547,,1190546.8999999762,,1190416.875,5,600,,
break_continue,html.Screen,10_26_2,2023-11-20T20:42:14.452Z,,,,,,,,,,,NaN,,,,,,,,high,high,,,,,,,false,,,,,false,1190547.3999999762,1190547.3000000715,,1190547.2000000477,,1190416.875,5,600,,
sequence,flow.Sequence,10_26,2023-11-20T20:42:14.452Z,,,,,,,,,,,2763.7030000714585,completion,,,,,,,high,high,,,,,,,false,,,,,false,1190547.3999999762,1190547.3000000715,1187767.096,1187924,1187783.597,1190416.875,5,600,,
trial,html.Screen,10_27_0,2023-11-20T20:42:19.060Z,,,,1,0.0348234368746005,-0.0236866303880924,,0.05,true,hh,4738.225000023842,response,0.8755959065262388,0.9545362881052724,-1.1133839844373379,1.093284184366194,1.0531629165075682,-1.1590968875017151,high,high,,ISIC_0011099.JPG,9,ISIC_8096177.JPG,33,32,false,0.1,hh,keypress(i),0,false,1195155.2000000477,1195155.1000000238,1190400.395,1190547.5,1190416.875,1195016.943,5,600,28,
break,html.Screen,10_27_1,2023-11-20T20:42:19.060Z,,,,,,,,,,,NaN,,,,,,,,high,high,,,,,,,false,,,,,false,1195155.3999999762,1195155.3999999762,,1195155.3000000715,,1195016.943,5,600,,
break_continue,html.Screen,10_27_2,2023-11-20T20:42:19.060Z,,,,,,,,,,,NaN,,,,,,,,high,high,,,,,,,false,,,,,false,1195155.6000000238,1195155.5,,1195155.5,,1195016.943,5,600,,
sequence,flow.Sequence,10_27,2023-11-20T20:42:19.060Z,,,,,,,,,,,4738.625,completion,,,,,,,high,high,,,,,,,false,,,,,false,1195155.7000000477,1195155.5,1190400.395,1190547.5,1190416.875,1195016.943,5,600,,
trial,html.Screen,10_28_0,2023-11-20T20:42:27.651Z,,,,1,0.0051189696037511,-0.0396625911332438,,0.05,false,ll,8729.857000071555,response,-1.0351900568634125,0.9545362881052724,-1.1133839844373379,-1.060448537312289,1.0531629165075682,-1.1590968875017151,low,low,,ISIC_9742891.JPG,10,ISIC_4377208.JPG,33,25,false,0.1,lh,keypress(e),0,false,1203747,1203746.8000000715,1195000.474,1195155.8000000715,1195016.943,1203617.037,5,600,29,
break,html.Screen,10_28_1,2023-11-20T20:42:27.652Z,,,,,,,,,,,NaN,,,,,,,,low,low,,,,,,,false,,,,,false,1203747.3000000715,1203747.2000000477,,1203747.1000000238,,1203617.037,5,600,,
break_continue,html.Screen,10_28_2,2023-11-20T20:42:27.652Z,,,,,,,,,,,NaN,,,,,,,,low,low,,,,,,,false,,,,,false,1203747.3999999762,1203747.3999999762,,1203747.3000000715,,1203617.037,5,600,,
sequence,flow.Sequence,10_28,2023-11-20T20:42:27.652Z,,,,,,,,,,,8730.456999976188,completion,,,,,,,low,low,,,,,,,false,,,,,false,1203747.5,1203747.3999999762,1195000.474,1195155.8000000715,1195016.943,1203617.037,5,600,,
trial,html.Screen,10_29_0,2023-11-20T20:42:30.740Z,,,,1,0.0245376145053177,-0.0436993426328401,,0.05,false,hl,3218.1630000476725,response,0.7083588209645494,0.9545362881052724,-1.1133839844373379,-1.1496804492673935,1.0531629165075682,-1.1590968875017151,high,low,,ISIC_0056444.JPG,9,ISIC_0047004.JPG,33,27,false,0.2500000000000001,hh,keypress(i),0,false,1206835.2000000477,1206835.2000000477,1203600.394,1203747.5,1203617.037,1206700.304,5,600,30,
break,html.Screen,10_29_1,2023-11-20T20:42:30.740Z,,,,,,,,,,,NaN,,,,,,,,high,low,,,,,,,false,,,,,false,1206835.5,1206835.5,,1206835.3000000715,,1206700.304,5,600,,
break_continue,html.Screen,10_29_2,2023-11-20T20:42:30.740Z,,,,,,,,,,,NaN,,,,,,,,high,low,,,,,,,false,,,,,false,1206835.7000000477,1206835.7000000477,,1206835.6000000238,,1206700.304,5,600,,
sequence,flow.Sequence,10_29,2023-11-20T20:42:30.740Z,,,,,,,,,,,3218.6630000476725,completion,,,,,,,high,low,,,,,,,false,,,,,false,1206835.8000000715,1206835.7000000477,1203600.394,1203747.5,1203617.037,1206700.304,5,600,,
trial,html.Screen,10_30_0,2023-11-20T20:42:33.923Z,,,,1,-0.0107854985447517,-0.0478010417136109,,0.05,false,hl,3318.496000071522,response,0.991282840649944,0.9545362881052724,-1.1133839844373379,-0.9397921099839784,1.0531629165075682,-1.1590968875017151,high,low,,ISIC_0010500.JPG,8,ISIC_0000463.JPG,33,27,false,0.2500000000000001,hh,keypress(i),0,false,1210018.8999999762,1210018.8000000715,1206683.771,1206835.8000000715,1206700.304,1209883.79,5,600,31,
break,html.Screen,10_30_1,2023-11-20T20:42:33.924Z,,,,,,,,,,,NaN,,,,,,,,high,low,,,,,,,false,,,,,false,1210019.2000000477,1210019.2000000477,,1210019,,1209883.79,5,600,,
break_continue,html.Screen,10_30_2,2023-11-20T20:42:33.924Z,,,,,,,,,,,NaN,,,,,,,,high,low,,,,,,,false,,,,,false,1210019.3999999762,1210019.3999999762,,1210019.2000000477,,1209883.79,5,600,,
sequence,flow.Sequence,10_30,2023-11-20T20:42:33.924Z,,,,,,,,,,,3319.0959999761544,completion,,,,,,,high,low,,,,,,,false,,,,,false,1210019.5,1210019.3999999762,1206683.771,1206835.8000000715,1206700.304,1209883.79,5,600,,
trial,html.Screen,10_31_0,2023-11-20T20:42:43.652Z,,,,1,0.000047919190197942736,0.0462652940855003,,0.05,false,hl,9863.510000071488,response,1.0026266089287914,0.9545362881052724,-1.1133839844373379,-1.0913275913920335,1.0531629165075682,-1.1590968875017151,high,low,,ISIC_0011507.JPG,9,ISIC_0033520.JPG,33,27,false,0.2500000000000001,lh,keypress(e),0,false,1219747.3999999762,1219747.3000000715,1209866.982,1210019.5,1209883.79,1219633.752,5,600,32,
break,html.Screen,10_31_1,2023-11-20T20:42:43.652Z,,,,,,,,,,,NaN,,,,,,,,high,low,,,,,,,false,,,,,false,1219747.6000000238,1219747.5,,1219747.3999999762,,1219633.752,5,600,,
break_continue,html.Screen,10_31_2,2023-11-20T20:42:43.652Z,,,,,,,,,,,NaN,,,,,,,,high,low,,,,,,,false,,,,,false,1219747.8000000715,1219747.7000000477,,1219747.6000000238,,1219633.752,5,600,,
sequence,flow.Sequence,10_31,2023-11-20T20:42:43.652Z,,,,,,,,,,,9863.910000047646,completion,,,,,,,high,low,,,,,,,false,,,,,false,1219747.8000000715,1219747.7000000477,1209866.982,1210019.5,1209883.79,1219633.752,5,600,,
trial,html.Screen,10_32_0,2023-11-20T20:42:48.276Z,,,,1,0.0112310719058792,-0.0469047359904117,,0.05,true,hh,4737.348000023747,response,1.037577073517966,0.9545362881052724,-1.1133839844373379,1.027048110709042,1.0531629165075682,-1.1590968875017151,high,high,,ISIC_0068184.JPG,8,ISIC_0004932.JPG,33,32,false,0.1,hh,keypress(i),0,false,1224371.1000000238,1224371.1000000238,1219617.214,1219747.8000000715,1219633.752,1224233.549,5,600,33,
break,html.Screen,10_32_1,2023-11-20T20:42:48.276Z,,,,,,,,,,,NaN,,,,,,,,high,high,,,,,,,false,,,,,false,1224371.3999999762,1224371.3000000715,,1224371.2000000477,,1224233.549,5,600,,
break_continue,html.Screen,10_32_2,2023-11-20T20:42:48.276Z,,,,,,,,,,,NaN,,,,,,,,high,high,,,,,,,false,,,,,false,1224371.6000000238,1224371.5,,1224371.3999999762,,1224233.549,5,600,,
sequence,flow.Sequence,10_32,2023-11-20T20:42:48.276Z,,,,,,,,,,,4737.747999999905,completion,,,,,,,high,high,,,,,,,false,,,,,false,1224371.7000000477,1224371.5,1219617.214,1219747.8000000715,1219633.752,1224233.549,5,600,,
trial,html.Screen,10_33_0,2023-11-20T20:42:53.588Z,,,,1,0.0348234368746005,-0.0236866303880924,,0.05,true,hl,5449.551000023726,response,0.9579209317488,0.9545362881052724,-1.1133839844373379,-1.0147487101263497,1.0531629165075682,-1.1590968875017151,high,low,,ISIC_0011099.JPG,9,ISIC_8124482.JPG,33,27,false,0.2500000000000001,hl,keypress(j),0,false,1229683.2000000477,1229683.1000000238,1224216.967,1224371.7000000477,1224233.549,1229550.464,5,600,34,
break,html.Screen,10_33_1,2023-11-20T20:42:53.588Z,,,,,,,,,,,NaN,,,,,,,,high,low,,,,,,,false,,,,,false,1229683.3999999762,1229683.3999999762,,1229683.3000000715,,1229550.464,5,600,,
break_continue,html.Screen,10_33_2,2023-11-20T20:42:53.588Z,,,,,,,,,,,NaN,,,,,,,,high,low,,,,,,,false,,,,,false,1229683.6000000238,1229683.6000000238,,1229683.5,,1229550.464,5,600,,
sequence,flow.Sequence,10_33,2023-11-20T20:42:53.588Z,,,,,,,,,,,5450.051000023726,completion,,,,,,,high,low,,,,,,,false,,,,,false,1229683.7000000477,1229683.6000000238,1224216.967,1224371.7000000477,1224233.549,1229550.464,5,600,,
trial,html.Screen,10_34_0,2023-11-20T20:42:58.820Z,,,,1,-0.007397293189458,-0.0174716772037504,,0.05,true,hh,5364.736000047764,response,1.037577073517966,0.9545362881052724,-1.1133839844373379,1.027048110709042,1.0531629165075682,-1.1590968875017151,high,high,,ISIC_0056226.JPG,8,ISIC_0004932.JPG,33,32,false,0.1,hh,keypress(i),0,false,1234915.3999999762,1234915.2000000477,1229533.614,1229683.7000000477,1229550.464,1234783.695,5,600,35,
break,html.Screen,10_34_1,2023-11-20T20:42:58.820Z,,,,,,,,,,,NaN,,,,,,,,high,high,,,,,,,false,,,,,false,1234915.7000000477,1234915.6000000238,,1234915.3999999762,,1234783.695,5,600,,
break_continue,html.Screen,10_34_2,2023-11-20T20:42:58.820Z,,,,,,,,,,,NaN,,,,,,,,high,high,,,,,,,false,,,,,false,1234915.8000000715,1234915.8000000715,,1234915.8000000715,,1234783.695,5,600,,
sequence,flow.Sequence,10_34,2023-11-20T20:42:58.820Z,,,,,,,,,,,5365.336000071606,completion,,,,,,,high,high,,,,,,,false,,,,,false,1234915.8999999762,1234915.8000000715,1229533.614,1229683.7000000477,1229550.464,1234783.695,5,600,,
trial,html.Screen,10_35_0,2023-11-20T20:43:11.156Z,,,,1,0.0159061451859594,0.0296598845560212,,0.05,false,hl,12467.505000047619,response,1.020990671779317,0.9545362881052724,-1.1133839844373379,-1.0116513850520903,1.0531629165075682,-1.1590968875017151,high,low,,ISIC_0072564.JPG,9,ISIC_0011995.JPG,33,27,false,0.2500000000000001,ll,keypress(f),0,false,1247251.3000000715,1247251.2000000477,1234766.928,1234916,1234783.695,1247116.842,5,600,36,
break,html.Screen,10_35_1,2023-11-20T20:43:11.156Z,,,,,,,,,,,NaN,,,,,,,,high,low,,,,,,,false,,,,,false,1247251.6000000238,1247251.5,,1247251.3999999762,,1247116.842,5,600,,
break_continue,html.Screen,10_35_2,2023-11-20T20:43:11.156Z,,,,,,,,,,,NaN,,,,,,,,high,low,,,,,,,false,,,,,false,1247251.7000000477,1247251.7000000477,,1247251.7000000477,,1247116.842,5,600,,
sequence,flow.Sequence,10_35,2023-11-20T20:43:11.156Z,,,,,,,,,,,12468.005000047619,completion,,,,,,,high,low,,,,,,,false,,,,,false,1247251.8999999762,1247251.7000000477,1234766.928,1234916,1234783.695,1247116.842,5,600,,
trial,html.Screen,10_36_0,2023-11-20T20:43:21.556Z,,,,1,-0.0050679133050021,0.0009714874637896,,0.05,false,hl,10534.45800007158,response,0.7622914383475332,0.9545362881052724,-1.1133839844373379,-1.2637655821850098,1.0531629165075682,-1.1590968875017151,high,low,,ISIC_9848743.JPG,10,ISIC_0032005.JPG,33,27,false,0.2500000000000001,hh,keypress(i),0,false,1257651.5,1257651.3000000715,1247100.32,1247251.8999999762,1247116.842,1257516.863,5,600,37,
break,html.Screen,10_36_1,2023-11-20T20:43:21.556Z,,,,,,,,,,,NaN,,,,,,,,high,low,,,,,,,false,,,,,false,1257651.8000000715,1257651.6000000238,,1257651.5,,1257516.863,5,600,,
break_continue,html.Screen,10_36_2,2023-11-20T20:43:21.557Z,,,,,,,,,,,NaN,,,,,,,,high,low,,,,,,,false,,,,,false,1257651.8999999762,1257651.8000000715,,1257651.8000000715,,1257516.863,5,600,,
sequence,flow.Sequence,10_36,2023-11-20T20:43:21.557Z,,,,,,,,,,,10534.95800007158,completion,,,,,,,high,low,,,,,,,false,,,,,false,1257651.8999999762,1257651.8000000715,1247100.32,1247251.8999999762,1247116.842,1257516.863,5,600,,
trial,html.Screen,10_37_0,2023-11-20T20:43:31.939Z,,,,1,-0.0069555338059566,0.0310100918136373,,0.05,false,hl,10517.237000023946,response,1.0143509683988825,0.9545362881052724,-1.1133839844373379,-1.3163955902021656,1.0531629165075682,-1.1590968875017151,high,low,,ISIC_0011177.JPG,8,ISIC_0062031.JPG,33,27,false,0.2500000000000001,lh,keypress(e),0,false,1268034.2000000477,1268034.1000000238,1257500.423,1257652,1257516.863,1267900.194,5,600,38,
break,html.Screen,10_37_1,2023-11-20T20:43:31.939Z,,,,,,,,,,,NaN,,,,,,,,high,low,,,,,,,false,,,,,false,1268034.7000000477,1268034.6000000238,,1268034.3000000715,,1267900.194,5,600,,
break_continue,html.Screen,10_37_2,2023-11-20T20:43:31.940Z,,,,,,,,,,,NaN,,,,,,,,high,low,,,,,,,false,,,,,false,1268034.8000000715,1268034.8000000715,,1268034.8000000715,,1267900.194,5,600,,
