sender,sender_type,sender_id,timestamp,meta,,age,blockNo,c1,c2,condition,control_tolerance,correct,correctResponse,duration,ended_on,f1,f1_high,f1_low,f2,f2_high,f2_low,feature_level1,feature_level2,gender,img_left,img_reveal,img_right,n_control_images,n_target_images,practice,range_tolerance,response,response_action,selection_duration,staircase,time_commit,time_end,time_render,time_run,time_show,time_switch,total_blocks,total_trials,trialNo,url
informed_consent,html.Screen,0,2023-11-20T20:29:12.537Z,"{""labjs_version"":""20.2.4"",""labjs_build"":{""flavor"":""development"",""commit"":""f5b4a49f956347addd546a832a3327688c2c0fef""},""location"":""https://labjs.felixhenninger.com/api/labjs_preview/index.html"",""userAgent"":""Mozilla/5.0 (Windows NT 10.0; Win64; x64) AppleWebKit/537.36 (KHTML, like Gecko) Chrome/119.0.0.0 Safari/537.36"",""platform"":""Win32"",""language"":""en-US"",""locale"":""en-US"",""timeZone"":""America/Chicago"",""timezoneOffset"":360,""screen_width"":1680,""screen_height"":1050,""scroll_width"":825,""scroll_height"":888,""window_innerWidth"":825,""window_innerHeight"":936,""devicePixelRatio"":1}",,,,,,,,,,46727.26699995231,response,,,,,,,,,,,,,,,,,consent,click button,,,47665.39999997616,47656.799999952316,912.843,926.7999999523163,929.533,47670.595,,,,{}
Demography form,html.Form,1,2023-11-20T20:29:18.073Z,,,22,,,,,,,,5530.704999952315,form submission,,,,,,,,,male,,,,,,,,,,,,53201.5,53201.299999952316,47654.108,47665.5,47670.595,53214.741,,,,
Welcome,html.Screen,2,2023-11-20T20:29:50.649Z,,,,,,,"[""asym"",""col""]",,,,32562.259,response,,,,,,,,,,,,,,,,,continue,click button,,,85777.5,85777,53197.938,53201.59999990463,53214.741,85794.954,,,,
demo_instructions,html.Screen,3,2023-11-20T20:30:12.113Z,,,,,,,,,,,21445.94599997616,response,,,,,,,,,,,,,,,,,continue,click button,,,107241.5,107240.89999997616,85778.046,85777.69999992847,85794.954,107270.144,,,,
trial,html.Screen,4_0_0,2023-11-20T20:30:21.091Z,,,,0,-1.2872758518949912,-1.313723254903214,,,true,hh,8948.555999928474,response,1.073296525451802,1.2,-1.2,1.3454282740421717,1.2,-1.2,high,high,,ISIC_0064376.JPG,,ISIC_5787312.JPG,,25,true,0.15000000000000002,hh,keypress(i),100,false,116219.29999995232,116218.69999992847,107253.207,107241.59999990463,107270.144,116237.357,1,16,1,
sequence,flow.Sequence,4_0,2023-11-20T20:30:21.092Z,,,,,,,,,,,8948.555999928474,completion,,,,,,,high,high,,,,,,,true,,,,,false,116220.09999990463,116218.69999992847,107253.207,107241.59999990463,107270.144,116237.357,1,16,,
trial,html.Screen,4_1_0,2023-11-20T20:30:26.829Z,,,,0,-1.2232482867978696,-1.2451219760556858,,,true,hh,5719.242999904629,response,1.301795918505203,1.2,-1.2,1.0518606632781424,1.2,-1.2,high,high,,ISIC_0030889.JPG,,ISIC_0027666.JPG,,25,true,0.15000000000000002,hh,keypress(i),100,false,121957,121956.59999990463,116220.746,116220.5,116237.357,121981.888,1,16,2,
sequence,flow.Sequence,4_1,2023-11-20T20:30:26.830Z,,,,,,,,,,,5719.242999904629,completion,,,,,,,high,high,,,,,,,true,,,,,false,121957.59999990463,121956.59999990463,116220.746,116220.29999995232,116237.357,121981.888,1,16,,
trial,html.Screen,4_2_0,2023-11-20T20:30:33.315Z,,,,0,-1.2435042401134029,-1.2939710463315144,,,true,hh,6460.91199995231,response,1.1638334638021437,1.2,-1.2,1.0846635401396965,1.2,-1.2,high,high,,ISIC_0056119.JPG,,ISIC_4718313.JPG,,25,true,0.15000000000000002,hh,keypress(i),100,false,128443.29999995232,128442.79999995232,121965.204,121957.89999997616,121981.888,128461.177,1,16,3,
sequence,flow.Sequence,4_2,2023-11-20T20:30:33.316Z,,,,,,,,,,,6460.91199995231,completion,,,,,,,high,high,,,,,,,true,,,,,false,128444,128442.79999995232,121965.204,121957.79999995232,121981.888,128461.177,1,16,,
trial,html.Screen,4_3_0,2023-11-20T20:30:39.183Z,,,,0,-1.1671212908494544,-1.1286681796701683,,,true,hh,5849.323000000004,response,1.0878102877901663,1.2,-1.2,1.3154097543539391,1.2,-1.2,high,high,,ISIC_0065022.JPG,,ISIC_1413242.JPG,,25,true,0.15000000000000002,hh,keypress(i),100,false,134311,134310.5,128444.548,128444.39999997616,128461.177,134339.28,1,16,4,
sequence,flow.Sequence,4_3,2023-11-20T20:30:39.184Z,,,,,,,,,,,5849.323000000004,completion,,,,,,,high,high,,,,,,,true,,,,,false,134311.59999990463,134310.5,128444.548,128444.19999992847,128461.177,134339.28,1,16,,
trial,html.Screen,4_4_0,2023-11-20T20:30:43.897Z,,,,0,1.053007132776416,1.341217082060068,,,true,ll,4685.419999928476,response,-1.2289750544294995,1.2,-1.2,-1.3003764624334877,1.2,-1.2,low,low,,ISIC_0024208.JPG,,ISIC_0054167.JPG,,27,true,0.12,ll,keypress(f),100,false,139024.89999997616,139024.69999992847,134322.593,134311.79999995232,134339.28,139048.395,1,16,5,
sequence,flow.Sequence,4_4,2023-11-20T20:30:43.897Z,,,,,,,,,,,4685.419999928476,completion,,,,,,,low,low,,,,,,,true,,,,,false,139025,139024.69999992847,134322.593,134311.79999995232,134339.28,139048.395,1,16,,
trial,html.Screen,4_5_0,2023-11-20T20:30:46.946Z,,,,0,1.3045229691102764,1.1781544075681951,,,true,ll,3025.704999904643,response,-1.3271122559811526,1.2,-1.2,-1.292001792497521,1.2,-1.2,low,low,,ISIC_6148533.JPG,,ISIC_0065181.JPG,,41,true,0.15000000000000002,ll,keypress(f),100,false,142074.39999997616,142074.09999990463,139031.737,139025.09999990463,139048.395,142104.594,1,16,6,
sequence,flow.Sequence,4_5,2023-11-20T20:30:46.947Z,,,,,,,,,,,3025.704999904643,completion,,,,,,,low,low,,,,,,,true,,,,,false,142075,142074.09999990463,139031.737,139025.09999990463,139048.395,142104.594,1,16,,
trial,html.Screen,4_6_0,2023-11-20T20:30:49.178Z,,,,0,1.1168199061753437,1.212287319329914,,,true,ll,2201.7059999523044,response,-1.1894733304494307,1.2,-1.2,-1.1169761866204877,1.2,-1.2,low,low,,ISIC_5919355.JPG,,ISIC_0033813.JPG,,41,true,0.15000000000000002,ll,keypress(f),100,false,144306.39999997616,144306.29999995232,142087.753,142075.19999992847,142104.594,144325.354,1,16,7,
sequence,flow.Sequence,4_6,2023-11-20T20:30:49.179Z,,,,,,,,,,,2201.7059999523044,completion,,,,,,,low,low,,,,,,,true,,,,,false,144306.69999992847,144306.29999995232,142087.753,142075.09999990463,142104.594,144325.354,1,16,,
trial,html.Screen,4_7_0,2023-11-20T20:30:52.340Z,,,,0,1.0878102877901663,1.3154097543539391,,,true,ll,3142.8459999284823,response,-1.1671212908494544,1.2,-1.2,-1.1286681796701683,1.2,-1.2,low,low,,ISIC_1413242.JPG,,ISIC_0065022.JPG,,41,true,0.15000000000000002,ll,keypress(f),100,false,147468.39999997616,147468.19999992847,144308.615,144306.69999992847,144325.354,147498.217,1,16,8,
sequence,flow.Sequence,4_7,2023-11-20T20:30:52.341Z,,,,,,,,,,,3142.8459999284823,completion,,,,,,,low,low,,,,,,,true,,,,,false,147468.59999990463,147468.19999992847,144308.615,144306.69999992847,144325.354,147498.217,1,16,,
trial,html.Screen,4_8_0,2023-11-20T20:30:57.183Z,,,,0,0.9013888878932071,-0.9328095253308732,,,true,lh,4812.382999904628,response,-0.9448560599810628,1.2,-1.2,0.9099421612683488,1.2,-1.2,low,high,,ISIC_0068259.JPG,,ISIC_9684318.JPG,,26,true,0.3300000000000002,lh,keypress(e),100,false,152310.89999997616,152310.59999990463,147481.479,147468.59999990463,147498.217,152340.942,1,16,9,
sequence,flow.Sequence,4_8,2023-11-20T20:30:57.183Z,,,,,,,,,,,4812.382999904628,completion,,,,,,,low,high,,,,,,,true,,,,,false,152311.39999997616,152310.59999990463,147481.479,147468.59999990463,147498.217,152340.942,1,16,,
trial,html.Screen,4_9_0,2023-11-20T20:31:00.509Z,,,,0,0.9013888878932071,-0.9328095253308732,,,true,lh,3295.3579999523063,response,-0.8588347582642082,1.2,-1.2,0.8899503828496784,1.2,-1.2,low,high,,ISIC_0068259.JPG,,ISIC_0174983.JPG,,33,true,0.3600000000000002,lh,keypress(e),100,false,155636.69999992847,155636.29999995232,152324.331,152311.59999990463,152340.942,155664.098,1,16,10,
sequence,flow.Sequence,4_9,2023-11-20T20:31:00.509Z,,,,,,,,,,,3295.3579999523063,completion,,,,,,,low,high,,,,,,,true,,,,,false,155637.29999995232,155636.29999995232,152324.331,152311.59999990463,152340.942,155664.098,1,16,,
trial,html.Screen,4_10_0,2023-11-20T20:31:07.655Z,,,,0,0.849847885203758,-0.973447384095442,,,true,lh,7119.101999928476,response,-1.0748728054622358,1.2,-1.2,1.2840853987892311,1.2,-1.2,low,high,,ISIC_9612228.JPG,,ISIC_0059219.JPG,,33,true,0.3600000000000002,lh,keypress(e),100,false,162783.39999997616,162783.19999992847,155647.413,155637.59999990463,155664.098,162811.346,1,16,11,
sequence,flow.Sequence,4_10,2023-11-20T20:31:07.656Z,,,,,,,,,,,7119.101999928476,completion,,,,,,,low,high,,,,,,,true,,,,,false,162783.59999990463,162783.19999992847,155647.413,155637.39999997616,155664.098,162811.346,1,16,,
trial,html.Screen,4_11_0,2023-11-20T20:31:11.147Z,,,,0,1.3411487193830047,-1.198640448317381,,,true,lh,3462.853999928484,response,-1.2704198237183777,1.2,-1.2,1.138121072015301,1.2,-1.2,low,high,,ISIC_3093026.JPG,,ISIC_0501843.JPG,,33,true,0.3600000000000002,lh,keypress(e),100,false,166274.5,166274.19999992847,162794.675,162783.69999992847,162811.346,166318.146,1,16,12,
sequence,flow.Sequence,4_11,2023-11-20T20:31:11.147Z,,,,,,,,,,,3462.853999928484,completion,,,,,,,low,high,,,,,,,true,,,,,false,166275.19999992847,166274.19999992847,162794.675,162783.69999992847,162811.346,166318.146,1,16,,
trial,html.Screen,4_12_0,2023-11-20T20:31:15.912Z,,,,0,-0.9670240379618178,1.1806404773220665,,,true,hl,4721.153999952308,response,1.0143509683988825,1.2,-1.2,-1.0281980567462463,1.2,-1.2,high,low,,ISIC_0002288.JPG,,ISIC_0062031.JPG,,29,true,0.3600000000000002,hl,keypress(j),100,false,171039.39999997616,171039.29999995232,166284.862,166275.5,166318.146,171077.407,1,16,13,
sequence,flow.Sequence,4_12,2023-11-20T20:31:15.912Z,,,,,,,,,,,4721.153999952308,completion,,,,,,,high,low,,,,,,,true,,,,,false,171039.69999992847,171039.29999995232,166284.862,166275.39999997616,166318.146,171077.407,1,16,,
trial,html.Screen,4_13_0,2023-11-20T20:31:18.752Z,,,,0,-0.8709576717420565,1.2795156779072283,,,true,hl,2801.792999928468,response,1.1235224875125256,1.2,-1.2,-0.8641223012137988,1.2,-1.2,high,low,,ISIC_1925632.JPG,,ISIC_0033901.JPG,,29,true,0.3600000000000002,hl,keypress(j),100,false,173879.59999990463,173879.19999992847,171044.065,171039.79999995232,171077.407,173916.268,1,16,14,
sequence,flow.Sequence,4_13,2023-11-20T20:31:18.753Z,,,,,,,,,,,2801.792999928468,completion,,,,,,,high,low,,,,,,,true,,,,,false,173880.29999995232,173879.19999992847,171044.065,171039.79999995232,171077.407,173916.268,1,16,,
trial,html.Screen,4_14_0,2023-11-20T20:31:22.512Z,,,,0,-1.052305774554686,1.3940181224717798,,,true,hl,3722.4319999284635,response,0.9039158082670506,1.2,-1.2,-1.0517562064343149,1.2,-1.2,high,low,,ISIC_4175400.JPG,,ISIC_0015411.JPG,,29,true,0.3600000000000002,hl,keypress(j),100,false,177639.09999990463,177638.69999992847,173882.936,173880.5,173916.268,177673.566,1,16,15,
sequence,flow.Sequence,4_14,2023-11-20T20:31:22.512Z,,,,,,,,,,,3722.4319999284635,completion,,,,,,,high,low,,,,,,,true,,,,,false,177639.59999990463,177638.69999992847,173882.936,173880.5,173916.268,177673.566,1,16,,
trial,html.Screen,4_15_0,2023-11-20T20:31:25.548Z,,,,0,-1.296989496412063,1.1425074323097002,,,true,hl,3001.2339999523247,response,1.1224745971429997,1.2,-1.2,-0.8423270217438888,1.2,-1.2,high,low,,ISIC_6356803.JPG,,ISIC_0057032.JPG,,29,true,0.3600000000000002,hl,keypress(j),100,false,180675.19999992847,180674.79999995232,177640.299,177639.79999995232,177673.566,180696.151,1,16,16,
sequence,flow.Sequence,4_15,2023-11-20T20:31:25.548Z,,,,,,,,,,,3001.2339999523247,completion,,,,,,,high,low,,,,,,,true,,,,,false,180675.69999992847,180674.79999995232,177640.299,177639.79999995232,177673.566,180696.151,1,16,,
demonstration_loop,flow.Loop,4,2023-11-20T20:31:25.549Z,,,,,,,,,,,73404.65599995232,completion,,,,,,,,,,,,,,,true,,,,,false,180676.19999992847,180674.79999995232,107253.207,107241.59999990463,107270.144,180696.151,1,16,,
practice_instructions,html.Screen,5,2023-11-20T20:31:33.497Z,,,,,,,,,,,7920.748999976146,response,,,,,,,,,,,,,,,,,continue,click button,,,188624.89999997616,188616.89999997616,180679.545,180676.29999995232,180696.151,188628.245,,,,
trial,html.Screen,6_0_0,2023-11-20T20:31:46.100Z,,,,1,-1.238264833797662,-1.176099940770289,,,true,hh,12598.755000000005,response,1.053007132776416,1.2,-1.2,1.341217082060068,1.2,-1.2,high,high,,ISIC_0032861.JPG,,ISIC_0024208.JPG,,25,true,0.15000000000000002,hh,keypress(i),0,false,201227.39999997616,201227,188611.803,188625,188628.245,201236.115,1,40,1,
sequence,flow.Sequence,6_0,2023-11-20T20:31:46.101Z,,,,,,,,,,,12598.755000000005,completion,,,,,,,high,high,,,,,,,true,,,,,false,201228,201227,188611.803,188625,188628.245,201236.115,1,40,,
trial,html.Screen,6_1_0,2023-11-20T20:31:53.698Z,,,,1,1.2714351764931109,1.0785174776187512,,,true,ll,7589.084999928484,response,-1.1894733304494307,1.2,-1.2,-1.1169761866204877,1.2,-1.2,low,low,,ISIC_2454898.JPG,,ISIC_0033813.JPG,,27,true,0.12,ll,keypress(f),0,false,208825.39999997616,208825.19999992847,201219.556,201228.29999995232,201236.115,208834.22,1,40,2,
sequence,flow.Sequence,6_1,2023-11-20T20:31:53.698Z,,,,,,,,,,,7589.084999928484,completion,,,,,,,low,low,,,,,,,true,,,,,false,208825.5,208825.19999992847,201219.556,201228.19999992847,201236.115,208834.22,1,40,,
trial,html.Screen,6_2_0,2023-11-20T20:31:55.675Z,,,,1,1.1168199061753437,1.212287319329914,,,true,ll,1968.2799999999988,response,-1.1474466950560966,1.2,-1.2,-1.173734476257662,1.2,-1.2,low,low,,ISIC_5919355.JPG,,ISIC_5216586.JPG,,41,true,0.15000000000000002,ll,keypress(f),0,false,210802.79999995232,210802.5,208817.753,208825.59999990463,208834.22,210822.022,1,40,3,
sequence,flow.Sequence,6_2,2023-11-20T20:31:55.676Z,,,,,,,,,,,1968.2799999999988,completion,,,,,,,low,low,,,,,,,true,,,,,false,210803.29999995232,210802.5,208817.753,208825.59999990463,208834.22,210822.022,1,40,,
trial,html.Screen,6_3_0,2023-11-20T20:32:04.236Z,,,,1,1.1217390688497193,1.2276600934505035,,,false,ll,8540.978000000003,response,-1.1715181192107684,1.2,-1.2,-1.2251845559044463,1.2,-1.2,low,low,,ISIC_0026344.JPG,,ISIC_0011957.JPG,,41,true,0.15000000000000002,hh,keypress(i),0,false,219363.29999995232,219363,210788.032,210803.5,210822.022,219404.769,1,40,4,
sequence,flow.Sequence,6_3,2023-11-20T20:32:04.237Z,,,,,,,,,,,8540.978000000003,completion,,,,,,,low,low,,,,,,,true,,,,,false,219364,219363,210788.032,210803.5,210822.022,219404.769,1,40,,
trial,html.Screen,6_4_0,2023-11-20T20:32:08.140Z,,,,1,0.9013888878932071,-0.9328095253308732,,,false,lh,3861.8309999046323,response,-0.9212323139676136,1.2,-1.2,0.9882196642247332,1.2,-1.2,low,high,,ISIC_0068259.JPG,,ISIC_0014255.JPG,,26,true,0.3300000000000002,hh,keypress(i),0,false,223267,223266.59999990463,219354.889,219364.29999995232,219404.769,223279.096,1,40,5,
sequence,flow.Sequence,6_4,2023-11-20T20:32:08.140Z,,,,,,,,,,,3861.8309999046323,completion,,,,,,,low,high,,,,,,,true,,,,,false,223267.59999990463,223266.59999990463,219354.889,219364.19999992847,219404.769,223279.096,1,40,,
trial,html.Screen,6_5_0,2023-11-20T20:32:15.811Z,,,,1,-1.1711612520017805,-1.191169949562454,,,false,hh,7658.40400000001,response,0.9597587651037712,1.2,-1.2,0.8860066980618031,1.2,-1.2,high,high,,ISIC_0061936.JPG,,ISIC_7534592.JPG,,157,true,0.3600000000000002,lh,keypress(e),0,false,230937.59999990463,230937.5,223262.371,223267.79999995232,223279.096,230977.325,1,40,6,
sequence,flow.Sequence,6_5,2023-11-20T20:32:15.811Z,,,,,,,,,,,7658.40400000001,completion,,,,,,,high,high,,,,,,,true,,,,,false,230937.79999995232,230937.5,223262.371,223267.69999992847,223279.096,230977.325,1,40,,
trial,html.Screen,6_6_0,2023-11-20T20:32:22.923Z,,,,1,-1.0822170028935367,1.1654796154432183,,,false,hl,7072.274999904621,response,0.9445114955578736,1.2,-1.2,-1.0054210059625863,1.2,-1.2,high,low,,ISIC_7288818.JPG,,ISIC_0033807.JPG,,29,true,0.3600000000000002,hh,keypress(i),0,false,238049.79999995232,238049.59999990463,230927.371,230937.79999995232,230977.325,238057.761,1,40,7,
sequence,flow.Sequence,6_6,2023-11-20T20:32:22.923Z,,,,,,,,,,,7072.274999904621,completion,,,,,,,high,low,,,,,,,true,,,,,false,238049.79999995232,238049.59999990463,230927.371,230937.79999995232,230977.325,238057.761,1,40,,
trial,html.Screen,6_7_0,2023-11-20T20:32:30.916Z,,,,1,1.3045229691102764,1.1781544075681951,,,false,ll,7984.538999952318,response,-0.9738365957110542,1.2,-1.2,-0.9145475604754156,1.2,-1.2,low,low,,ISIC_6148533.JPG,,ISIC_3435596.JPG,,211,true,0.3300000000000002,hh,keypress(i),0,false,246042.5,246042.29999995232,238041.337,238049.89999997616,238057.761,246090.086,1,40,8,
sequence,flow.Sequence,6_7,2023-11-20T20:32:30.916Z,,,,,,,,,,,7984.538999952318,completion,,,,,,,low,low,,,,,,,true,,,,,false,246042.89999997616,246042.29999995232,238041.337,238049.89999997616,238057.761,246090.086,1,40,,
trial,html.Screen,6_8_0,2023-11-20T20:32:37.564Z,,,,1,0.9013888878932071,-0.9328095253308732,,,false,lh,6600.813999976148,response,-1.0264463986917702,1.2,-1.2,1.171271535505083,1.2,-1.2,low,high,,ISIC_0068259.JPG,,ISIC_7889838.JPG,,26,true,0.3300000000000002,hl,keypress(j),0,false,252691.19999992847,252690.89999997616,246040.138,246043.09999990463,246090.086,252702.958,1,40,9,
sequence,flow.Sequence,6_8,2023-11-20T20:32:37.565Z,,,,,,,,,,,6600.813999976148,completion,,,,,,,low,high,,,,,,,true,,,,,false,252691.69999992847,252690.89999997616,246040.138,246043.09999990463,246090.086,252702.958,1,40,,
trial,html.Screen,6_9_0,2023-11-20T20:32:39.180Z,,,,1,-0.9212323139676136,0.9882196642247332,,,false,hl,1603.7419999284612,response,0.9087169856594104,1.2,-1.2,-0.8835647084207277,1.2,-1.2,high,low,,ISIC_0014255.JPG,,ISIC_0000349.JPG,,29,true,0.3600000000000002,hh,keypress(i),0,false,254307.09999990463,254306.69999992847,252686.445,252691.89999997616,252702.958,254323.028,1,40,10,
sequence,flow.Sequence,6_9,2023-11-20T20:32:39.181Z,,,,,,,,,,,1603.7419999284612,completion,,,,,,,high,low,,,,,,,true,,,,,false,254307.5,254306.69999992847,252686.445,252691.79999995232,252702.958,254323.028,1,40,,
trial,html.Screen,6_10_0,2023-11-20T20:32:44.052Z,,,,1,1.1510001454240106,1.132540312667795,,,false,ll,4855.972000000009,response,-1.5275825121607796,1.2,-1.2,-0.9397522689480928,1.2,-1.2,low,low,,ISIC_0009959.JPG,,ISIC_1200192.JPG,,211,true,0.3300000000000002,lh,keypress(e),0,false,259179.39999997616,259179,254306.234,254307.79999995232,254323.028,259215.637,1,40,11,
sequence,flow.Sequence,6_10,2023-11-20T20:32:44.053Z,,,,,,,,,,,4855.972000000009,completion,,,,,,,low,low,,,,,,,true,,,,,false,259179.79999995232,259179,254306.234,254307.59999990463,254323.028,259215.637,1,40,,
trial,html.Screen,6_11_0,2023-11-20T20:32:50.668Z,,,,1,0.8534691366511764,-1.276663727068437,,,false,lh,6579.26299997617,response,-1.055319394932912,1.2,-1.2,1.409116680310466,1.2,-1.2,low,high,,ISIC_0056788.JPG,,ISIC_6398669.JPG,,26,true,0.3300000000000002,hl,keypress(j),0,false,265795.1999999285,265794.89999997616,259165.556,259180.09999990463,259215.637,265811.853,1,40,12,
sequence,flow.Sequence,6_11,2023-11-20T20:32:50.669Z,,,,,,,,,,,6579.26299997617,completion,,,,,,,low,high,,,,,,,true,,,,,false,265795.7999999523,265794.89999997616,259165.556,259180,259215.637,265811.853,1,40,,
trial,html.Screen,6_12_0,2023-11-20T20:32:54.804Z,,,,1,1.294521945180264,1.3078626540563885,,,false,ll,4119.24699990463,response,-0.9012711689442632,1.2,-1.2,-1.3205177056314232,1.2,-1.2,low,low,,ISIC_3601224.JPG,,ISIC_0032718.JPG,,249,true,0.3600000000000002,lh,keypress(e),0,false,269931.5,269931.09999990463,265795.265,265796.1999999285,265811.853,269936.483,1,40,13,
sequence,flow.Sequence,6_12,2023-11-20T20:32:54.805Z,,,,,,,,,,,4119.24699990463,completion,,,,,,,low,low,,,,,,,true,,,,,false,269932,269931.09999990463,265795.265,265796.09999990463,265811.853,269936.483,1,40,,
trial,html.Screen,6_13_0,2023-11-20T20:32:59.228Z,,,,1,1.0581281450494728,1.133169116569424,,,false,ll,4418.416999976151,response,-1.238264833797662,1.2,-1.2,-1.176099940770289,1.2,-1.2,low,low,,ISIC_5490352.JPG,,ISIC_0032861.JPG,,41,true,0.15000000000000002,hh,keypress(i),0,false,274355.1999999285,274354.89999997616,269919.777,269932.2999999523,269936.483,274411.887,1,40,14,
sequence,flow.Sequence,6_13,2023-11-20T20:32:59.229Z,,,,,,,,,,,4418.416999976151,completion,,,,,,,low,low,,,,,,,true,,,,,false,274355.7999999523,274354.89999997616,269919.777,269932.1999999285,269936.483,274411.887,1,40,,
trial,html.Screen,6_14_0,2023-11-20T20:33:01.356Z,,,,1,-1.0264463986917702,1.171271535505083,,,false,hl,2071.113000000012,response,1.00615481805876,1.2,-1.2,-0.8428903771195875,1.2,-1.2,high,low,,ISIC_7889838.JPG,,ISIC_0069970.JPG,,29,true,0.3600000000000002,lh,keypress(e),0,false,276483.2999999523,276483,274345.068,274356,274411.887,276499.462,1,40,15,
sequence,flow.Sequence,6_14,2023-11-20T20:33:01.357Z,,,,,,,,,,,2071.113000000012,completion,,,,,,,high,low,,,,,,,true,,,,,false,276483.6999999285,276483,274345.068,274356,274411.887,276499.462,1,40,,
trial,html.Screen,6_15_0,2023-11-20T20:33:04.611Z,,,,1,-1.1474466950560966,-1.173734476257662,,,false,hh,3238.5380000000005,response,0.92935268789256,1.2,-1.2,1.2788476366175046,1.2,-1.2,high,high,,ISIC_5216586.JPG,,ISIC_0025088.JPG,,127,true,0.3300000000000002,hl,keypress(j),0,false,279738.1999999285,279738,276482.832,276484,276499.462,279772.315,1,40,16,
sequence,flow.Sequence,6_15,2023-11-20T20:33:04.611Z,,,,,,,,,,,3238.5380000000005,completion,,,,,,,high,high,,,,,,,true,,,,,false,279738.39999997616,279738,276482.832,276484,276499.462,279772.315,1,40,,
trial,html.Screen,6_16_0,2023-11-20T20:33:08.197Z,,,,1,0.8534691366511764,-1.276663727068437,,,false,lh,3550.884999928472,response,-0.8787496315223856,1.2,-1.2,1.3680901203013998,1.2,-1.2,low,high,,ISIC_0056788.JPG,,ISIC_0023811.JPG,,26,true,0.3300000000000002,hl,keypress(j),0,false,283323.5,283323.1999999285,279722.437,279738.59999990463,279772.315,283329.24,1,40,17,
sequence,flow.Sequence,6_16,2023-11-20T20:33:08.197Z,,,,,,,,,,,3550.884999928472,completion,,,,,,,low,high,,,,,,,true,,,,,false,283324.1999999285,283323.1999999285,279722.437,279738.5,279772.315,283329.24,1,40,,
trial,html.Screen,6_17_0,2023-11-20T20:33:17.980Z,,,,1,-1.1711612520017805,-1.191169949562454,,,false,hh,9777.459999928484,response,1.301795918505203,1.2,-1.2,1.0518606632781424,1.2,-1.2,high,high,,ISIC_0061936.JPG,,ISIC_0027666.JPG,,157,true,0.3600000000000002,hl,keypress(j),0,false,293107.09999990463,293106.6999999285,283312.687,283324.39999997616,283329.24,293114.962,1,40,18,
sequence,flow.Sequence,6_17,2023-11-20T20:33:17.981Z,,,,,,,,,,,9777.459999928484,completion,,,,,,,high,high,,,,,,,true,,,,,false,293107.5,293106.6999999285,283312.687,283324.2999999523,283329.24,293114.962,1,40,,
trial,html.Screen,6_18_0,2023-11-20T20:33:22.013Z,,,,1,-1.194799101954455,-1.2071632388858642,,,false,hh,4024.0380000000005,response,1.1655508270784471,1.2,-1.2,1.1162776063248168,1.2,-1.2,high,high,,ISIC_4347535.JPG,,ISIC_5509946.JPG,,25,true,0.15000000000000002,hl,keypress(j),0,false,297139.39999997616,297139,293098.388,293107.89999997616,293114.962,297156.154,1,40,19,
sequence,flow.Sequence,6_18,2023-11-20T20:33:22.013Z,,,,,,,,,,,4024.0380000000005,completion,,,,,,,high,high,,,,,,,true,,,,,false,297139.89999997616,297139,293098.388,293107.6999999285,293114.962,297156.154,1,40,,
trial,html.Screen,6_19_0,2023-11-20T20:33:24.996Z,,,,1,-1.152619213055059,-1.2957497771092716,,,false,hh,2966.445999904652,response,1.1168199061753437,1.2,-1.2,1.212287319329914,1.2,-1.2,high,high,,ISIC_0061915.JPG,,ISIC_5919355.JPG,,25,true,0.15000000000000002,hl,keypress(j),0,false,300123,300122.59999990463,297139.622,297140.1999999285,297156.154,300128.581,1,40,20,
sequence,flow.Sequence,6_19,2023-11-20T20:33:24.997Z,,,,,,,,,,,2966.445999904652,completion,,,,,,,high,high,,,,,,,true,,,,,false,300123.5,300122.59999990463,297139.622,297140,297156.154,300128.581,1,40,,
trial,html.Screen,6_20_0,2023-11-20T20:33:28.172Z,,,,1,-1.194799101954455,-1.2071632388858642,,,true,hh,3170.018999904627,response,1.204229955025689,1.2,-1.2,1.0874249761617445,1.2,-1.2,high,high,,ISIC_4347535.JPG,,ISIC_0056930.JPG,,25,true,0.15000000000000002,hh,keypress(i),0,false,303299,303298.59999990463,300112.072,300123.7999999523,300128.581,303334.823,1,40,21,
sequence,flow.Sequence,6_20,2023-11-20T20:33:28.173Z,,,,,,,,,,,3170.018999904627,completion,,,,,,,high,high,,,,,,,true,,,,,false,303299.5,303298.59999990463,300112.072,300123.6999999285,300128.581,303334.823,1,40,,
trial,html.Screen,6_21_0,2023-11-20T20:33:32.717Z,,,,1,-0.9566823908868002,0.9602125665128364,,,false,hl,4508.3769999285,response,1.2615315960773072,1.2,-1.2,-1.194084675079932,1.2,-1.2,high,low,,ISIC_0056784.JPG,,ISIC_0010044.JPG,,29,true,0.3600000000000002,lh,keypress(e),0,false,307843.5,307843.1999999285,303284.691,303299.6999999285,303334.823,307860.327,1,40,22,
sequence,flow.Sequence,6_21,2023-11-20T20:33:32.717Z,,,,,,,,,,,4508.3769999285,completion,,,,,,,high,low,,,,,,,true,,,,,false,307844.09999990463,307843.1999999285,303284.691,303299.59999990463,303334.823,307860.327,1,40,,
trial,html.Screen,6_22_0,2023-11-20T20:33:37.923Z,,,,1,-0.9046170303418553,1.0063426986460375,,,false,hl,5189.072999976168,response,1.2838089642212804,1.2,-1.2,-0.8550527900640753,1.2,-1.2,high,low,,ISIC_0055759.JPG,,ISIC_0034187.JPG,,29,true,0.3600000000000002,lh,keypress(e),0,false,313049.59999990463,313049.39999997616,307843.773,307844.2999999523,307860.327,313070.468,1,40,23,
sequence,flow.Sequence,6_22,2023-11-20T20:33:37.923Z,,,,,,,,,,,5189.072999976168,completion,,,,,,,high,low,,,,,,,true,,,,,false,313049.6999999285,313049.39999997616,307843.773,307844.1999999285,307860.327,313070.468,1,40,,
trial,html.Screen,6_23_0,2023-11-20T20:33:42.540Z,,,,1,-1.052305774554686,1.3940181224717798,,,false,hl,4596.231999928481,response,1.1224745971429997,1.2,-1.2,-0.8423270217438888,1.2,-1.2,high,low,,ISIC_4175400.JPG,,ISIC_0057032.JPG,,29,true,0.3600000000000002,lh,keypress(e),0,false,317667,317666.6999999285,313037.032,313049.6999999285,313070.468,317679.443,1,40,24,
sequence,flow.Sequence,6_23,2023-11-20T20:33:42.541Z,,,,,,,,,,,4596.231999928481,completion,,,,,,,high,low,,,,,,,true,,,,,false,317667.5,317666.6999999285,313037.032,313049.6999999285,313070.468,317679.443,1,40,,
trial,html.Screen,6_24_0,2023-11-20T20:33:44.197Z,,,,1,1.1604734171556077,1.0789312625280616,,,false,ll,1643.4569999761297,response,-1.2282561398079586,1.2,-1.2,-1.4704753321872233,1.2,-1.2,low,low,,ISIC_3950753.JPG,,ISIC_9141817.JPG,,211,true,0.3300000000000002,lh,keypress(e),0,false,319323.2999999523,319322.89999997616,317662.834,317667.6999999285,317679.443,319349.35,1,40,25,
sequence,flow.Sequence,6_24,2023-11-20T20:33:44.197Z,,,,,,,,,,,1643.4569999761297,completion,,,,,,,low,low,,,,,,,true,,,,,false,319323.89999997616,319322.89999997616,317662.834,317667.59999990463,317679.443,319349.35,1,40,,
trial,html.Screen,6_25_0,2023-11-20T20:33:47.148Z,,,,1,0.8494721812820843,-1.3435429139974266,,,false,lh,2925.4499999523396,response,-1.0822170028935367,1.2,-1.2,1.1654796154432183,1.2,-1.2,low,high,,ISIC_0033585.JPG,,ISIC_7288818.JPG,,26,true,0.3300000000000002,hl,keypress(j),0,false,322275.1999999285,322274.7999999523,319316.188,319324.2999999523,319349.35,322288.41,1,40,26,
sequence,flow.Sequence,6_25,2023-11-20T20:33:47.149Z,,,,,,,,,,,2925.4499999523396,completion,,,,,,,low,high,,,,,,,true,,,,,false,322275.59999990463,322274.7999999523,319316.188,319324.1999999285,319349.35,322288.41,1,40,,
trial,html.Screen,6_26_0,2023-11-20T20:33:56.653Z,,,,1,-1.2043484010107477,1.2178113180138233,,,false,hl,9490.489999976184,response,0.9445114955578736,1.2,-1.2,-1.0054210059625863,1.2,-1.2,high,low,,ISIC_0011917.JPG,,ISIC_0033807.JPG,,29,true,0.3600000000000002,hh,keypress(i),0,false,331779.1999999285,331778.89999997616,322271.926,322275.89999997616,322288.41,331806.936,1,40,27,
sequence,flow.Sequence,6_26,2023-11-20T20:33:56.653Z,,,,,,,,,,,9490.489999976184,completion,,,,,,,high,low,,,,,,,true,,,,,false,331779.59999990463,331778.89999997616,322271.926,322275.7999999523,322288.41,331806.936,1,40,,
trial,html.Screen,6_27_0,2023-11-20T20:33:59.764Z,,,,1,1.1235224875125256,-0.8641223012137988,,,false,lh,3083.564000000013,response,-0.9873794329144926,1.2,-1.2,0.9500689037516484,1.2,-1.2,low,high,,ISIC_0033901.JPG,,ISIC_0013498.JPG,,26,true,0.3300000000000002,hl,keypress(j),0,false,334890.89999997616,334890.5,331773.448,331780,331806.936,334912.975,1,40,28,
sequence,flow.Sequence,6_27,2023-11-20T20:33:59.765Z,,,,,,,,,,,3083.564000000013,completion,,,,,,,low,high,,,,,,,true,,,,,false,334891.2999999523,334890.5,331773.448,331779.7999999523,331806.936,334912.975,1,40,,
trial,html.Screen,6_28_0,2023-11-20T20:34:03.636Z,,,,1,1.1235224875125256,-0.8641223012137988,,,false,lh,3849.8249999523396,response,-1.2463522959513311,1.2,-1.2,0.8691422647859491,1.2,-1.2,low,high,,ISIC_0033901.JPG,,ISIC_0057192.JPG,,33,true,0.3600000000000002,hl,keypress(j),0,false,338763.09999990463,338762.7999999523,334879.794,334891.59999990463,334912.975,338787.185,1,40,29,
sequence,flow.Sequence,6_28,2023-11-20T20:34:03.637Z,,,,,,,,,,,3849.8249999523396,completion,,,,,,,low,high,,,,,,,true,,,,,false,338763.59999990463,338762.7999999523,334879.794,334891.5,334912.975,338787.185,1,40,,
trial,html.Screen,6_29_0,2023-11-20T20:34:06.508Z,,,,1,0.8779374983479176,-0.9745548032823428,,,false,lh,2847.5149999284768,response,-1.296989496412063,1.2,-1.2,1.1425074323097002,1.2,-1.2,low,high,,ISIC_2991354.JPG,,ISIC_6356803.JPG,,33,true,0.3600000000000002,hl,keypress(j),0,false,341635,341634.6999999285,338753.889,338763.89999997616,338787.185,341676.146,1,40,30,
sequence,flow.Sequence,6_29,2023-11-20T20:34:06.509Z,,,,,,,,,,,2847.5149999284768,completion,,,,,,,low,high,,,,,,,true,,,,,false,341635.39999997616,341634.6999999285,338753.889,338763.7999999523,338787.185,341676.146,1,40,,
trial,html.Screen,6_30_0,2023-11-20T20:34:10.253Z,,,,1,-0.9873794329144926,0.9500689037516484,,,false,hl,3702.75399997615,response,0.9039158082670506,1.2,-1.2,-1.0517562064343149,1.2,-1.2,high,low,,ISIC_0013498.JPG,,ISIC_0015411.JPG,,29,true,0.3600000000000002,lh,keypress(e),0,false,345379.2999999523,345378.89999997616,341626.199,341635.6999999285,341676.146,345400.063,1,40,31,
sequence,flow.Sequence,6_30,2023-11-20T20:34:10.253Z,,,,,,,,,,,3702.75399997615,completion,,,,,,,high,low,,,,,,,true,,,,,false,345379.7999999523,345378.89999997616,341626.199,341635.59999990463,341676.146,345400.063,1,40,,
trial,html.Screen,6_31_0,2023-11-20T20:34:13.261Z,,,,1,-1.055319394932912,1.409116680310466,,,false,hl,2986.7369999522925,response,1.3515962101204746,1.2,-1.2,-0.8414583575292955,1.2,-1.2,high,low,,ISIC_6398669.JPG,,ISIC_0274382.JPG,,29,true,0.3600000000000002,lh,keypress(e),0,false,348387.09999990463,348386.7999999523,345366.868,345380.09999990463,345400.063,348406.545,1,40,32,
sequence,flow.Sequence,6_31,2023-11-20T20:34:13.261Z,,,,,,,,,,,2986.7369999522925,completion,,,,,,,high,low,,,,,,,true,,,,,false,348387.6999999285,348386.7999999523,345366.868,345380,345400.063,348406.545,1,40,,
trial,html.Screen,6_32_0,2023-11-20T20:34:16.899Z,,,,1,-1.1227373144244253,-1.1886610799377713,,,false,hh,3619.054999904649,response,1.3471772753257971,1.2,-1.2,1.055978100098093,1.2,-1.2,high,high,,ISIC_0059506.JPG,,ISIC_2077116.JPG,,127,true,0.3300000000000002,hl,keypress(j),0,false,352025.7999999523,352025.59999990463,348372.59,348387.89999997616,348406.545,352062.999,1,40,33,
sequence,flow.Sequence,6_32,2023-11-20T20:34:16.900Z,,,,,,,,,,,3619.054999904649,completion,,,,,,,high,high,,,,,,,true,,,,,false,352025.89999997616,352025.59999990463,348372.59,348387.89999997616,348406.545,352062.999,1,40,,
trial,html.Screen,6_33_0,2023-11-20T20:34:20.597Z,,,,1,-0.9670240379618178,1.1806404773220665,,,false,hl,3660.100999904622,response,1.4748095371445096,1.2,-1.2,-0.9579010801034902,1.2,-1.2,high,low,,ISIC_0002288.JPG,,ISIC_0033216.JPG,,29,true,0.3600000000000002,lh,keypress(e),0,false,355723.5,355723.09999990463,352013.113,352026,352062.999,355736.91,1,40,34,
sequence,flow.Sequence,6_33,2023-11-20T20:34:20.598Z,,,,,,,,,,,3660.100999904622,completion,,,,,,,high,low,,,,,,,true,,,,,false,355723.89999997616,355723.09999990463,352013.113,352026,352062.999,355736.91,1,40,,
trial,html.Screen,6_34_0,2023-11-20T20:34:22.453Z,,,,1,1.212030980680325,1.139863018685685,,,false,ll,1841.7899999285,response,-0.8984767404401109,1.2,-1.2,-1.0289479104867394,1.2,-1.2,low,low,,ISIC_0008510.JPG,,ISIC_0011458.JPG,,211,true,0.3300000000000002,lh,keypress(e),0,false,357579,357578.6999999285,355720.272,355724.09999990463,355736.91,357640.517,1,40,35,
sequence,flow.Sequence,6_34,2023-11-20T20:34:22.453Z,,,,,,,,,,,1841.7899999285,completion,,,,,,,low,low,,,,,,,true,,,,,false,357579.59999990463,357578.6999999285,355720.272,355724.09999990463,355736.91,357640.517,1,40,,
trial,html.Screen,6_35_0,2023-11-20T20:34:26.684Z,,,,1,0.849847885203758,-0.973447384095442,,,false,lh,4169.983000000007,response,-0.9212323139676136,1.2,-1.2,0.9882196642247332,1.2,-1.2,low,high,,ISIC_9612228.JPG,,ISIC_0014255.JPG,,26,true,0.3300000000000002,ll,keypress(f),0,false,361810.7999999523,361810.5,357573.913,357579.7999999523,357640.517,361832.043,1,40,36,
sequence,flow.Sequence,6_35,2023-11-20T20:34:26.685Z,,,,,,,,,,,4169.983000000007,completion,,,,,,,low,high,,,,,,,true,,,,,false,361811.1999999285,361810.5,357573.913,357579.7999999523,357640.517,361832.043,1,40,,
trial,html.Screen,6_36_0,2023-11-20T20:34:29.909Z,,,,1,0.9445114955578736,-1.0054210059625863,,,false,lh,3202.856999976153,response,-0.9566823908868002,1.2,-1.2,0.9602125665128364,1.2,-1.2,low,high,,ISIC_0033807.JPG,,ISIC_0056784.JPG,,33,true,0.3600000000000002,hl,keypress(j),0,false,365035.09999990463,365034.89999997616,361798.848,361811.5,361832.043,365038.366,1,40,37,
sequence,flow.Sequence,6_36,2023-11-20T20:34:29.909Z,,,,,,,,,,,3202.856999976153,completion,,,,,,,low,high,,,,,,,true,,,,,false,365035.6999999285,365034.89999997616,361798.848,361811.39999997616,361832.043,365038.366,1,40,,
trial,html.Screen,6_37_0,2023-11-20T20:34:33.477Z,,,,1,1.053007132776416,1.341217082060068,,,false,ll,3564.8339999284944,response,-0.8868080718134892,1.2,-1.2,-0.8837963869804757,1.2,-1.2,low,low,,ISIC_0024208.JPG,,ISIC_0068895.JPG,,249,true,0.3600000000000002,lh,keypress(e),0,false,368603.5,368603.1999999285,365021.717,365035.89999997616,365038.366,368611.992,1,40,38,
sequence,flow.Sequence,6_37,2023-11-20T20:34:33.478Z,,,,,,,,,,,3564.8339999284944,completion,,,,,,,low,low,,,,,,,true,,,,,false,368604,368603.1999999285,365021.717,365035.7999999523,365038.366,368611.992,1,40,,
trial,html.Screen,6_38_0,2023-11-20T20:34:40.180Z,,,,1,-1.250220052739973,-1.2967258992731714,,,false,hh,6693.907999976131,response,1.1305948371148624,1.2,-1.2,1.2802709447034604,1.2,-1.2,high,high,,ISIC_0031368.JPG,,ISIC_5648111.JPG,,25,true,0.15000000000000002,hl,keypress(j),0,false,375306.1999999285,375305.89999997616,368595.264,368604.2999999523,368611.992,375308.296,1,40,39,
sequence,flow.Sequence,6_38,2023-11-20T20:34:40.180Z,,,,,,,,,,,6693.907999976131,completion,,,,,,,high,high,,,,,,,true,,,,,false,375306.39999997616,375305.89999997616,368595.264,368604.1999999285,368611.992,375308.296,1,40,,
trial,html.Screen,6_39_0,2023-11-20T20:34:49.748Z,,,,1,-1.2289750544294995,-1.3003764624334877,,,true,hh,9565.603999976185,response,1.0581281450494728,1.2,-1.2,1.133169116569424,1.2,-1.2,high,high,,ISIC_0054167.JPG,,ISIC_5490352.JPG,,25,true,0.15000000000000002,hh,keypress(i),0,false,384874,384873.89999997616,375291.626,375306.5,375308.296,384876.896,1,40,40,
sequence,flow.Sequence,6_39,2023-11-20T20:34:49.748Z,,,,,,,,,,,9565.603999976185,completion,,,,,,,high,high,,,,,,,true,,,,,false,384874.2999999523,384873.89999997616,375291.626,375306.5,375308.296,384876.896,1,40,,
practice_loop,flow.Loop,6,2023-11-20T20:34:49.748Z,,,,,,,,,,,196245.65499997616,completion,,,,,,,,,,,,,,,true,,,,,false,384874.2999999523,384873.89999997616,188611.803,188625,188628.245,384876.896,1,40,,
stair_instructions,html.Screen,7,2023-11-20T20:34:56.891Z,,,,,,,,,,,7140.00399997615,response,,,,,,,,,,,,,,,,,continue,click button,,,392017.59999990463,392016.89999997616,384860.384,384874.39999997616,384876.896,392040.808,,,,
trial,html.Screen,8_0_0,2023-11-20T20:35:06.364Z,,,,2,0.0327772618698018,-0.0056908372048728,,0.04,true,lh,9448.891999928455,response,-1.1547137855907486,1.2,-1.2,1.0185275168641534,1.2,-1.2,low,high,,ISIC_7897925.JPG,,ISIC_7604870.JPG,28,26,false,0.3300000000000002,lh,keypress(e),0,true,401489.89999997616,401489.6999999285,392007.419,392017.59999990463,392040.808,401509.263,1,40,1,
sequence,flow.Sequence,8_0,2023-11-20T20:35:06.364Z,,,,,,,,,,,9448.891999928455,completion,,,,,,,low,high,,,,,,,false,,,,,true,401490,401489.6999999285,392007.419,392017.59999990463,392040.808,401509.263,1,40,,
trial,html.Screen,8_1_0,2023-11-20T20:35:16.437Z,,,,2,-0.012810673904807,0.00400964452501,,0.04,false,hl,10053.636999976181,response,1.3515962101204746,1.15,-1.15,-0.8414583575292955,1.15,-1.15,high,low,,ISIC_0064656.JPG,,ISIC_0274382.JPG,28,27,false,0.31000000000000016,lh,keypress(e),0,true,411563.1999999285,411562.89999997616,401492.566,401490,401509.263,411578.903,1,40,2,
sequence,flow.Sequence,8_1,2023-11-20T20:35:16.438Z,,,,,,,,,,,10053.636999976181,completion,,,,,,,high,low,,,,,,,false,,,,,true,411563.59999990463,411562.89999997616,401492.566,401490,401509.263,411578.903,1,40,,
trial,html.Screen,8_2_0,2023-11-20T20:35:19.349Z,,,,2,-0.0377791839943904,0.0227626648172468,,0.04,false,hl,2895.7969999284833,response,1.3411487193830047,1.15,-1.15,-1.198640448317381,1.15,-1.15,high,low,,ISIC_7167479.JPG,,ISIC_3093026.JPG,28,27,false,0.31000000000000016,lh,keypress(e),0,true,414475,414474.6999999285,411562.081,411563.7999999523,411578.903,414501.205,1,40,3,
sequence,flow.Sequence,8_2,2023-11-20T20:35:19.350Z,,,,,,,,,,,2895.7969999284833,completion,,,,,,,high,low,,,,,,,false,,,,,true,414475.59999990463,414474.6999999285,411562.081,411563.6999999285,411578.903,414501.205,1,40,,
trial,html.Screen,8_3_0,2023-11-20T20:35:21.605Z,,,,2,-0.0050679133050021,-0.0174815595031679,,0.04,false,hl,2229.694999976142,response,1.2838089642212804,1.15,-1.15,-0.8550527900640753,1.15,-1.15,high,low,,ISIC_9848743.JPG,,ISIC_0034187.JPG,28,27,false,0.31000000000000016,lh,keypress(e),0,true,416731.09999990463,416730.89999997616,414467.821,414475.7999999523,414501.205,416738.929,1,40,4,
sequence,flow.Sequence,8_3,2023-11-20T20:35:21.606Z,,,,,,,,,,,2229.694999976142,completion,,,,,,,high,low,,,,,,,false,,,,,true,416731.59999990463,416730.89999997616,414467.821,414475.6999999285,414501.205,416738.929,1,40,,
trial,html.Screen,8_4_0,2023-11-20T20:35:23.709Z,,,,2,-0.0023664502831079,-0.0252784582169994,,0.04,false,hl,2095.9709999761544,response,0.9445114955578736,1.15,-1.15,-1.0054210059625863,1.15,-1.15,high,low,,ISIC_4156010.JPG,,ISIC_0033807.JPG,28,27,false,0.31000000000000016,lh,keypress(e),0,true,418835.1999999285,418834.89999997616,416722.447,416731.7999999523,416738.929,418843.017,1,40,5,
sequence,flow.Sequence,8_4,2023-11-20T20:35:23.710Z,,,,,,,,,,,2095.9709999761544,completion,,,,,,,high,low,,,,,,,false,,,,,true,418835.7999999523,418834.89999997616,416722.447,416731.7999999523,416738.929,418843.017,1,40,,
trial,html.Screen,8_5_0,2023-11-20T20:35:28.229Z,,,,2,-0.012020985739544,0.0126097407389903,,0.04,false,hl,4511.58299990464,response,0.849847885203758,1.15,-1.15,-0.973447384095442,1.15,-1.15,high,low,,ISIC_0069379.JPG,,ISIC_9612228.JPG,28,27,false,0.31000000000000016,ll,keypress(f),0,true,423354.7999999523,423354.59999990463,418826.52,418836,418843.017,423368.556,1,40,6,
sequence,flow.Sequence,8_5,2023-11-20T20:35:28.229Z,,,,,,,,,,,4511.58299990464,completion,,,,,,,high,low,,,,,,,false,,,,,true,423355.09999990463,423354.59999990463,418826.52,418836,418843.017,423368.556,1,40,,
trial,html.Screen,8_6_0,2023-11-20T20:35:30.188Z,,,,2,0.0051046740562181,-0.0178832721027728,,0.04,false,hh,1944.9440000000177,response,1.1638334638021437,1.15,-1.15,1.0846635401396965,1.15,-1.15,high,high,,ISIC_9545819.JPG,,ISIC_4718313.JPG,28,26,false,0.14,ll,keypress(f),0,true,425313.59999990463,425313.5,423352.029,423355.2999999523,423368.556,425322.296,1,40,7,
sequence,flow.Sequence,8_6,2023-11-20T20:35:30.188Z,,,,,,,,,,,1944.9440000000177,completion,,,,,,,high,high,,,,,,,false,,,,,true,425313.6999999285,425313.5,423352.029,423355.2999999523,423368.556,425322.296,1,40,,
trial,html.Screen,8_7_0,2023-11-20T20:35:31.964Z,,,,2,0.0365981355399771,0.0162670920008846,,0.04,false,hh,1767.204000000027,response,1.1305948371148624,1.15,-1.15,1.2802709447034604,1.15,-1.15,high,high,,ISIC_0982855.JPG,,ISIC_5648111.JPG,28,26,false,0.14,ll,keypress(f),0,true,427089.59999990463,427089.5,425305.574,425313.7999999523,425322.296,427092.417,1,40,8,
sequence,flow.Sequence,8_7,2023-11-20T20:35:31.964Z,,,,,,,,,,,1767.204000000027,completion,,,,,,,high,high,,,,,,,false,,,,,true,427089.6999999285,427089.5,425305.574,425313.6999999285,425322.296,427092.417,1,40,,
trial,html.Screen,8_8_0,2023-11-20T20:35:35.021Z,,,,2,-0.012810673904807,0.00400964452501,,0.04,false,hh,3054.4829999761423,response,1.1990772227054871,1.15,-1.15,1.1224329926844498,1.15,-1.15,high,high,,ISIC_0064656.JPG,,ISIC_3425388.JPG,28,26,false,0.14,hl,keypress(j),0,true,430147.1999999285,430146.89999997616,427075.683,427089.6999999285,427092.417,430165.056,1,40,9,
sequence,flow.Sequence,8_8,2023-11-20T20:35:35.022Z,,,,,,,,,,,3054.4829999761423,completion,,,,,,,high,high,,,,,,,false,,,,,true,430147.6999999285,430146.89999997616,427075.683,427089.6999999285,427092.417,430165.056,1,40,,
trial,html.Screen,8_9_0,2023-11-20T20:35:37.349Z,,,,2,-0.0158987717472563,-0.0292472192292015,,0.04,false,lh,2309.743999952334,response,-1.0264463986917702,1.15,-1.15,1.171271535505083,1.15,-1.15,low,high,,ISIC_1366765.JPG,,ISIC_7889838.JPG,28,25,false,0.28000000000000014,ll,keypress(f),0,true,432475.09999990463,432474.7999999523,430148.327,430147.89999997616,430165.056,432486.247,1,40,10,
sequence,flow.Sequence,8_9,2023-11-20T20:35:37.350Z,,,,,,,,,,,2309.743999952334,completion,,,,,,,low,high,,,,,,,false,,,,,true,432475.59999990463,432474.7999999523,430148.327,430147.7999999523,430165.056,432486.247,1,40,,
trial,html.Screen,8_10_0,2023-11-20T20:35:42.125Z,,,,2,0.0127320821962457,-0.0315308940184827,,0.04,false,ll,4764.552999952342,response,-1.0441672988386008,1.15,-1.0999999999999999,-1.108916716139547,1.15,-1.15,low,low,,ISIC_8156101.JPG,,ISIC_0063243.JPG,28,29,false,0.11,lh,keypress(e),0,true,437251.1999999285,437250.7999999523,432469.539,432475.7999999523,432486.247,437262.204,1,40,11,
sequence,flow.Sequence,8_10,2023-11-20T20:35:42.126Z,,,,,,,,,,,4764.552999952342,completion,,,,,,,low,low,,,,,,,false,,,,,true,437251.59999990463,437250.7999999523,432469.539,432475.7999999523,432486.247,437262.204,1,40,,
trial,html.Screen,8_11_0,2023-11-20T20:35:45.021Z,,,,2,-0.012020985739544,0.0126097407389903,,0.04,false,hh,2884.695999976131,response,1.2254777618346506,1.15,-1.0999999999999999,1.0356416330964822,1.15,-1.15,high,high,,ISIC_0069379.JPG,,ISIC_1054090.JPG,28,26,false,0.14,hl,keypress(j),0,true,440147.1999999285,440146.89999997616,437245.725,437251.89999997616,437262.204,440167.857,1,40,12,
sequence,flow.Sequence,8_11,2023-11-20T20:35:45.022Z,,,,,,,,,,,2884.695999976131,completion,,,,,,,high,high,,,,,,,false,,,,,true,440147.7999999523,440146.89999997616,437245.725,437251.89999997616,437262.204,440167.857,1,40,,
trial,html.Screen,8_12_0,2023-11-20T20:35:48.589Z,,,,2,-0.0399381815506136,-0.0177751789152893,,0.04,false,hl,3546.942999952298,response,0.8534691366511764,1.0999999999999999,-1.0999999999999999,-1.276663727068437,1.15,-1.15,high,low,,ISIC_3981425.JPG,,ISIC_0056788.JPG,28,27,false,0.30000000000000016,lh,keypress(e),0,true,443715.09999990463,443714.7999999523,440134.636,440148,440167.857,443724.792,1,40,13,
sequence,flow.Sequence,8_12,2023-11-20T20:35:48.590Z,,,,,,,,,,,3546.942999952298,completion,,,,,,,high,low,,,,,,,false,,,,,true,443715.59999990463,443714.7999999523,440134.636,440148,440167.857,443724.792,1,40,,
trial,html.Screen,8_13_0,2023-11-20T20:35:50.333Z,,,,2,-0.00126575685933,-0.0325046559638838,,0.04,false,ll,1734.3079999046167,response,-1.0762260610050776,1.15,-1.0999999999999999,-1.1184338818466155,1.15,-1.15,low,low,,ISIC_5682259.JPG,,ISIC_0058666.JPG,28,29,false,0.11,lh,keypress(e),0,true,445459.39999997616,445459.09999990463,443708.277,443715.89999997616,443724.792,445478.695,1,40,14,
sequence,flow.Sequence,8_13,2023-11-20T20:35:50.334Z,,,,,,,,,,,1734.3079999046167,completion,,,,,,,low,low,,,,,,,false,,,,,true,445459.89999997616,445459.09999990463,443708.277,443715.89999997616,443724.792,445478.695,1,40,,
trial,html.Screen,8_14_0,2023-11-20T20:35:52.261Z,,,,2,0.0327772618698018,-0.0056908372048728,,0.04,false,lh,1908.4049999046256,response,-0.8035152873995188,1.15,-1.0101966799218391,1.2407642249743125,1.15,-1.15,low,high,,ISIC_7897925.JPG,,ISIC_0010671.JPG,28,28,false,0.2300000000000001,hl,keypress(j),0,true,447387.5,447387.09999990463,445445.003,445460.1999999285,445478.695,447398.614,1,40,15,
sequence,flow.Sequence,8_14,2023-11-20T20:35:52.262Z,,,,,,,,,,,1908.4049999046256,completion,,,,,,,low,high,,,,,,,false,,,,,true,447387.89999997616,447387.09999990463,445445.003,445460.09999990463,445478.695,447398.614,1,40,,
trial,html.Screen,8_15_0,2023-11-20T20:35:56.444Z,,,,2,-0.0060918352854008,0.029032683404407,,0.04,false,hh,4171.185999952315,response,1.1990772227054871,1.15,-1.0601966799218392,1.1224329926844498,1.15,-1.15,high,high,,ISIC_8436194.JPG,,ISIC_3425388.JPG,28,26,false,0.14,hl,keypress(j),0,true,451569.89999997616,451569.7999999523,447382.117,447388.1999999285,447398.614,451590.085,1,40,16,
sequence,flow.Sequence,8_15,2023-11-20T20:35:56.444Z,,,,,,,,,,,4171.185999952315,completion,,,,,,,high,high,,,,,,,false,,,,,true,451570.09999990463,451569.7999999523,447382.117,447388.09999990463,447398.614,451590.085,1,40,,
trial,html.Screen,8_16_0,2023-11-20T20:35:59.262Z,,,,2,-0.0158987717472563,-0.0292472192292015,,0.04,false,hl,2797.2149999522953,response,0.8479396253253069,1.15,-1.0601966799218392,-1.011054319516718,1.15,-1.15,high,low,,ISIC_1366765.JPG,,ISIC_0063521.JPG,28,27,false,0.31000000000000016,ll,keypress(f),0,true,454387.6999999285,454387.2999999523,451556.921,451570.09999990463,451590.085,454395.57,1,40,17,
sequence,flow.Sequence,8_16,2023-11-20T20:35:59.263Z,,,,,,,,,,,2797.2149999522953,completion,,,,,,,high,low,,,,,,,false,,,,,true,454388.5,454387.2999999523,451556.921,451570.09999990463,451590.085,454395.57,1,40,,
trial,html.Screen,8_17_0,2023-11-20T20:36:05.516Z,,,,2,0.010035581303589,-0.0100711721396864,,0.04,false,lh,6246.129999928467,response,-0.9670240379618178,1.15,-1.0601966799218392,1.1806404773220665,1.15,-1.15,low,high,,ISIC_0030592.JPG,,ISIC_0002288.JPG,28,25,false,0.2400000000000001,hl,keypress(j),0,true,460641.7999999523,460641.6999999285,454379.01,454388.7999999523,454395.57,460657.825,1,40,18,
sequence,flow.Sequence,8_17,2023-11-20T20:36:05.516Z,,,,,,,,,,,6246.129999928467,completion,,,,,,,low,high,,,,,,,false,,,,,true,460642,460641.6999999285,454379.01,454388.7999999523,454395.57,460657.825,1,40,,
trial,html.Screen,8_18_0,2023-11-20T20:36:19.030Z,,,,2,-0.0158987717472563,-0.0292472192292015,,0.04,false,ll,13497.774999904621,response,-1.1671212908494544,1.15,-1.1101966799218392,-1.1286681796701683,1.15,-1.15,low,low,,ISIC_1366765.JPG,,ISIC_0065022.JPG,28,27,false,0.11,lh,keypress(e),0,true,474156,474155.59999990463,460641.127,460642.09999990463,460657.825,474167.377,1,40,19,
sequence,flow.Sequence,8_18,2023-11-20T20:36:19.031Z,,,,,,,,,,,13497.774999904621,completion,,,,,,,low,low,,,,,,,false,,,,,true,474156.5,474155.59999990463,460641.127,460642.09999990463,460657.825,474167.377,1,40,,
trial,html.Screen,8_19_0,2023-11-20T20:36:21.150Z,,,,2,-0.0118555311043871,-0.0087774532070196,,0.04,false,hh,2107.6230000000214,response,1.204229955025689,1.15,-1.1101966799218392,1.0874249761617445,1.15,-1.15,high,high,,ISIC_6488658.JPG,,ISIC_0056930.JPG,28,26,false,0.14,lh,keypress(e),0,true,476275.5,476275,474150.801,474156.7999999523,474167.377,476288.227,1,40,20,
sequence,flow.Sequence,8_19,2023-11-20T20:36:21.150Z,,,,,,,,,,,2107.6230000000214,completion,,,,,,,high,high,,,,,,,false,,,,,true,476276,476275,474150.801,474156.6999999285,474167.377,476288.227,1,40,,
trial,html.Screen,8_20_0,2023-11-20T20:36:23.733Z,,,,2,0.0086413421586899,0.0360184993500958,,0.04,false,ll,2570.6729999761446,response,-1.1320017221158485,1.15,-1.1101966799218392,-1.065213496692536,1.15,-1.15,low,low,,ISIC_0010767.JPG,,ISIC_0030597.JPG,28,27,false,0.11,lh,keypress(e),0,true,478859.2999999523,478858.89999997616,476271.679,476276.2999999523,476288.227,478876.6,1,40,21,
sequence,flow.Sequence,8_20,2023-11-20T20:36:23.734Z,,,,,,,,,,,2570.6729999761446,completion,,,,,,,low,low,,,,,,,false,,,,,true,478859.7999999523,478858.89999997616,476271.679,476276.1999999285,476288.227,478876.6,1,40,,
trial,html.Screen,8_21_0,2023-11-20T20:36:25.541Z,,,,2,0.0367218428225813,-0.0026956749740767,,0.04,false,hh,1790.1999999523396,response,1.0375203228848855,1.15,-1.0601966799218392,1.0256934713188917,1.15,-1.15,high,high,,ISIC_7212271.JPG,,ISIC_4264600.JPG,28,26,false,0.14,ll,keypress(f),0,true,480667.1999999285,480666.7999999523,478860.072,478860,478876.6,480680.234,1,40,22,
sequence,flow.Sequence,8_21,2023-11-20T20:36:25.542Z,,,,,,,,,,,1790.1999999523396,completion,,,,,,,high,high,,,,,,,false,,,,,true,480667.7999999523,480666.7999999523,478860.072,478859.89999997616,478876.6,480680.234,1,40,,
trial,html.Screen,8_22_0,2023-11-20T20:36:29.286Z,,,,2,-0.012020985739544,0.0126097407389903,,0.04,false,ll,3730.865999904636,response,-0.9866439901618108,1.15,-1.0601966799218392,-1.1327283202367815,1.15,-1.15,low,low,,ISIC_0069379.JPG,,ISIC_0072953.JPG,28,27,false,0.1,hh,keypress(i),0,true,484411.39999997616,484411.09999990463,480663.505,480668.09999990463,480680.234,484420.662,1,40,23,
sequence,flow.Sequence,8_22,2023-11-20T20:36:29.286Z,,,,,,,,,,,3730.865999904636,completion,,,,,,,low,low,,,,,,,false,,,,,true,484411.89999997616,484411.09999990463,480663.505,480668,480680.234,484420.662,1,40,,
trial,html.Screen,8_23_0,2023-11-20T20:36:32.326Z,,,,2,-0.0023664502831079,-0.0252784582169994,,0.04,true,lh,3030.637999952305,response,-1.0961318727760048,1.15,-1.1101966799218392,1.2134960228256146,1.15,-1.15,low,high,,ISIC_4156010.JPG,,ISIC_9768421.JPG,28,25,false,0.2500000000000001,lh,keypress(e),0,true,487451.5,487451.2999999523,484404.156,484412.1999999285,484420.662,487459.926,1,40,24,
sequence,flow.Sequence,8_23,2023-11-20T20:36:32.326Z,,,,,,,,,,,3030.637999952305,completion,,,,,,,low,high,,,,,,,false,,,,,true,487452.09999990463,487451.2999999523,484404.156,484412.09999990463,484420.662,487459.926,1,40,,
trial,html.Screen,8_24_0,2023-11-20T20:36:34.110Z,,,,2,0.0189295602385628,0.0128812415435153,,0.04,false,lh,1775.0740000000224,response,-1.052305774554686,1.15,-1.1101966799218392,1.3940181224717798,1.15,-1.15,low,high,,ISIC_0010372.JPG,,ISIC_4175400.JPG,28,25,false,0.2500000000000001,ll,keypress(f),0,true,489235.2999999523,489235,487443.323,487452.39999997616,487459.926,489263.447,1,40,25,
sequence,flow.Sequence,8_24,2023-11-20T20:36:34.110Z,,,,,,,,,,,1775.0740000000224,completion,,,,,,,low,high,,,,,,,false,,,,,true,489235.7999999523,489235,487443.323,487452.2999999523,487459.926,489263.447,1,40,,
trial,html.Screen,8_25_0,2023-11-20T20:36:36.629Z,,,,2,0.0321039635696159,0.020496766286318,,0.04,true,hl,2491.4529999761726,response,1.1890109863264902,1.15,-1.0601966799218392,-0.8867825318561365,1.15,-1.15,high,low,,ISIC_0058063.JPG,,ISIC_0072576.JPG,28,27,false,0.31000000000000016,hl,keypress(j),0,true,491755.2999999523,491754.89999997616,489230.024,489236.09999990463,489263.447,491768.381,1,40,26,
sequence,flow.Sequence,8_25,2023-11-20T20:36:36.630Z,,,,,,,,,,,2491.4529999761726,completion,,,,,,,high,low,,,,,,,false,,,,,true,491755.6999999285,491754.89999997616,489230.024,489236.09999990463,489263.447,491768.381,1,40,,
trial,html.Screen,8_26_0,2023-11-20T20:36:40.501Z,,,,2,-0.0050679133050021,-0.0174815595031679,,0.04,false,ll,3858.119000000006,response,-0.9695913930841004,1.15,-1.0601966799218392,-1.2261129408494682,1.15,-1.15,low,low,,ISIC_9848743.JPG,,ISIC_0028086.JPG,28,27,false,0.1,lh,keypress(e),0,true,495626.6999999285,495626.5,491751.83,491756,491768.381,495642.514,1,40,27,
sequence,flow.Sequence,8_26,2023-11-20T20:36:40.501Z,,,,,,,,,,,3858.119000000006,completion,,,,,,,low,low,,,,,,,false,,,,,true,495627,495626.5,491751.83,491755.89999997616,491768.381,495642.514,1,40,,
trial,html.Screen,8_27_0,2023-11-20T20:36:45.710Z,,,,2,-0.0077673378094614,-0.0021810768579373,,0.04,false,lh,5192.68599992845,response,-0.9873794329144926,1.15,-1.0601966799218392,0.9500689037516484,1.15,-1.15,low,high,,ISIC_0067621.JPG,,ISIC_0013498.JPG,28,25,false,0.2400000000000001,ll,keypress(f),0,true,500835.39999997616,500835.1999999285,495625.88,495627.1999999285,495642.514,500852.715,1,40,28,
sequence,flow.Sequence,8_27,2023-11-20T20:36:45.710Z,,,,,,,,,,,5192.68599992845,completion,,,,,,,low,high,,,,,,,false,,,,,true,500836,500835.1999999285,495625.88,495627.1999999285,495642.514,500852.715,1,40,,
trial,html.Screen,8_28_0,2023-11-20T20:36:48.454Z,,,,2,0.0086413421586899,0.0360184993500958,,0.04,false,hh,2726.2849999999744,response,1.1569583426015195,1.15,-0.9284854129992964,1.02258614327008,1.15,-1.15,high,high,,ISIC_0010767.JPG,,ISIC_5705973.JPG,28,26,false,0.14,ll,keypress(f),0,true,503579.2999999523,503579,500836.118,500836.2999999523,500852.715,503591.317,1,40,29,
sequence,flow.Sequence,8_28,2023-11-20T20:36:48.454Z,,,,,,,,,,,2726.2849999999744,completion,,,,,,,high,high,,,,,,,false,,,,,true,503579.89999997616,503579,500836.118,500836.1999999285,500852.715,503591.317,1,40,,
trial,html.Screen,8_29_0,2023-11-20T20:36:51.558Z,,,,2,-0.0060934073440827,-0.0279108145883031,,0.04,false,hl,3092.3829999284935,response,0.8534691366511764,1.15,-0.9284854129992964,-1.276663727068437,1.15,-1.15,high,low,,ISIC_0032604.JPG,,ISIC_0056788.JPG,28,27,false,0.31000000000000016,hh,keypress(i),0,true,506684,506683.6999999285,503574.778,503580.09999990463,503591.317,506697.334,1,40,30,
sequence,flow.Sequence,8_29,2023-11-20T20:36:51.559Z,,,,,,,,,,,3092.3829999284935,completion,,,,,,,high,low,,,,,,,false,,,,,true,506684.39999997616,506683.6999999285,503574.778,503580,503591.317,506697.334,1,40,,
trial,html.Screen,8_30_0,2023-11-20T20:36:55.422Z,,,,2,-0.0399381815506136,-0.0177751789152893,,0.04,false,ll,3849.6660000000265,response,-0.968832577506943,1.15,-0.9284854129992964,-1.068698723750748,1.15,-1.15,low,low,,ISIC_3981425.JPG,,ISIC_0010962.JPG,28,30,false,0.1,lh,keypress(e),0,true,510547.2999999523,510547,506680.885,506684.6999999285,506697.334,510554.843,1,40,31,
sequence,flow.Sequence,8_30,2023-11-20T20:36:55.422Z,,,,,,,,,,,3849.6660000000265,completion,,,,,,,low,low,,,,,,,false,,,,,true,510547.89999997616,510547,506680.885,506684.59999990463,506697.334,510554.843,1,40,,
trial,html.Screen,8_31_0,2023-11-20T20:36:59.013Z,,,,2,-0.012810673904807,0.00400964452501,,0.04,false,ll,3584.0569999761647,response,-0.9926496793263212,1.15,-0.9284854129992964,-1.0520809837712837,1.15,-1.15,low,low,,ISIC_0064656.JPG,,ISIC_0062686.JPG,28,30,false,0.1,hh,keypress(i),0,true,514139.1999999285,514138.89999997616,510538.291,510548.1999999285,510554.843,514161.895,1,40,32,
sequence,flow.Sequence,8_31,2023-11-20T20:36:59.014Z,,,,,,,,,,,3584.0569999761647,completion,,,,,,,low,low,,,,,,,false,,,,,true,514139.6999999285,514138.89999997616,510538.291,510548,510554.843,514161.895,1,40,,
trial,html.Screen,8_32_0,2023-11-20T20:37:02.326Z,,,,2,-0.0050679133050021,-0.0174815595031679,,0.04,false,hl,3289.704999904614,response,1.225025174430573,1.15,-0.9784854129992965,-0.8422679054456499,1.15,-1.15,high,low,,ISIC_9848743.JPG,,ISIC_7503950.JPG,28,27,false,0.31000000000000016,hh,keypress(i),0,true,517451.89999997616,517451.59999990463,514128.449,514139.89999997616,514161.895,517468.402,1,40,33,
sequence,flow.Sequence,8_32,2023-11-20T20:37:02.327Z,,,,,,,,,,,3289.704999904614,completion,,,,,,,high,low,,,,,,,false,,,,,true,517452.39999997616,517451.59999990463,514128.449,514139.89999997616,514161.895,517468.402,1,40,,
trial,html.Screen,8_33_0,2023-11-20T20:37:04.502Z,,,,2,0.0367218428225813,-0.0026956749740767,,0.04,false,ll,2158.597999999998,response,-1.0011647073734584,1.0999999999999999,-0.9784854129992965,-1.090690958018423,1.15,-1.15,low,low,,ISIC_7212271.JPG,,ISIC_0021901.JPG,28,33,false,0.1,hh,keypress(i),0,true,519627.2999999523,519627,517451.604,517452.59999990463,517468.402,519639.227,1,40,34,
sequence,flow.Sequence,8_33,2023-11-20T20:37:04.502Z,,,,,,,,,,,2158.597999999998,completion,,,,,,,low,low,,,,,,,false,,,,,true,519627.7999999523,519627,517451.604,517452.59999990463,517468.402,519639.227,1,40,,
trial,html.Screen,8_34_0,2023-11-20T20:37:06.566Z,,,,2,-0.00126575685933,-0.0325046559638838,,0.04,false,hh,2051.7729999999865,response,1.1642596483638106,1.0999999999999999,-1.0284854129992964,1.091507924157762,1.15,-1.15,high,high,,ISIC_5682259.JPG,,ISIC_0765584.JPG,28,28,false,0.13,ll,keypress(f),0,true,521691.2999999523,521691,519622.729,519628.09999990463,519639.227,521710.521,1,40,35,
sequence,flow.Sequence,8_34,2023-11-20T20:37:06.566Z,,,,,,,,,,,2051.7729999999865,completion,,,,,,,high,high,,,,,,,false,,,,,true,521691.89999997616,521691,519622.729,519628,519639.227,521710.521,1,40,,
trial,html.Screen,8_35_0,2023-11-20T20:37:10.038Z,,,,2,-0.0057914759495055,0.018500200317654,,0.04,false,hh,3452.478999999992,response,1.1990772227054871,1.15,-1.0284854129992964,1.1224329926844498,1.15,-1.15,high,high,,ISIC_0058723.JPG,,ISIC_3425388.JPG,28,26,false,0.14,ll,keypress(f),0,true,525163.2999999523,525163,521676.817,521692.1999999285,521710.521,525200.057,1,40,36,
sequence,flow.Sequence,8_35,2023-11-20T20:37:10.038Z,,,,,,,,,,,3452.478999999992,completion,,,,,,,high,high,,,,,,,false,,,,,true,525163.8999999762,525163,521676.817,521692.09999990463,521710.521,525200.057,1,40,,
trial,html.Screen,8_36_0,2023-11-20T20:37:15.070Z,,,,2,-0.0060918352854008,0.029032683404407,,0.04,false,lh,4995.2429999522865,response,-1.2043484010107477,1.15,-1.0284854129992964,1.2178113180138233,1.15,-1.15,low,high,,ISIC_8436194.JPG,,ISIC_0011917.JPG,28,25,false,0.2300000000000001,hh,keypress(i),0,true,530195.5999999046,530195.2999999523,525150.043,525164.0999999046,525200.057,530209.819,1,40,37,
sequence,flow.Sequence,8_36,2023-11-20T20:37:15.071Z,,,,,,,,,,,4995.2429999522865,completion,,,,,,,low,high,,,,,,,false,,,,,true,530196.0999999046,530195.2999999523,525150.043,525164,525200.057,530209.819,1,40,,
trial,html.Screen,8_37_0,2023-11-20T20:37:18.430Z,,,,2,-0.00126575685933,-0.0325046559638838,,0.04,false,ll,3345.280999904615,response,-1.1671212908494544,1.15,-1.0784854129992965,-1.1286681796701683,1.15,-1.15,low,low,,ISIC_5682259.JPG,,ISIC_0065022.JPG,28,26,false,0.1,lh,keypress(e),0,true,533555.3999999762,533555.0999999046,530193.092,530196.3999999762,530209.819,533583.037,1,40,38,
sequence,flow.Sequence,8_37,2023-11-20T20:37:18.430Z,,,,,,,,,,,3345.280999904615,completion,,,,,,,low,low,,,,,,,false,,,,,true,533555.7999999523,533555.0999999046,530193.092,530196.2999999523,530209.819,533583.037,1,40,,
trial,html.Screen,8_38_0,2023-11-20T20:37:23.110Z,,,,2,0.0367218428225813,-0.0026956749740767,,0.04,false,lh,4652.262999952305,response,-0.9873794329144926,1.15,-1.0784854129992965,0.9500689037516484,1.15,-1.15,low,high,,ISIC_7212271.JPG,,ISIC_0013498.JPG,28,25,false,0.2400000000000001,ll,keypress(f),0,true,538235.7999999523,538235.2999999523,533549.805,533556.0999999046,533583.037,538242.095,1,40,39,
sequence,flow.Sequence,8_38,2023-11-20T20:37:23.111Z,,,,,,,,,,,4652.262999952305,completion,,,,,,,low,high,,,,,,,false,,,,,true,538236.2999999523,538235.2999999523,533549.805,533556,533583.037,538242.095,1,40,,
trial,html.Screen,8_39_0,2023-11-20T20:37:26.966Z,,,,2,-0.0158987717472563,-0.0292472192292015,,0.04,false,lh,3849.204999952344,response,-0.9670240379618178,1.15,-1.0272503618819735,1.1806404773220665,1.15,-1.15,low,high,,ISIC_1366765.JPG,,ISIC_0002288.JPG,28,25,false,0.2300000000000001,ll,keypress(f),0,true,542091.6999999285,542091.2999999523,538225.483,538236.5999999046,538242.095,542099.596,1,40,40,
sequence,flow.Sequence,8_39,2023-11-20T20:37:26.967Z,,,,,,,,,,,3849.204999952344,completion,,,,,,,low,high,,,,,,,false,,,,,true,542092.1999999285,542091.2999999523,538225.483,538236.5,538242.095,542099.596,1,40,,
stair_loop,flow.Loop,8,2023-11-20T20:37:26.967Z,,,,,,,,,,,150050.4919999523,completion,,,,,,,,,,,,,,,false,,,,,true,542092.5,542091.2999999523,392007.419,392017.59999990463,392040.808,542099.596,1,40,,
exp_instructions,html.Screen,9,2023-11-20T20:37:37.412Z,,,,,,,,,,,10437.90399999998,response,,,,,,,,,,,,,,,,,continue,keypress(Space),,,552537.8999999762,552537.5,542083.002,542092.6999999285,542099.596,552553.289,,,,
trial,html.Screen,10_0_0,2023-11-20T20:37:46.310Z,,,,1,0.0127320821962457,-0.0315308940184827,,0.04,true,lh,8881.610999976168,response,-0.9225524349657857,1.145,-1.0286081672124472,0.929746784178986,1.1499999999999997,-1.1499999999999997,low,high,,ISIC_8156101.JPG,9,ISIC_0011077.JPG,28,25,false,0.2300000000000001,lh,keypress(e),0,false,561435.2999999523,561434.8999999762,552536.715,552538,552553.289,561454.639,5,600,1,
break,html.Screen,10_0_1,2023-11-20T20:37:46.312Z,,,,,,,,,,,NaN,,,,,,,,low,high,,,,,,,false,,,,,false,561436.8999999762,561436.3999999762,,561435.6999999285,,561454.639,5,600,,
break_continue,html.Screen,10_0_2,2023-11-20T20:37:46.313Z,,,,,,,,,,,NaN,,,,,,,,low,high,,,,,,,false,,,,,false,561438,561437.5999999046,,561437.1999999285,,561454.639,5,600,,
sequence,flow.Sequence,10_0,2023-11-20T20:37:46.313Z,,,,,,,,,,,8884.310999904643,completion,,,,,,,low,high,,,,,,,false,,,,,false,561438.3999999762,561437.5999999046,552536.715,552538,552553.289,561454.639,5,600,,
trial,html.Screen,10_1_0,2023-11-20T20:37:48.246Z,,,,1,0.0127320821962457,-0.0315308940184827,,0.04,true,lh,1916.3610000000335,response,-0.9212323139676136,1.145,-1.0286081672124472,0.9882196642247332,1.1499999999999997,-1.1499999999999997,low,high,,ISIC_8156101.JPG,9,ISIC_0014255.JPG,28,25,false,0.2300000000000001,lh,keypress(e),0,false,563371.0999999046,563371,561420.485,561438.6999999285,561454.639,563374.35,5,600,2,
break,html.Screen,10_1_1,2023-11-20T20:37:48.246Z,,,,,,,,,,,NaN,,,,,,,,low,high,,,,,,,false,,,,,false,563371.3999999762,563371.2999999523,,563371.1999999285,,563374.35,5,600,,
break_continue,html.Screen,10_1_2,2023-11-20T20:37:48.246Z,,,,,,,,,,,NaN,,,,,,,,low,high,,,,,,,false,,,,,false,563371.5999999046,563371.5,,563371.3999999762,,563374.35,5,600,,
sequence,flow.Sequence,10_1,2023-11-20T20:37:48.246Z,,,,,,,,,,,1916.8610000000335,completion,,,,,,,low,high,,,,,,,false,,,,,false,563371.5999999046,563371.5,561420.485,561438.5999999046,561454.639,563374.35,5,600,,
trial,html.Screen,10_2_0,2023-11-20T20:37:51.598Z,,,,1,0.0321039635696159,0.020496766286318,,0.04,false,ll,3348.5499999761814,response,-1.0011647073734584,1.145,-1.0286081672124472,-1.090690958018423,1.1499999999999997,-1.1499999999999997,low,low,,ISIC_0058063.JPG,9,ISIC_0021901.JPG,28,30,false,0.1,hh,keypress(i),0,false,566723.2999999523,566722.8999999762,563357.75,563371.6999999285,563374.35,566730.883,5,600,3,
break,html.Screen,10_2_1,2023-11-20T20:37:51.599Z,,,,,,,,,,,NaN,,,,,,,,low,low,,,,,,,false,,,,,false,566724.5,566724.1999999285,,566723.6999999285,,566730.883,5,600,,
break_continue,html.Screen,10_2_2,2023-11-20T20:37:51.600Z,,,,,,,,,,,NaN,,,,,,,,low,low,,,,,,,false,,,,,false,566725.1999999285,566725,,566724.7999999523,,566730.883,5,600,,
sequence,flow.Sequence,10_2,2023-11-20T20:37:51.600Z,,,,,,,,,,,3350.6500000000233,completion,,,,,,,low,low,,,,,,,false,,,,,false,566725.5999999046,566725,563357.75,563371.6999999285,563374.35,566730.883,5,600,,
trial,html.Screen,10_3_0,2023-11-20T20:37:54.349Z,,,,1,-0.0050679133050021,-0.0174815595031679,,0.04,false,hh,2743.6169999999693,response,1.0730492496332733,1.145,-1.0286081672124472,1.0252626598876022,1.1499999999999997,-1.1499999999999997,high,high,,ISIC_9848743.JPG,9,ISIC_0007029.JPG,28,28,false,0.14,hl,keypress(j),0,false,569474.6999999285,569474.5,566714.421,566725.7999999523,566730.883,569486.226,5,600,4,
break,html.Screen,10_3_1,2023-11-20T20:37:54.350Z,,,,,,,,,,,NaN,,,,,,,,high,high,,,,,,,false,,,,,false,569475.5999999046,569475.5,,569475,,569486.226,5,600,,
break_continue,html.Screen,10_3_2,2023-11-20T20:37:54.351Z,,,,,,,,,,,NaN,,,,,,,,high,high,,,,,,,false,,,,,false,569476.1999999285,569476,,569475.6999999285,,569486.226,5,600,,
sequence,flow.Sequence,10_3,2023-11-20T20:37:54.351Z,,,,,,,,,,,2745.1169999999693,completion,,,,,,,high,high,,,,,,,false,,,,,false,569476.2999999523,569476,566714.421,566725.6999999285,566730.883,569486.226,5,600,,
trial,html.Screen,10_4_0,2023-11-20T20:38:00.238Z,,,,1,-0.0023664502831079,-0.0252784582169994,,0.04,false,lh,5876.97399992845,response,-0.8561946552009824,1.145,-1.0286081672124472,0.9282171889213044,1.1499999999999997,-1.1499999999999997,low,high,,ISIC_4156010.JPG,9,ISIC_3065032.JPG,28,25,false,0.2300000000000001,ll,keypress(f),0,false,575363.5,575363.1999999285,569469.767,569476.5999999046,569486.226,575381.045,5,600,5,
break,html.Screen,10_4_1,2023-11-20T20:38:00.239Z,,,,,,,,,,,NaN,,,,,,,,low,high,,,,,,,false,,,,,false,575364.5999999046,575364.3999999762,,575363.8999999762,,575381.045,5,600,,
break_continue,html.Screen,10_4_2,2023-11-20T20:38:00.240Z,,,,,,,,,,,NaN,,,,,,,,low,high,,,,,,,false,,,,,false,575365.2999999523,575365.0999999046,,575364.7999999523,,575381.045,5,600,,
sequence,flow.Sequence,10_4,2023-11-20T20:38:00.240Z,,,,,,,,,,,5878.873999904608,completion,,,,,,,low,high,,,,,,,false,,,,,false,575365.5,575365.0999999046,569469.767,569476.5,569486.226,575381.045,5,600,,
trial,html.Screen,10_5_0,2023-11-20T20:38:02.870Z,,,,1,0.0051046740562181,-0.0178832721027728,,0.04,false,hh,2614.1549999284325,response,1.0831477774866454,1.145,-1.0286081672124472,1.0347343776726454,1.1499999999999997,-1.1499999999999997,high,high,,ISIC_9545819.JPG,8,ISIC_9475559.JPG,28,28,false,0.14,lh,keypress(e),0,false,577995.5,577995.1999999285,575364.335,575365.7999999523,575381.045,578019.523,5,600,6,
break,html.Screen,10_5_1,2023-11-20T20:38:02.871Z,,,,,,,,,,,NaN,,,,,,,,high,high,,,,,,,false,,,,,false,577996.8999999762,577996.5,,577996,,578019.523,5,600,,
break_continue,html.Screen,10_5_2,2023-11-20T20:38:02.872Z,,,,,,,,,,,NaN,,,,,,,,high,high,,,,,,,false,,,,,false,577997.5999999046,577997.2999999523,,577997.1999999285,,578019.523,5,600,,
sequence,flow.Sequence,10_5,2023-11-20T20:38:02.872Z,,,,,,,,,,,2616.2549999522744,completion,,,,,,,high,high,,,,,,,false,,,,,false,577997.8999999762,577997.2999999523,575364.335,575365.7999999523,575381.045,578019.523,5,600,,
trial,html.Screen,10_6_0,2023-11-20T20:38:06.717Z,,,,1,-0.0050679133050021,-0.0174815595031679,,0.04,false,hl,3822.2769999522716,response,0.9087169856594104,1.145,-1.0286081672124472,-0.8835647084207277,1.1499999999999997,-1.1499999999999997,high,low,,ISIC_9848743.JPG,9,ISIC_0000349.JPG,28,27,false,0.31000000000000016,hh,keypress(i),0,false,581842,581841.7999999523,577986.379,577998.0999999046,578019.523,581843.634,5,600,7,
break,html.Screen,10_6_1,2023-11-20T20:38:06.717Z,,,,,,,,,,,NaN,,,,,,,,high,low,,,,,,,false,,,,,false,581842.3999999762,581842.2999999523,,581842.0999999046,,581843.634,5,600,,
break_continue,html.Screen,10_6_2,2023-11-20T20:38:06.717Z,,,,,,,,,,,NaN,,,,,,,,high,low,,,,,,,false,,,,,false,581842.5999999046,581842.5,,581842.3999999762,,581843.634,5,600,,
sequence,flow.Sequence,10_6,2023-11-20T20:38:06.717Z,,,,,,,,,,,3822.9769999999553,completion,,,,,,,high,low,,,,,,,false,,,,,false,581842.5999999046,581842.5,577986.379,577998,578019.523,581843.634,5,600,,
trial,html.Screen,10_7_0,2023-11-20T20:38:08.478Z,,,,1,0.010035581303589,-0.0100711721396864,,0.04,false,ll,1759.4659999046708,response,-1.0762260610050776,1.145,-1.0286081672124472,-1.1184338818466155,1.1499999999999997,-1.1499999999999997,low,low,,ISIC_0030592.JPG,9,ISIC_0058666.JPG,28,30,false,0.1,hh,keypress(i),0,false,583603.3999999762,583603.0999999046,581827,581842.6999999285,581843.634,583613.746,5,600,8,
break,html.Screen,10_7_1,2023-11-20T20:38:08.479Z,,,,,,,,,,,NaN,,,,,,,,low,low,,,,,,,false,,,,,false,583604.6999999285,583604.2999999523,,583603.8999999762,,583613.746,5,600,,
break_continue,html.Screen,10_7_2,2023-11-20T20:38:08.480Z,,,,,,,,,,,NaN,,,,,,,,low,low,,,,,,,false,,,,,false,583605.2999999523,583605.0999999046,,583604.7999999523,,583613.746,5,600,,
sequence,flow.Sequence,10_7,2023-11-20T20:38:08.480Z,,,,,,,,,,,1761.4659999046708,completion,,,,,,,low,low,,,,,,,false,,,,,false,583605.5999999046,583605.0999999046,581827,581842.6999999285,581843.634,583613.746,5,600,,
trial,html.Screen,10_8_0,2023-11-20T20:38:10.950Z,,,,1,-0.00126575685933,-0.0325046559638838,,0.04,false,hl,2461.6539999761153,response,0.8494721812820843,1.145,-1.0286081672124472,-1.3435429139974266,1.1499999999999997,-1.1499999999999997,high,low,,ISIC_5682259.JPG,10,ISIC_0033585.JPG,28,27,false,0.31000000000000016,lh,keypress(e),0,false,586075.6999999285,586075.3999999762,583597.162,583605.7999999523,583613.746,586085.222,5,600,9,
break,html.Screen,10_8_1,2023-11-20T20:38:10.951Z,,,,,,,,,,,NaN,,,,,,,,high,low,,,,,,,false,,,,,false,586076.8999999762,586076.6999999285,,586076.0999999046,,586085.222,5,600,,
break_continue,html.Screen,10_8_2,2023-11-20T20:38:10.952Z,,,,,,,,,,,NaN,,,,,,,,high,low,,,,,,,false,,,,,false,586077.5999999046,586077.3999999762,,586077.1999999285,,586085.222,5,600,,
sequence,flow.Sequence,10_8,2023-11-20T20:38:10.952Z,,,,,,,,,,,2463.6539999761153,completion,,,,,,,high,low,,,,,,,false,,,,,false,586077.8999999762,586077.3999999762,583597.162,583605.7999999523,583613.746,586085.222,5,600,,
trial,html.Screen,10_9_0,2023-11-20T20:38:15.214Z,,,,1,0.0086413421586899,0.0360184993500958,,0.04,false,lh,4253.778000000049,response,-1.0748728054622358,1.145,-1.0286081672124472,1.2840853987892311,1.1499999999999997,-1.1499999999999997,low,high,,ISIC_0010767.JPG,9,ISIC_0059219.JPG,28,25,false,0.2300000000000001,hh,keypress(i),0,false,590339.2999999523,590339,586068.659,586078.1999999285,586085.222,590343.508,5,600,10,
break,html.Screen,10_9_1,2023-11-20T20:38:15.215Z,,,,,,,,,,,NaN,,,,,,,,low,high,,,,,,,false,,,,,false,590340.5,590340.2999999523,,590339.6999999285,,590343.508,5,600,,
break_continue,html.Screen,10_9_2,2023-11-20T20:38:15.216Z,,,,,,,,,,,NaN,,,,,,,,low,high,,,,,,,false,,,,,false,590341.1999999285,590341,,590340.6999999285,,590343.508,5,600,,
sequence,flow.Sequence,10_9,2023-11-20T20:38:15.216Z,,,,,,,,,,,4255.778000000049,completion,,,,,,,low,high,,,,,,,false,,,,,false,590341.5,590341,586068.659,586078.0999999046,586085.222,590343.508,5,600,,
trial,html.Screen,10_10_0,2023-11-20T20:38:17.246Z,,,,1,0.0367218428225813,-0.0026956749740767,,0.04,true,lh,2026.8919999761274,response,-0.9225524349657857,1.145,-1.0286081672124472,0.929746784178986,1.1499999999999997,-1.1499999999999997,low,high,,ISIC_7212271.JPG,10,ISIC_0011077.JPG,28,25,false,0.2300000000000001,lh,keypress(e),0,false,592370.5999999046,592370.3999999762,590326.828,590341.7999999523,590343.508,592380.832,5,600,11,
break,html.Screen,10_10_1,2023-11-20T20:38:17.246Z,,,,,,,,,,,NaN,,,,,,,,low,high,,,,,,,false,,,,,false,592371.5,592371.2999999523,,592370.8999999762,,592380.832,5,600,,
break_continue,html.Screen,10_10_2,2023-11-20T20:38:17.247Z,,,,,,,,,,,NaN,,,,,,,,low,high,,,,,,,false,,,,,false,592372.0999999046,592371.8999999762,,592371.6999999285,,592380.832,5,600,,
sequence,flow.Sequence,10_10,2023-11-20T20:38:17.247Z,,,,,,,,,,,2028.3919999761274,completion,,,,,,,low,high,,,,,,,false,,,,,false,592372.2999999523,592371.8999999762,590326.828,590341.5999999046,590343.508,592380.832,5,600,,
trial,html.Screen,10_11_0,2023-11-20T20:38:24.815Z,,,,1,-0.012020985739544,0.0126097407389903,,0.04,false,ll,7558.867999928421,response,-0.968277930473984,1.145,-1.0286081672124472,-1.0901346674420178,1.1499999999999997,-1.1499999999999997,low,low,,ISIC_0069379.JPG,9,ISIC_0519386.JPG,28,30,false,0.1,lh,keypress(e),0,false,599940.0999999046,599939.6999999285,592364.292,592372.3999999762,592380.832,599945.539,5,600,12,
break,html.Screen,10_11_1,2023-11-20T20:38:24.816Z,,,,,,,,,,,NaN,,,,,,,,low,low,,,,,,,false,,,,,false,599941.2999999523,599941,,599940.5,,599945.539,5,600,,
break_continue,html.Screen,10_11_2,2023-11-20T20:38:24.817Z,,,,,,,,,,,NaN,,,,,,,,low,low,,,,,,,false,,,,,false,599942,599941.7999999523,,599941.5,,599945.539,5,600,,
sequence,flow.Sequence,10_11,2023-11-20T20:38:24.817Z,,,,,,,,,,,7560.967999952263,completion,,,,,,,low,low,,,,,,,false,,,,,false,599942.2999999523,599941.7999999523,592364.292,592372.3999999762,592380.832,599945.539,5,600,,
trial,html.Screen,10_12_0,2023-11-20T20:38:27.214Z,,,,1,-0.0023664502831079,-0.0252784582169994,,0.04,true,lh,2393.560999904643,response,-0.9225524349657857,1.145,-1.0286081672124472,0.929746784178986,1.1499999999999997,-1.1499999999999997,low,high,,ISIC_4156010.JPG,9,ISIC_0011077.JPG,28,25,false,0.2300000000000001,lh,keypress(e),0,false,602339.3999999762,602339.0999999046,599929.064,599942.5,599945.539,602367.058,5,600,13,
break,html.Screen,10_12_1,2023-11-20T20:38:27.216Z,,,,,,,,,,,NaN,,,,,,,,low,high,,,,,,,false,,,,,false,602340.5999999046,602340.2999999523,,602339.7999999523,,602367.058,5,600,,
break_continue,html.Screen,10_12_2,2023-11-20T20:38:27.216Z,,,,,,,,,,,NaN,,,,,,,,low,high,,,,,,,false,,,,,false,602341.2999999523,602341.0999999046,,602340.7999999523,,602367.058,5,600,,
sequence,flow.Sequence,10_12,2023-11-20T20:38:27.217Z,,,,,,,,,,,2395.560999904643,completion,,,,,,,low,high,,,,,,,false,,,,,false,602341.5999999046,602341.0999999046,599929.064,599942.3999999762,599945.539,602367.058,5,600,,
trial,html.Screen,10_13_0,2023-11-20T20:38:30.542Z,,,,1,0.0189295602385628,0.0128812415435153,,0.04,false,hl,3299.942000000039,response,1.0003671514840182,1.145,-1.0286081672124472,-0.8992716557663581,1.1499999999999997,-1.1499999999999997,high,low,,ISIC_0010372.JPG,9,ISIC_0061749.JPG,28,27,false,0.31000000000000016,hh,keypress(i),0,false,605667.2999999523,605667,602350.223,602341.8999999762,602367.058,605673.35,5,600,14,
break,html.Screen,10_13_1,2023-11-20T20:38:30.543Z,,,,,,,,,,,NaN,,,,,,,,high,low,,,,,,,false,,,,,false,605668.3999999762,605668.0999999046,,605667.6999999285,,605673.35,5,600,,
break_continue,html.Screen,10_13_2,2023-11-20T20:38:30.544Z,,,,,,,,,,,NaN,,,,,,,,high,low,,,,,,,false,,,,,false,605669,605668.7999999523,,605668.5,,605673.35,5,600,,
sequence,flow.Sequence,10_13,2023-11-20T20:38:30.544Z,,,,,,,,,,,3301.7419999523554,completion,,,,,,,high,low,,,,,,,false,,,,,false,605669.2999999523,605668.7999999523,602350.223,602341.6999999285,602367.058,605673.35,5,600,,
trial,html.Screen,10_14_0,2023-11-20T20:38:33.614Z,,,,1,0.0086413421586899,0.0360184993500958,,0.04,false,hh,3065.6500000000233,response,1.1513073368404492,1.145,-1.0286081672124472,1.0485268550965705,1.1499999999999997,-1.1499999999999997,high,high,,ISIC_0010767.JPG,9,ISIC_0030666.JPG,28,28,false,0.14,hl,keypress(j),0,false,608739.2999999523,608739,605656.799,605669.5,605673.35,608762.688,5,600,15,
break,html.Screen,10_14_1,2023-11-20T20:38:33.615Z,,,,,,,,,,,NaN,,,,,,,,high,high,,,,,,,false,,,,,false,608740.5999999046,608740.1999999285,,608739.6999999285,,608762.688,5,600,,
break_continue,html.Screen,10_14_2,2023-11-20T20:38:33.616Z,,,,,,,,,,,NaN,,,,,,,,high,high,,,,,,,false,,,,,false,608741.1999999285,608741,,608740.6999999285,,608762.688,5,600,,
sequence,flow.Sequence,10_14,2023-11-20T20:38:33.616Z,,,,,,,,,,,3067.6500000000233,completion,,,,,,,high,high,,,,,,,false,,,,,false,608741.5999999046,608741,605656.799,605669.3999999762,605673.35,608762.688,5,600,,
trial,html.Screen,10_15_0,2023-11-20T20:38:37.407Z,,,,1,0.0327772618698018,-0.0056908372048728,,0.04,false,lh,3768.6119999523507,response,-0.887838744955182,1.145,-1.0286081672124472,1.3716210719758812,1.1499999999999997,-1.1499999999999997,low,high,,ISIC_7897925.JPG,10,ISIC_1488727.JPG,28,25,false,0.2300000000000001,hl,keypress(j),0,false,612531.6999999285,612531.2999999523,608729.29,608741.7999999523,608762.688,612536.707,5,600,16,
break,html.Screen,10_15_1,2023-11-20T20:38:37.408Z,,,,,,,,,,,NaN,,,,,,,,low,high,,,,,,,false,,,,,false,612532.8999999762,612532.5999999046,,612532.0999999046,,612536.707,5,600,,
break_continue,html.Screen,10_15_2,2023-11-20T20:38:37.409Z,,,,,,,,,,,NaN,,,,,,,,low,high,,,,,,,false,,,,,false,612533.5999999046,612533.3999999762,,612533.0999999046,,612536.707,5,600,,
sequence,flow.Sequence,10_15,2023-11-20T20:38:37.409Z,,,,,,,,,,,3770.7119999761926,completion,,,,,,,low,high,,,,,,,false,,,,,false,612533.8999999762,612533.3999999762,608729.29,608741.6999999285,608762.688,612536.707,5,600,,
trial,html.Screen,10_16_0,2023-11-20T20:38:42.373Z,,,,1,0.0361875505619981,-0.0291457404567876,,0.04,false,ll,4960.8929999045795,response,-1.02958055269592,1.145,-1.0286081672124472,-1.159278377691306,1.1499999999999997,-1.1499999999999997,low,low,,ISIC_0027480.JPG,9,ISIC_0027190.JPG,28,30,false,0.1,lh,keypress(e),0,false,617497.5999999046,617497.5999999046,612520.219,612534.1999999285,612536.707,617529.779,5,600,17,
break,html.Screen,10_16_1,2023-11-20T20:38:42.373Z,,,,,,,,,,,NaN,,,,,,,,low,low,,,,,,,false,,,,,false,617498,617497.8999999762,,617497.6999999285,,617529.779,5,600,,
break_continue,html.Screen,10_16_2,2023-11-20T20:38:42.373Z,,,,,,,,,,,NaN,,,,,,,,low,low,,,,,,,false,,,,,false,617498.0999999046,617498.0999999046,,617498,,617529.779,5,600,,
sequence,flow.Sequence,10_16,2023-11-20T20:38:42.373Z,,,,,,,,,,,4961.3929999045795,completion,,,,,,,low,low,,,,,,,false,,,,,false,617498.1999999285,617498.0999999046,612520.219,612534.0999999046,612536.707,617529.779,5,600,,
trial,html.Screen,10_17_0,2023-11-20T20:38:46.085Z,,,,1,-0.0158987717472563,-0.0292472192292015,,0.04,false,hl,3679.7210000000196,response,1.3515962101204746,1.145,-1.0286081672124472,-0.8414583575292955,1.1499999999999997,-1.1499999999999997,high,low,,ISIC_1366765.JPG,9,ISIC_0274382.JPG,28,27,false,0.31000000000000016,lh,keypress(e),0,false,621209.5999999046,621209.5,617496.356,617498.1999999285,617529.779,621220.284,5,600,18,
break,html.Screen,10_17_1,2023-11-20T20:38:46.085Z,,,,,,,,,,,NaN,,,,,,,,high,low,,,,,,,false,,,,,false,621209.8999999762,621209.7999999523,,621209.6999999285,,621220.284,5,600,,
break_continue,html.Screen,10_17_2,2023-11-20T20:38:46.085Z,,,,,,,,,,,NaN,,,,,,,,high,low,,,,,,,false,,,,,false,621210.0999999046,621210,,621210,,621220.284,5,600,,
sequence,flow.Sequence,10_17,2023-11-20T20:38:46.085Z,,,,,,,,,,,3680.2210000000196,completion,,,,,,,high,low,,,,,,,false,,,,,false,621210.0999999046,621210,617496.356,617498.1999999285,617529.779,621220.284,5,600,,
trial,html.Screen,10_18_0,2023-11-20T20:38:48.495Z,,,,1,-0.0060934073440827,-0.0279108145883031,,0.04,true,hh,2399.115999976173,response,1.02671179315839,1.145,-1.0286081672124472,1.232411858241539,1.1499999999999997,-1.1499999999999997,high,high,,ISIC_0032604.JPG,9,ISIC_7779155.JPG,28,28,false,0.14,hh,keypress(i),0,false,623619.7999999523,623619.3999999762,621203.794,621210.1999999285,621220.284,623625.037,5,600,19,
break,html.Screen,10_18_1,2023-11-20T20:38:48.496Z,,,,,,,,,,,NaN,,,,,,,,high,high,,,,,,,false,,,,,false,623621,623620.6999999285,,623620.0999999046,,623625.037,5,600,,
break_continue,html.Screen,10_18_2,2023-11-20T20:38:48.497Z,,,,,,,,,,,NaN,,,,,,,,high,high,,,,,,,false,,,,,false,623621.7999999523,623621.5,,623621.1999999285,,623625.037,5,600,,
sequence,flow.Sequence,10_18,2023-11-20T20:38:48.497Z,,,,,,,,,,,2401.216000000015,completion,,,,,,,high,high,,,,,,,false,,,,,false,623622.0999999046,623621.5,621203.794,621210.1999999285,621220.284,623625.037,5,600,,
trial,html.Screen,10_19_0,2023-11-20T20:38:50.806Z,,,,1,-0.0166849894750452,0.0371614812368835,,0.04,false,ll,2305.962999999989,response,-0.9693644437173125,1.145,-1.0286081672124472,-1.114502123877908,1.1499999999999997,-1.1499999999999997,low,low,,ISIC_6231450.JPG,11,ISIC_0014795.JPG,28,30,false,0.1,hh,keypress(i),0,false,625931.2999999523,625931,623608.379,623622.1999999285,623625.037,625946.298,5,600,20,
break,html.Screen,10_19_1,2023-11-20T20:38:50.808Z,,,,,,,,,,,NaN,,,,,,,,low,low,,,,,,,false,,,,,false,625932.5999999046,625932.2999999523,,625931.7999999523,,625946.298,5,600,,
break_continue,html.Screen,10_19_2,2023-11-20T20:38:50.808Z,,,,,,,,,,,NaN,,,,,,,,low,low,,,,,,,false,,,,,false,625933.5,625933.1999999285,,625932.8999999762,,625946.298,5,600,,
sequence,flow.Sequence,10_19,2023-11-20T20:38:50.809Z,,,,,,,,,,,2308.1629999284633,completion,,,,,,,low,low,,,,,,,false,,,,,false,625933.6999999285,625933.1999999285,623608.379,623622.1999999285,623625.037,625946.298,5,600,,
trial,html.Screen,10_20_0,2023-11-20T20:38:53.070Z,,,,1,-0.0166849894750452,0.0371614812368835,,0.04,false,ll,2248.6019999762066,response,-1.0570280672376675,1.145,-1.0286081672124472,-1.0932046580095067,1.1499999999999997,-1.1499999999999997,low,low,,ISIC_6231450.JPG,9,ISIC_0061320.JPG,28,30,false,0.1,hh,keypress(i),0,false,628195.0999999046,628194.8999999762,625929.638,625934,625946.298,628217.254,5,600,21,
break,html.Screen,10_20_1,2023-11-20T20:38:53.071Z,,,,,,,,,,,NaN,,,,,,,,low,low,,,,,,,false,,,,,false,628196.1999999285,628195.8999999762,,628195.5,,628217.254,5,600,,
break_continue,html.Screen,10_20_2,2023-11-20T20:38:53.072Z,,,,,,,,,,,NaN,,,,,,,,low,low,,,,,,,false,,,,,false,628196.7999999523,628196.5999999046,,628196.2999999523,,628217.254,5,600,,
sequence,flow.Sequence,10_20,2023-11-20T20:38:53.072Z,,,,,,,,,,,2250.301999904681,completion,,,,,,,low,low,,,,,,,false,,,,,false,628197.0999999046,628196.5999999046,625929.638,625934,625946.298,628217.254,5,600,,
trial,html.Screen,10_21_0,2023-11-20T20:38:56.229Z,,,,1,-0.0377791839943904,0.0227626648172468,,0.04,false,ll,3136.545999952359,response,-1.1126049058422398,1.145,-1.0286081672124472,-1.2305421124063929,1.1499999999999997,-1.1499999999999997,low,low,,ISIC_7167479.JPG,9,ISIC_0071536.JPG,28,30,false,0.1,lh,keypress(e),0,false,631354,631353.7999999523,628184.038,628197.1999999285,628217.254,631373.345,5,600,22,
break,html.Screen,10_21_1,2023-11-20T20:38:56.229Z,,,,,,,,,,,NaN,,,,,,,,low,low,,,,,,,false,,,,,false,631354.3999999762,631354.2999999523,,631354.0999999046,,631373.345,5,600,,
break_continue,html.Screen,10_21_2,2023-11-20T20:38:56.230Z,,,,,,,,,,,NaN,,,,,,,,low,low,,,,,,,false,,,,,false,631354.5,631354.5,,631354.5,,631373.345,5,600,,
sequence,flow.Sequence,10_21,2023-11-20T20:38:56.230Z,,,,,,,,,,,3137.246000000043,completion,,,,,,,low,low,,,,,,,false,,,,,false,631354.6999999285,631354.5,628184.038,628197.1999999285,628217.254,631373.345,5,600,,
trial,html.Screen,10_22_0,2023-11-20T20:38:59.213Z,,,,1,0.0051046740562181,-0.0178832721027728,,0.04,false,hl,2964.2549999046605,response,1.2838089642212804,1.145,-1.0286081672124472,-0.8550527900640753,1.1499999999999997,-1.1499999999999997,high,low,,ISIC_9545819.JPG,8,ISIC_0034187.JPG,28,27,false,0.31000000000000016,hh,keypress(i),0,false,634337.6999999285,634337.5999999046,631339.949,631354.7999999523,631373.345,634345.825,5,600,23,
break,html.Screen,10_22_1,2023-11-20T20:38:59.213Z,,,,,,,,,,,NaN,,,,,,,,high,low,,,,,,,false,,,,,false,634338.1999999285,634338.0999999046,,634337.7999999523,,634345.825,5,600,,
break_continue,html.Screen,10_22_2,2023-11-20T20:38:59.213Z,,,,,,,,,,,NaN,,,,,,,,high,low,,,,,,,false,,,,,false,634338.3999999762,634338.2999999523,,634338.1999999285,,634345.825,5,600,,
sequence,flow.Sequence,10_22,2023-11-20T20:38:59.213Z,,,,,,,,,,,2964.954999952344,completion,,,,,,,high,low,,,,,,,false,,,,,false,634338.3999999762,634338.2999999523,631339.949,631354.6999999285,631373.345,634345.825,5,600,,
trial,html.Screen,10_23_0,2023-11-20T20:39:00.990Z,,,,1,0.0321039635696159,0.020496766286318,,0.04,false,lh,1768.7749999046791,response,-0.9566823908868002,1.145,-1.0286081672124472,0.9602125665128364,1.1499999999999997,-1.1499999999999997,low,high,,ISIC_0058063.JPG,9,ISIC_0056784.JPG,28,25,false,0.2300000000000001,hh,keypress(i),0,false,636114.7999999523,636114.5999999046,634329.133,634338.5,634345.825,636149.34,5,600,24,
break,html.Screen,10_23_1,2023-11-20T20:39:00.991Z,,,,,,,,,,,NaN,,,,,,,,low,high,,,,,,,false,,,,,false,636115.7999999523,636115.5999999046,,636115.0999999046,,636149.34,5,600,,
break_continue,html.Screen,10_23_2,2023-11-20T20:39:00.991Z,,,,,,,,,,,NaN,,,,,,,,low,high,,,,,,,false,,,,,false,636116.3999999762,636116.1999999285,,636116,,636149.34,5,600,,
sequence,flow.Sequence,10_23,2023-11-20T20:39:00.992Z,,,,,,,,,,,1770.374999928521,completion,,,,,,,low,high,,,,,,,false,,,,,false,636116.5999999046,636116.1999999285,634329.133,634338.5,634345.825,636149.34,5,600,,
trial,html.Screen,10_24_0,2023-11-20T20:39:04.014Z,,,,1,-0.0077673378094614,-0.0021810768579373,,0.04,false,hl,2989.759999904665,response,0.8479396253253069,1.145,-1.0286081672124472,-1.011054319516718,1.1499999999999997,-1.1499999999999997,high,low,,ISIC_0067621.JPG,9,ISIC_0063521.JPG,28,27,false,0.31000000000000016,hh,keypress(i),0,false,639139.5,639139.0999999046,636099.392,636116.6999999285,636149.34,639155.193,5,600,25,
break,html.Screen,10_24_1,2023-11-20T20:39:04.016Z,,,,,,,,,,,NaN,,,,,,,,high,low,,,,,,,false,,,,,false,639140.6999999285,639140.3999999762,,639139.8999999762,,639155.193,5,600,,
break_continue,html.Screen,10_24_2,2023-11-20T20:39:04.016Z,,,,,,,,,,,NaN,,,,,,,,high,low,,,,,,,false,,,,,false,639141.5,639141.1999999285,,639141,,639155.193,5,600,,
sequence,flow.Sequence,10_24,2023-11-20T20:39:04.017Z,,,,,,,,,,,2991.859999928507,completion,,,,,,,high,low,,,,,,,false,,,,,false,639141.8999999762,639141.1999999285,636099.392,636116.6999999285,636149.34,639155.193,5,600,,
trial,html.Screen,10_25_0,2023-11-20T20:39:08.775Z,,,,1,0.0086413421586899,0.0360184993500958,,0.04,false,hl,4744.106999952346,response,1.0003671514840182,1.145,-1.0286081672124472,-0.8992716557663581,1.1499999999999997,-1.1499999999999997,high,low,,ISIC_0010767.JPG,9,ISIC_0061749.JPG,28,27,false,0.31000000000000016,lh,keypress(e),0,false,643899.6999999285,643899.2999999523,639138.631,639142,639155.193,643914.517,5,600,26,
break,html.Screen,10_25_1,2023-11-20T20:39:08.776Z,,,,,,,,,,,NaN,,,,,,,,high,low,,,,,,,false,,,,,false,643900.8999999762,643900.5999999046,,643900,,643914.517,5,600,,
break_continue,html.Screen,10_25_2,2023-11-20T20:39:08.777Z,,,,,,,,,,,NaN,,,,,,,,high,low,,,,,,,false,,,,,false,643901.5999999046,643901.3999999762,,643901.0999999046,,643914.517,5,600,,
sequence,flow.Sequence,10_25,2023-11-20T20:39:08.777Z,,,,,,,,,,,4746.206999976188,completion,,,,,,,high,low,,,,,,,false,,,,,false,643901.8999999762,643901.3999999762,639138.631,639142,639155.193,643914.517,5,600,,
trial,html.Screen,10_26_0,2023-11-20T20:39:11.175Z,,,,1,-0.0166849894750452,0.0371614812368835,,0.04,false,hh,2384.9830000000075,response,1.1655508270784471,1.145,-1.0286081672124472,1.1162776063248168,1.1499999999999997,-1.1499999999999997,high,high,,ISIC_6231450.JPG,8,ISIC_5509946.JPG,28,28,false,0.14,hl,keypress(j),0,false,646299.6999999285,646299.5,643897.889,643902.0999999046,643914.517,646319.136,5,600,27,
break,html.Screen,10_26_1,2023-11-20T20:39:11.176Z,,,,,,,,,,,NaN,,,,,,,,high,high,,,,,,,false,,,,,false,646300.8999999762,646300.6999999285,,646300.1999999285,,646319.136,5,600,,
break_continue,html.Screen,10_26_2,2023-11-20T20:39:11.177Z,,,,,,,,,,,NaN,,,,,,,,high,high,,,,,,,false,,,,,false,646301.6999999285,646301.5,,646301.0999999046,,646319.136,5,600,,
sequence,flow.Sequence,10_26,2023-11-20T20:39:11.177Z,,,,,,,,,,,2386.9830000000075,completion,,,,,,,high,high,,,,,,,false,,,,,false,646302,646301.5,643897.889,643902.0999999046,643914.517,646319.136,5,600,,
trial,html.Screen,10_27_0,2023-11-20T20:39:16.237Z,,,,1,-0.0057914759495055,0.018500200317654,,0.04,false,lh,5042.863999999943,response,-0.887838744955182,1.145,-1.0286081672124472,1.3716210719758812,1.1499999999999997,-1.1499999999999997,low,high,,ISIC_0058723.JPG,9,ISIC_1488727.JPG,28,25,false,0.2300000000000001,hl,keypress(j),0,false,651362.0999999046,651362,646285.944,646302.1999999285,646319.136,651395.843,5,600,28,
break,html.Screen,10_27_1,2023-11-20T20:39:16.238Z,,,,,,,,,,,NaN,,,,,,,,low,high,,,,,,,false,,,,,false,651362.5,651362.3999999762,,651362.2999999523,,651395.843,5,600,,
break_continue,html.Screen,10_27_2,2023-11-20T20:39:16.238Z,,,,,,,,,,,NaN,,,,,,,,low,high,,,,,,,false,,,,,false,651362.6999999285,651362.6999999285,,651362.5999999046,,651395.843,5,600,,
sequence,flow.Sequence,10_27,2023-11-20T20:39:16.238Z,,,,,,,,,,,5043.563999928418,completion,,,,,,,low,high,,,,,,,false,,,,,false,651362.6999999285,651362.6999999285,646285.944,646302.1999999285,646319.136,651395.843,5,600,,
trial,html.Screen,10_28_0,2023-11-20T20:39:20.991Z,,,,1,-0.0071892445601978,0.0246015408628738,,0.04,false,ll,4719.456999952323,response,-0.968832577506943,1.145,-1.0286081672124472,-1.068698723750748,1.1499999999999997,-1.1499999999999997,low,low,,ISIC_0014133.JPG,9,ISIC_0010962.JPG,28,30,false,0.1,hh,keypress(i),0,false,656115.6999999285,656115.2999999523,651379.215,651362.8999999762,651395.843,656121.548,5,600,29,
break,html.Screen,10_28_1,2023-11-20T20:39:20.992Z,,,,,,,,,,,NaN,,,,,,,,low,low,,,,,,,false,,,,,false,656116.8999999762,656116.5999999046,,656116.0999999046,,656121.548,5,600,,
break_continue,html.Screen,10_28_2,2023-11-20T20:39:20.993Z,,,,,,,,,,,NaN,,,,,,,,low,low,,,,,,,false,,,,,false,656117.6999999285,656117.5,,656117.0999999046,,656121.548,5,600,,
sequence,flow.Sequence,10_28,2023-11-20T20:39:20.993Z,,,,,,,,,,,4721.6570000000065,completion,,,,,,,low,low,,,,,,,false,,,,,false,656118,656117.5,651379.215,651362.8999999762,651395.843,656121.548,5,600,,
trial,html.Screen,10_29_0,2023-11-20T20:39:24.919Z,,,,1,0.0365981355399771,0.0162670920008846,,0.04,false,ll,3921.8519999762066,response,-0.9695913930841004,1.145,-1.0286081672124472,-1.2261129408494682,1.1499999999999997,-1.1499999999999997,low,low,,ISIC_0982855.JPG,8,ISIC_0028086.JPG,28,30,false,0.1,lh,keypress(e),0,false,660043.5999999046,660043.3999999762,656105.083,656118.2999999523,656121.548,660062.552,5,600,30,
break,html.Screen,10_29_1,2023-11-20T20:39:24.920Z,,,,,,,,,,,NaN,,,,,,,,low,low,,,,,,,false,,,,,false,660044.7999999523,660044.5,,660044,,660062.552,5,600,,
break_continue,html.Screen,10_29_2,2023-11-20T20:39:24.921Z,,,,,,,,,,,NaN,,,,,,,,low,low,,,,,,,false,,,,,false,660045.5,660045.2999999523,,660045,,660062.552,5,600,,
sequence,flow.Sequence,10_29,2023-11-20T20:39:24.921Z,,,,,,,,,,,3923.7519999523647,completion,,,,,,,low,low,,,,,,,false,,,,,false,660045.7999999523,660045.2999999523,656105.083,656118.1999999285,656121.548,660062.552,5,600,,
trial,html.Screen,10_30_0,2023-11-20T20:39:28.767Z,,,,1,-0.012020985739544,0.0126097407389903,,0.04,false,hl,3828.847999976133,response,0.8591294258188253,1.145,-1.0286081672124472,-0.870797302150167,1.1499999999999997,-1.1499999999999997,high,low,,ISIC_0069379.JPG,9,ISIC_0055841.JPG,28,27,false,0.31000000000000016,lh,keypress(e),0,false,663891.8999999762,663891.3999999762,660029.366,660046,660062.552,663920.08,5,600,31,
break,html.Screen,10_30_1,2023-11-20T20:39:28.768Z,,,,,,,,,,,NaN,,,,,,,,high,low,,,,,,,false,,,,,false,663893.0999999046,663892.7999999523,,663892.2999999523,,663920.08,5,600,,
break_continue,html.Screen,10_30_2,2023-11-20T20:39:28.769Z,,,,,,,,,,,NaN,,,,,,,,high,low,,,,,,,false,,,,,false,663893.8999999762,663893.5999999046,,663893.3999999762,,663920.08,5,600,,
sequence,flow.Sequence,10_30,2023-11-20T20:39:28.769Z,,,,,,,,,,,3831.0479999046074,completion,,,,,,,high,low,,,,,,,false,,,,,false,663894.2999999523,663893.5999999046,660029.366,660046,660062.552,663920.08,5,600,,
trial,html.Screen,10_31_0,2023-11-20T20:39:30.399Z,,,,1,-0.00126575685933,-0.0325046559638838,,0.04,false,hh,1603.1199999285163,response,1.011737552725394,1.145,-1.0286081672124472,1.0893360711742854,1.1499999999999997,-1.1499999999999997,high,high,,ISIC_5682259.JPG,9,ISIC_2998367.JPG,28,28,false,0.14,lh,keypress(e),0,false,665523.5,665523.1999999285,663886.776,663894.5,663920.08,665539.859,5,600,32,
break,html.Screen,10_31_1,2023-11-20T20:39:30.400Z,,,,,,,,,,,NaN,,,,,,,,high,high,,,,,,,false,,,,,false,665524.7999999523,665524.3999999762,,665523.8999999762,,665539.859,5,600,,
break_continue,html.Screen,10_31_2,2023-11-20T20:39:30.401Z,,,,,,,,,,,NaN,,,,,,,,high,high,,,,,,,false,,,,,false,665525.5,665525.2999999523,,665525,,665539.859,5,600,,
sequence,flow.Sequence,10_31,2023-11-20T20:39:30.401Z,,,,,,,,,,,1605.2199999523582,completion,,,,,,,high,high,,,,,,,false,,,,,false,665525.7999999523,665525.2999999523,663886.776,663894.3999999762,663920.08,665539.859,5,600,,
trial,html.Screen,10_32_0,2023-11-20T20:39:32.981Z,,,,1,-0.0050679133050021,-0.0174815595031679,,0.04,false,lh,2566.040999976103,response,-1.1592423187534993,1.145,-1.0286081672124472,1.067128884093211,1.1499999999999997,-1.1499999999999997,low,high,,ISIC_9848743.JPG,8,ISIC_6854940.JPG,28,25,false,0.2300000000000001,ll,keypress(f),0,false,668106,668105.8999999762,665523.361,665526,665539.859,668111.552,5,600,33,
break,html.Screen,10_32_1,2023-11-20T20:39:32.981Z,,,,,,,,,,,NaN,,,,,,,,low,high,,,,,,,false,,,,,false,668106.2999999523,668106.2999999523,,668106.0999999046,,668111.552,5,600,,
break_continue,html.Screen,10_32_2,2023-11-20T20:39:32.982Z,,,,,,,,,,,NaN,,,,,,,,low,high,,,,,,,false,,,,,false,668106.5,668106.3999999762,,668106.2999999523,,668111.552,5,600,,
sequence,flow.Sequence,10_32,2023-11-20T20:39:32.982Z,,,,,,,,,,,2566.540999976103,completion,,,,,,,low,high,,,,,,,false,,,,,false,668106.5,668106.3999999762,665523.361,665526,665539.859,668111.552,5,600,,
trial,html.Screen,10_33_0,2023-11-20T20:39:40.303Z,,,,1,-0.012020985739544,0.0126097407389903,,0.04,false,lh,7316.047999904607,response,-0.8015753713975186,1.145,-1.0286081672124472,1.0067065355978264,1.1499999999999997,-1.1499999999999997,low,high,,ISIC_0069379.JPG,9,ISIC_0002119.JPG,28,25,false,0.2300000000000001,hl,keypress(j),0,false,675428.0999999046,675427.5999999046,668095.023,668106.5999999046,668111.552,675459.167,5,600,34,
break,html.Screen,10_33_1,2023-11-20T20:39:40.304Z,,,,,,,,,,,NaN,,,,,,,,low,high,,,,,,,false,,,,,false,675429.1999999285,675428.8999999762,,675428.3999999762,,675459.167,5,600,,
break_continue,html.Screen,10_33_2,2023-11-20T20:39:40.305Z,,,,,,,,,,,NaN,,,,,,,,low,high,,,,,,,false,,,,,false,675429.8999999762,675429.6999999285,,675429.3999999762,,675459.167,5,600,,
sequence,flow.Sequence,10_33,2023-11-20T20:39:40.305Z,,,,,,,,,,,7318.147999928449,completion,,,,,,,low,high,,,,,,,false,,,,,false,675430.1999999285,675429.6999999285,668095.023,668106.5,668111.552,675459.167,5,600,,
trial,html.Screen,10_34_0,2023-11-20T20:39:56.317Z,,,,1,0.0327772618698018,-0.0056908372048728,,0.04,,,16031.277000000002,timeout,-1.2043484010107477,1.145,-1.0286081672124472,1.2178113180138233,1.1499999999999997,-1.1499999999999997,low,high,,ISIC_7897925.JPG,8,ISIC_0011917.JPG,28,25,false,0.2300000000000001,,,0,false,691441.5999999046,691441.2999999523,675442.497,675430.3999999762,675459.167,691490.444,5,600,35,
break,html.Screen,10_34_1,2023-11-20T20:39:56.318Z,,,,,,,,,,,NaN,,,,,,,,low,high,,,,,,,false,,,,,false,691442.6999999285,691442.3999999762,,691442.0999999046,,691490.444,5,600,,
break_continue,html.Screen,10_34_2,2023-11-20T20:39:56.319Z,,,,,,,,,,,NaN,,,,,,,,low,high,,,,,,,false,,,,,false,691443.3999999762,691443.0999999046,,691442.8999999762,,691490.444,5,600,,
sequence,flow.Sequence,10_34,2023-11-20T20:39:56.319Z,,,,,,,,,,,15983.932999904617,completion,,,,,,,low,high,,,,,,,false,,,,,false,691443.6999999285,691443.0999999046,675442.497,675430.2999999523,675459.167,691490.444,5,600,,
trial,html.Screen,10_35_0,2023-11-20T20:40:02.541Z,,,,1,0.010035581303589,-0.0100711721396864,,0.04,false,lh,6175.155999904615,response,-0.8709576717420565,1.145,-1.0286081672124472,1.2795156779072283,1.1499999999999997,-1.1499999999999997,low,high,,ISIC_0030592.JPG,8,ISIC_1925632.JPG,28,25,false,0.2300000000000001,hh,keypress(i),0,false,697665.6999999285,697665.5999999046,691473.72,691443.8999999762,691490.444,697669.091,5,600,36,
break,html.Screen,10_35_1,2023-11-20T20:40:02.541Z,,,,,,,,,,,NaN,,,,,,,,low,high,,,,,,,false,,,,,false,697666.0999999046,697666,,697665.8999999762,,697669.091,5,600,,
break_continue,html.Screen,10_35_2,2023-11-20T20:40:02.541Z,,,,,,,,,,,NaN,,,,,,,,low,high,,,,,,,false,,,,,false,697666.2999999523,697666.1999999285,,697666.0999999046,,697669.091,5,600,,
sequence,flow.Sequence,10_35,2023-11-20T20:40:02.542Z,,,,,,,,,,,6175.755999928457,completion,,,,,,,low,high,,,,,,,false,,,,,false,697666.2999999523,697666.1999999285,691473.72,691443.7999999523,691490.444,697669.091,5,600,,
trial,html.Screen,10_36_0,2023-11-20T20:40:05.071Z,,,,1,-0.012020985739544,0.0126097407389903,,0.04,false,ll,2526.408999999985,response,-1.1126049058422398,1.145,-1.0286081672124472,-1.2305421124063929,1.1499999999999997,-1.1499999999999997,low,low,,ISIC_0069379.JPG,9,ISIC_0071536.JPG,28,30,false,0.1,lh,keypress(e),0,false,700195.7999999523,700195.5,697652.501,697666.3999999762,697669.091,700207.364,5,600,37,
break,html.Screen,10_36_1,2023-11-20T20:40:05.072Z,,,,,,,,,,,NaN,,,,,,,,low,low,,,,,,,false,,,,,false,700197.0999999046,700196.6999999285,,700196.1999999285,,700207.364,5,600,,
break_continue,html.Screen,10_36_2,2023-11-20T20:40:05.073Z,,,,,,,,,,,NaN,,,,,,,,low,low,,,,,,,false,,,,,false,700197.7999999523,700197.5999999046,,700197.2999999523,,700207.364,5,600,,
sequence,flow.Sequence,10_36,2023-11-20T20:40:05.073Z,,,,,,,,,,,2528.5089999046177,completion,,,,,,,low,low,,,,,,,false,,,,,false,700198.0999999046,700197.5999999046,697652.501,697666.3999999762,697669.091,700207.364,5,600,,
trial,html.Screen,10_37_0,2023-11-20T20:40:07.965Z,,,,1,-0.012020985739544,0.0126097407389903,,0.04,true,lh,2882.636000000057,response,-0.9046170303418553,1.145,-1.0286081672124472,1.0063426986460375,1.1499999999999997,-1.1499999999999997,low,high,,ISIC_0069379.JPG,9,ISIC_0055759.JPG,28,25,false,0.2300000000000001,lh,keypress(e),0,false,703090.0999999046,703090,700190.753,700198.3999999762,700207.364,703096.317,5,600,38,
break,html.Screen,10_37_1,2023-11-20T20:40:07.966Z,,,,,,,,,,,NaN,,,,,,,,low,high,,,,,,,false,,,,,false,703090.5,703090.5,,703090.1999999285,,703096.317,5,600,,
break_continue,html.Screen,10_37_2,2023-11-20T20:40:07.966Z,,,,,,,,,,,NaN,,,,,,,,low,high,,,,,,,false,,,,,false,703090.7999999523,703090.6999999285,,703090.5999999046,,703096.317,5,600,,
sequence,flow.Sequence,10_37,2023-11-20T20:40:07.966Z,,,,,,,,,,,2883.3359999285312,completion,,,,,,,low,high,,,,,,,false,,,,,false,703091,703090.6999999285,700190.753,700198.2999999523,700207.364,703096.317,5,600,,
trial,html.Screen,10_38_0,2023-11-20T20:40:09.663Z,,,,1,-0.0377791839943904,0.0227626648172468,,0.04,true,lh,1690.9829999522772,response,-0.8620516892494489,1.145,-1.0286081672124472,1.1108509340502866,1.1499999999999997,-1.1499999999999997,low,high,,ISIC_7167479.JPG,9,ISIC_5557806.JPG,28,25,false,0.2300000000000001,lh,keypress(e),0,false,704787.6999999285,704787.2999999523,703079.758,703091,703096.317,704799.795,5,600,39,
break,html.Screen,10_38_1,2023-11-20T20:40:09.664Z,,,,,,,,,,,NaN,,,,,,,,low,high,,,,,,,false,,,,,false,704788.7999999523,704788.5,,704788.0999999046,,704799.795,5,600,,
break_continue,html.Screen,10_38_2,2023-11-20T20:40:09.665Z,,,,,,,,,,,NaN,,,,,,,,low,high,,,,,,,false,,,,,false,704789.5,704789.1999999285,,704789,,704799.795,5,600,,
sequence,flow.Sequence,10_38,2023-11-20T20:40:09.665Z,,,,,,,,,,,1692.8829999284353,completion,,,,,,,low,high,,,,,,,false,,,,,false,704789.8999999762,704789.1999999285,703079.758,703091,703096.317,704799.795,5,600,,
trial,html.Screen,10_39_0,2023-11-20T20:40:11.263Z,,,,1,-0.0023664502831079,-0.0252784582169994,,0.04,false,ll,1587.704999999958,response,-0.9908688855899804,1.145,-1.0286081672124472,-1.1838250548520497,1.1499999999999997,-1.1499999999999997,low,low,,ISIC_4156010.JPG,8,ISIC_0031208.JPG,28,30,false,0.1,lh,keypress(e),0,false,706387.8999999762,706387.5,704783.039,704790.0999999046,704799.795,706402.949,5,600,40,
break,html.Screen,10_39_1,2023-11-20T20:40:11.264Z,,,,,,,,,,,NaN,,,,,,,,low,low,,,,,,,false,,,,,false,706389,706388.6999999285,,706388.1999999285,,706402.949,5,600,,
