sender,sender_type,sender_id,timestamp,meta,,age,blockNo,c1,c2,condition,control_tolerance,correct,correctResponse,duration,ended_on,f1,f1_high,f1_low,f2,f2_high,f2_low,feature_level1,feature_level2,gender,img_left,img_reveal,img_right,n_control_images,n_target_images,practice,range_tolerance,response,response_action,selection_duration,staircase,time_commit,time_end,time_render,time_run,time_show,time_switch,total_blocks,total_trials,trialNo,url
informed_consent,html.Screen,0,2023-11-30T17:33:05.836Z,"{""labjs_version"":""20.2.4"",""labjs_build"":{""flavor"":""development"",""commit"":""f5b4a49f956347addd546a832a3327688c2c0fef""},""location"":""https://labjs.felixhenninger.com/api/labjs_preview/index.html"",""userAgent"":""Mozilla/5.0 (Windows NT 10.0; Win64; x64) AppleWebKit/537.36 (KHTML, like Gecko) Chrome/119.0.0.0 Safari/537.36"",""platform"":""Win32"",""language"":""en-US"",""locale"":""en-US"",""timeZone"":""America/Chicago"",""timezoneOffset"":360,""screen_width"":1680,""screen_height"":1050,""scroll_width"":825,""scroll_height"":888,""window_innerWidth"":825,""window_innerHeight"":936,""devicePixelRatio"":1}",,,,,,,,,,15580.955,response,,,,,,,,,,,,,,,,,consent,click button,,,16401.599999904633,16393,795.362,783.0999999046326,812.045,16425.864,,,,{}
Demography form,html.Form,1,2023-11-30T17:33:14.437Z,,,20,,,,,,,,8576.435999952315,form submission,,,,,,,,,male,,,,,,,,,,,,25002.5,25002.299999952316,16409.241,16401.699999809265,16425.864,25025.862,,,,
Welcome,html.Screen,2,2023-11-30T17:34:12.604Z,,,,,,,"[""bor"",""col""]",,,,58143.138,response,,,,,,,,,,,,,,,,,continue,click button,,,83169.5,83169,25009.229,25002.5,25025.862,83188.905,,,,
demo_instructions,html.Screen,3,2023-11-30T17:35:08.717Z,,,,,,,,,,,56092.095,response,,,,,,,,,,,,,,,,,continue,click button,,,139281.69999980927,139281,83172.188,83169.59999990463,83188.905,139298.037,,,,
trial,html.Screen,4_0_0,2023-11-30T17:35:27.803Z,,,,0,-1.1048559518249943,-1.2252457981338687,,,true,hh,19068.56299990462,response,1.274752206258116,1.2,-1.2,1.2988509166163749,1.2,-1.2,high,high,,ISIC_0060817.JPG,,ISIC_6704623.JPG,,25,true,0.14,hh,keypress(i),100,false,158366.89999985695,158366.59999990463,139281.354,139281.89999985695,139298.037,158385.144,1,16,1,
sequence,flow.Sequence,4_0,2023-11-30T17:35:27.803Z,,,,,,,,,,,19068.56299990462,completion,,,,,,,high,high,,,,,,,true,,,,,false,158367.39999985695,158366.59999990463,139281.354,139281.89999985695,139298.037,158385.144,1,16,,
trial,html.Screen,4_1_0,2023-11-30T17:35:34.870Z,,,,0,-1.1392972253022884,-1.208510423375335,,,true,hh,7049.356,response,1.2724293858920366,1.2,-1.2,1.149360738769835,1.2,-1.2,high,high,,ISIC_0046526.JPG,,ISIC_1264725.JPG,,25,true,0.14,hh,keypress(i),100,false,165434.89999985695,165434.5,158368.45,158367.5,158385.144,165465.579,1,16,2,
sequence,flow.Sequence,4_1,2023-11-30T17:35:34.871Z,,,,,,,,,,,7049.356,completion,,,,,,,high,high,,,,,,,true,,,,,false,165435.29999995232,165434.5,158368.45,158367.39999985695,158385.144,165465.579,1,16,,
trial,html.Screen,4_2_0,2023-11-30T17:35:43.524Z,,,,0,-1.2118207001489876,-1.3164676315545727,,,true,hh,8622.220999952318,response,1.2804054832904397,1.2,-1.2,1.171271535505083,1.2,-1.2,high,high,,ISIC_0066476.JPG,,ISIC_7889838.JPG,,25,true,0.14,hh,keypress(i),100,false,174088,174087.79999995232,165448.97,165435.5,165465.579,174115.797,1,16,3,
sequence,flow.Sequence,4_2,2023-11-30T17:35:43.524Z,,,,,,,,,,,8622.220999952318,completion,,,,,,,high,high,,,,,,,true,,,,,false,174088.19999980927,174087.79999995232,165448.97,165435.39999985695,165465.579,174115.797,1,16,,
trial,html.Screen,4_3_0,2023-11-30T17:35:49.194Z,,,,0,-1.2033647433750492,-1.0718012192341555,,,true,hh,5642.802999904641,response,1.2253191093367526,1.2,-1.2,1.241905252673026,1.2,-1.2,high,high,,ISIC_0061606.JPG,,ISIC_1195689.JPG,,25,true,0.14,hh,keypress(i),100,false,179758.79999995232,179758.59999990463,174099.23,174088.19999980927,174115.797,179776.736,1,16,4,
sequence,flow.Sequence,4_3,2023-11-30T17:35:49.195Z,,,,,,,,,,,5642.802999904641,completion,,,,,,,high,high,,,,,,,true,,,,,false,179759.19999980927,179758.59999990463,174099.23,174088.19999980927,174115.797,179776.736,1,16,,
trial,html.Screen,4_4_0,2023-11-30T17:35:57.814Z,,,,0,1.2804054832904397,1.171271535505083,,,true,ll,8601.46399980926,response,-1.266079261381142,1.2,-1.2,-1.312161506160336,1.2,-1.2,low,low,,ISIC_7889838.JPG,,ISIC_0065449.JPG,,30,true,0.13,ll,keypress(f),100,false,188378.39999985695,188378.19999980927,179760.056,179759.39999985695,179776.736,188410.195,1,16,5,
sequence,flow.Sequence,4_4,2023-11-30T17:35:57.814Z,,,,,,,,,,,8601.46399980926,completion,,,,,,,low,low,,,,,,,true,,,,,false,188378.59999990463,188378.19999980927,179760.056,179759.29999995232,179776.736,188410.195,1,16,,
trial,html.Screen,4_5_0,2023-11-30T17:36:16.670Z,,,,0,1.2219550761700546,1.2809901875733454,,,true,ll,18823.904999904626,response,-1.219634566983089,1.2,-1.2,-1.0648460966097275,1.2,-1.2,low,low,,ISIC_6463417.JPG,,ISIC_0030552.JPG,,40,true,0.14,ll,keypress(f),100,false,207234.19999980927,207234.09999990463,188393.498,188378.69999980927,188410.195,207263.46,1,16,6,
sequence,flow.Sequence,4_5,2023-11-30T17:36:16.671Z,,,,,,,,,,,18823.904999904626,completion,,,,,,,low,low,,,,,,,true,,,,,false,207234.39999985695,207234.09999990463,188393.498,188378.69999980927,188410.195,207263.46,1,16,,
trial,html.Screen,4_6_0,2023-11-30T17:36:27.926Z,,,,0,1.2600330864275875,1.0958628838888655,,,true,ll,11226.339999952324,response,-1.1017564906891342,1.2,-1.2,-1.293633394635193,1.2,-1.2,low,low,,ISIC_0026996.JPG,,ISIC_0029026.JPG,,40,true,0.14,ll,keypress(f),100,false,218490,218489.79999995232,207246.77,207234.5,207263.46,218518.733,1,16,7,
sequence,flow.Sequence,4_6,2023-11-30T17:36:27.927Z,,,,,,,,,,,11226.339999952324,completion,,,,,,,low,low,,,,,,,true,,,,,false,218490.29999995232,218489.79999995232,207246.77,207234.5,207263.46,218518.733,1,16,,
trial,html.Screen,4_7_0,2023-11-30T17:36:38.447Z,,,,0,1.2804054832904397,1.171271535505083,,,true,ll,10491.466999809258,response,-1.0653732408486678,1.2,-1.2,-1.089675540151582,1.2,-1.2,low,low,,ISIC_7889838.JPG,,ISIC_0058315.JPG,,40,true,0.14,ll,keypress(f),100,false,229010.5,229010.19999980927,218502.256,218490.5,218518.733,229039.185,1,16,8,
sequence,flow.Sequence,4_7,2023-11-30T17:36:38.447Z,,,,,,,,,,,10491.466999809258,completion,,,,,,,low,low,,,,,,,true,,,,,false,229010.79999995232,229010.19999980927,218502.256,218490.39999985695,218518.733,229039.185,1,16,,
trial,html.Screen,4_8_0,2023-11-30T17:37:00.667Z,,,,0,1.058275612142778,-0.7824898568540655,,,true,lh,22191.21499985695,response,-0.8307508446051526,1.2,-1.2,1.1707575338936729,1.2,-1.2,low,high,,ISIC_4906385.JPG,,ISIC_0028606.JPG,,27,true,0.40000000000000024,lh,keypress(e),100,false,251230.59999990463,251230.39999985695,229022.532,229010.89999985695,229039.185,251249.026,1,16,9,
sequence,flow.Sequence,4_8,2023-11-30T17:37:00.667Z,,,,,,,,,,,22191.21499985695,completion,,,,,,,low,high,,,,,,,true,,,,,false,251230.69999980927,251230.39999985695,229022.532,229010.89999985695,229039.185,251249.026,1,16,,
trial,html.Screen,4_9_0,2023-11-30T17:37:11.712Z,,,,0,0.7882758084023446,-0.8296405881378283,,,true,lh,11025.473999999987,response,-0.9633172970727744,1.2,-1.2,0.8472659344792351,1.2,-1.2,low,high,,ISIC_0065882.JPG,,ISIC_0067172.JPG,,40,true,0.4500000000000003,lh,keypress(e),100,false,262274.69999980927,262274.5,251232.322,251230.79999995232,251249.026,262304.141,1,16,10,
sequence,flow.Sequence,4_9,2023-11-30T17:37:11.712Z,,,,,,,,,,,11025.473999999987,completion,,,,,,,low,high,,,,,,,true,,,,,false,262274.89999985695,262274.5,251232.322,251230.79999995232,251249.026,262304.141,1,16,,
trial,html.Screen,4_10_0,2023-11-30T17:37:20.802Z,,,,0,0.7518277461369444,-1.3860759020802074,,,true,lh,9060.058999809262,response,-0.7688509750532941,1.2,-1.2,0.7699842387811451,1.2,-1.2,low,high,,ISIC_7967397.JPG,,ISIC_0014527.JPG,,40,true,0.4500000000000003,lh,keypress(e),100,false,271364.39999985695,271364.19999980927,262287.195,262274.89999985695,262304.141,271388.217,1,16,11,
sequence,flow.Sequence,4_10,2023-11-30T17:37:20.802Z,,,,,,,,,,,9060.058999809262,completion,,,,,,,low,high,,,,,,,true,,,,,false,271364.69999980927,271364.19999980927,262287.195,262274.89999985695,262304.141,271388.217,1,16,,
trial,html.Screen,4_11_0,2023-11-30T17:37:33.819Z,,,,0,0.8110121381849364,-0.7563142141851558,,,true,lh,12993.382999904628,response,-0.8987343013179191,1.2,-1.2,0.8149073454566363,1.2,-1.2,low,high,,ISIC_0033605.JPG,,ISIC_0472513.JPG,,40,true,0.4500000000000003,lh,keypress(e),100,false,284381.69999980927,284381.59999990463,271371.553,271364.7999999523,271388.217,284413.693,1,16,12,
sequence,flow.Sequence,4_11,2023-11-30T17:37:33.819Z,,,,,,,,,,,12993.382999904628,completion,,,,,,,low,high,,,,,,,true,,,,,false,284381.89999985695,284381.59999990463,271371.553,271364.7999999523,271388.217,284413.693,1,16,,
trial,html.Screen,4_12_0,2023-11-30T17:38:03.615Z,,,,0,-0.8500530224490773,1.0893360711742854,,,true,hl,29763.506999809237,response,1.0329549150636406,1.2,-1.2,-1.01584100839286,1.2,-1.2,high,low,,ISIC_2998367.JPG,,ISIC_0054670.JPG,,26,true,0.4500000000000003,hl,keypress(j),100,false,314177.39999985695,314177.19999980927,284396.866,284382,284413.693,314204.807,1,16,13,
sequence,flow.Sequence,4_12,2023-11-30T17:38:03.615Z,,,,,,,,,,,29763.506999809237,completion,,,,,,,high,low,,,,,,,true,,,,,false,314177.69999980927,314177.19999980927,284396.866,284382,284413.693,314204.807,1,16,,
trial,html.Screen,4_13_0,2023-11-30T17:38:15.791Z,,,,0,-1.0685314915436992,0.8203833713472237,,,true,hl,12148.592999856977,response,1.0329549150636406,1.2,-1.2,-1.01584100839286,1.2,-1.2,high,low,,ISIC_0029374.JPG,,ISIC_0054670.JPG,,26,true,0.4500000000000003,hl,keypress(j),100,false,326353.59999990463,326353.39999985695,314188.161,314177.89999985695,314204.807,326378.492,1,16,14,
sequence,flow.Sequence,4_13,2023-11-30T17:38:15.792Z,,,,,,,,,,,12148.592999856977,completion,,,,,,,high,low,,,,,,,true,,,,,false,326353.89999985695,326353.39999985695,314188.161,314177.89999985695,314204.807,326378.492,1,16,,
trial,html.Screen,4_14_0,2023-11-30T17:38:39.225Z,,,,0,-1.0153439398566937,0.93001438372942,,,true,hl,23408.80799995229,response,0.7882758084023446,1.2,-1.2,-0.8296405881378283,1.2,-1.2,high,low,,ISIC_8211214.JPG,,ISIC_0065882.JPG,,26,true,0.4500000000000003,hl,keypress(j),100,false,349787.5,349787.2999999523,326361.834,326353.89999985695,326378.492,349807.384,1,16,15,
sequence,flow.Sequence,4_14,2023-11-30T17:38:39.225Z,,,,,,,,,,,23408.80799995229,completion,,,,,,,high,low,,,,,,,true,,,,,false,349787.59999990463,349787.2999999523,326361.834,326353.89999985695,326378.492,349807.384,1,16,,
trial,html.Screen,4_15_0,2023-11-30T17:38:44.672Z,,,,0,-0.8544507134472948,0.9244388608707323,,,true,hl,5426.315999809245,response,1.058275612142778,1.2,-1.2,-0.7824898568540655,1.2,-1.2,high,low,,ISIC_3565564.JPG,,ISIC_4906385.JPG,,26,true,0.4500000000000003,hl,keypress(j),100,false,355233.89999985695,355233.69999980927,349790.721,349787.69999980927,349807.384,355251.365,1,16,16,
sequence,flow.Sequence,4_15,2023-11-30T17:38:44.672Z,,,,,,,,,,,5426.315999809245,completion,,,,,,,high,low,,,,,,,true,,,,,false,355234.19999980927,355233.69999980927,349790.721,349787.69999980927,349807.384,355251.365,1,16,,
demonstration_loop,flow.Loop,4,2023-11-30T17:38:44.672Z,,,,,,,,,,,215935.66299980925,completion,,,,,,,,,,,,,,,true,,,,,false,355234.59999990463,355233.69999980927,139281.354,139281.89999985695,139298.037,355251.365,1,16,,
practice_instructions,html.Screen,5,2023-11-30T17:39:36.199Z,,,,,,,,,,,51501.23499990464,response,,,,,,,,,,,,,,,,,continue,click button,,,406761.19999980927,406752.59999990463,355234.63,355234.59999990463,355251.365,406768.162,,,,
trial,html.Screen,6_0_0,2023-11-30T17:39:49.544Z,,,,1,-1.1117876838408909,-1.2957497771092716,,,true,hh,13337.737999856938,response,1.2246024683501224,1.2,-1.2,1.2904526351590244,1.2,-1.2,high,high,,ISIC_0061915.JPG,,ISIC_4730066.JPG,,25,true,0.14,hh,keypress(i),0,false,420106.09999990463,420105.89999985695,406751.586,406761.2999999523,406768.162,420127.485,1,40,1,
sequence,flow.Sequence,6_0,2023-11-30T17:39:49.545Z,,,,,,,,,,,13337.737999856938,completion,,,,,,,high,high,,,,,,,true,,,,,false,420106.39999985695,420105.89999985695,406751.586,406761.2999999523,406768.162,420127.485,1,40,,
trial,html.Screen,6_1_0,2023-11-30T17:40:03.367Z,,,,1,1.3046390428588206,-0.7942099232219556,,,true,lh,13801.614999904647,response,-0.8307508446051526,1.2,-1.2,1.1707575338936729,1.2,-1.2,low,high,,ISIC_0013096.JPG,,ISIC_0028606.JPG,,27,true,0.40000000000000024,lh,keypress(e),0,false,433929.09999990463,433929.09999990463,420110.78,420106.59999990463,420127.485,433954.359,1,40,2,
sequence,flow.Sequence,6_1,2023-11-30T17:40:03.368Z,,,,,,,,,,,13801.614999904647,completion,,,,,,,low,high,,,,,,,true,,,,,false,433929.39999985695,433929.09999990463,420110.78,420106.5,420127.485,433954.359,1,40,,
trial,html.Screen,6_2_0,2023-11-30T17:40:19.374Z,,,,1,1.0887164761389951,-1.5357518752548716,,,,,16014.728999999992,timeout,-0.7714570894008278,1.2,-1.2,0.9113656554657036,1.2,-1.2,low,high,,ISIC_0028127.JPG,,ISIC_4529092.JPG,,40,true,0.4500000000000003,,,0,false,449936.09999990463,449936,433920.964,433929.39999985695,433954.359,449969.088,1,40,3,
sequence,flow.Sequence,6_2,2023-11-30T17:40:19.375Z,,,,,,,,,,,15981.641000000003,completion,,,,,,,low,high,,,,,,,true,,,,,false,449936.39999985695,449936,433920.964,433929.39999985695,433954.359,449969.088,1,40,,
trial,html.Screen,6_3_0,2023-11-30T17:40:26.808Z,,,,1,1.199471562817528,-0.8631260534979347,,,true,lh,7400.2119999523275,response,-0.8987343013179191,1.2,-1.2,0.8149073454566363,1.2,-1.2,low,high,,ISIC_0030754.JPG,,ISIC_0472513.JPG,,40,true,0.4500000000000003,lh,keypress(e),0,false,457369.39999985695,457369.2999999523,449952.152,449936.39999985695,449969.088,457383.272,1,40,4,
sequence,flow.Sequence,6_3,2023-11-30T17:40:26.808Z,,,,,,,,,,,7400.2119999523275,completion,,,,,,,low,high,,,,,,,true,,,,,false,457369.69999980927,457369.2999999523,449952.152,449936.39999985695,449969.088,457383.272,1,40,,
trial,html.Screen,6_4_0,2023-11-30T17:40:33.176Z,,,,1,-0.9244148283103414,0.9712966348713286,,,true,hl,6354.127999856952,response,0.8110121381849364,1.2,-1.2,-0.7563142141851558,1.2,-1.2,high,low,,ISIC_7927525.JPG,,ISIC_0033605.JPG,,26,true,0.4500000000000003,hl,keypress(j),0,false,463737.69999980927,463737.39999985695,457366.65,457369.7999999523,457383.272,463745.643,1,40,5,
sequence,flow.Sequence,6_4,2023-11-30T17:40:33.176Z,,,,,,,,,,,6354.127999856952,completion,,,,,,,high,low,,,,,,,true,,,,,false,463737.7999999523,463737.39999985695,457366.65,457369.7999999523,457383.272,463745.643,1,40,,
trial,html.Screen,6_5_0,2023-11-30T17:40:37.992Z,,,,1,-1.136677654701082,-1.2647850993872314,,,true,hh,4807.556999809283,response,0.9242629064104082,1.2,-1.2,1.0085499824556403,1.2,-1.2,high,high,,ISIC_0015436.JPG,,ISIC_7795549.JPG,,203,true,0.40000000000000024,hh,keypress(i),0,false,468553.39999985695,468553.19999980927,463729.128,463738,463745.643,468571.69,1,40,6,
sequence,flow.Sequence,6_5,2023-11-30T17:40:37.993Z,,,,,,,,,,,4807.556999809283,completion,,,,,,,high,high,,,,,,,true,,,,,false,468553.5,468553.19999980927,463729.128,463738,463745.643,468571.69,1,40,,
trial,html.Screen,6_6_0,2023-11-30T17:40:47.209Z,,,,1,-1.2020012168275056,0.923753102263735,,,true,hl,9198.009999809263,response,1.0453124399868816,1.2,-1.2,-0.8986747280184286,1.2,-1.2,high,low,,ISIC_0000022.JPG,,ISIC_0013967.JPG,,26,true,0.4500000000000003,hl,keypress(j),0,false,477769.89999985695,477769.69999980927,468538.411,468553.59999990463,468571.69,477789.628,1,40,7,
sequence,flow.Sequence,6_6,2023-11-30T17:40:47.209Z,,,,,,,,,,,9198.009999809263,completion,,,,,,,high,low,,,,,,,true,,,,,false,477770.19999980927,477769.69999980927,468538.411,468553.59999990463,468571.69,477789.628,1,40,,
trial,html.Screen,6_7_0,2023-11-30T17:40:50.425Z,,,,1,-0.9662688541319592,0.929746784178986,,,true,hl,3195.771999856923,response,0.9653573371180936,1.2,-1.2,-0.854766800381037,1.2,-1.2,high,low,,ISIC_0011077.JPG,,ISIC_9640145.JPG,,26,true,0.4500000000000003,hl,keypress(j),0,false,480985.59999990463,480985.39999985695,477756.161,477770.2999999523,477789.628,480995.854,1,40,8,
sequence,flow.Sequence,6_7,2023-11-30T17:40:50.425Z,,,,,,,,,,,3195.771999856923,completion,,,,,,,high,low,,,,,,,true,,,,,false,480985.7999999523,480985.39999985695,477756.161,477770.2999999523,477789.628,480995.854,1,40,,
trial,html.Screen,6_8_0,2023-11-30T17:40:59.193Z,,,,1,1.199471562817528,-0.8631260534979347,,,true,lh,8757.445999952324,response,-0.9662688541319592,1.2,-1.2,0.929746784178986,1.2,-1.2,low,high,,ISIC_0030754.JPG,,ISIC_0011077.JPG,,27,true,0.40000000000000024,lh,keypress(e),0,false,489753.39999985695,489753.2999999523,480979.152,480985.7999999523,480995.854,489762.885,1,40,9,
sequence,flow.Sequence,6_8,2023-11-30T17:40:59.193Z,,,,,,,,,,,8757.445999952324,completion,,,,,,,low,high,,,,,,,true,,,,,false,489753.69999980927,489753.2999999523,480979.152,480985.7999999523,480995.854,489762.885,1,40,,
trial,html.Screen,6_9_0,2023-11-30T17:41:02.496Z,,,,1,-1.2594580992890123,0.8833175387485132,,,true,hl,3294.314999809256,response,0.8926515927689261,1.2,-1.2,-0.7935960767768927,1.2,-1.2,high,low,,ISIC_0011933.JPG,,ISIC_8901371.JPG,,26,true,0.4500000000000003,hl,keypress(j),0,false,493057.39999985695,493057.19999980927,489746.157,489753.69999980927,489762.885,493069.508,1,40,10,
sequence,flow.Sequence,6_9,2023-11-30T17:41:02.497Z,,,,,,,,,,,3294.314999809256,completion,,,,,,,high,low,,,,,,,true,,,,,false,493057.5,493057.19999980927,489746.157,489753.69999980927,489762.885,493069.508,1,40,,
trial,html.Screen,6_10_0,2023-11-30T17:41:08.057Z,,,,1,1.274752206258116,1.2988509166163749,,,true,ll,5547.791999952344,response,-1.1852597097363948,1.2,-1.2,-1.4901127027895635,1.2,-1.2,low,low,,ISIC_6704623.JPG,,ISIC_0033261.JPG,,288,true,0.40000000000000024,ll,keypress(f),0,false,498617.5,498617.2999999523,493052.862,493057.59999990463,493069.508,498630.171,1,40,11,
sequence,flow.Sequence,6_10,2023-11-30T17:41:08.057Z,,,,,,,,,,,5547.791999952344,completion,,,,,,,low,low,,,,,,,true,,,,,false,498617.69999980927,498617.2999999523,493052.862,493057.59999990463,493069.508,498630.171,1,40,,
trial,html.Screen,6_11_0,2023-11-30T17:41:11.184Z,,,,1,-1.1936751736668425,-1.2584308630745344,,,true,hh,3114.9289999046596,response,1.0659165756604234,1.2,-1.2,1.0867497316848906,1.2,-1.2,high,high,,ISIC_0061265.JPG,,ISIC_5807608.JPG,,25,true,0.14,hh,keypress(i),0,false,501745.2999999523,501745.09999990463,498613.643,498617.89999985695,498630.171,501769.583,1,40,12,
sequence,flow.Sequence,6_11,2023-11-30T17:41:11.184Z,,,,,,,,,,,3114.9289999046596,completion,,,,,,,high,high,,,,,,,true,,,,,false,501745.39999985695,501745.09999990463,498613.643,498617.7999999523,498630.171,501769.583,1,40,,
trial,html.Screen,6_12_0,2023-11-30T17:41:16.008Z,,,,1,0.989300717252516,-0.7908280206937478,,,true,lh,4799.417000000016,response,-0.8307508446051526,1.2,-1.2,1.1707575338936729,1.2,-1.2,low,high,,ISIC_6416533.JPG,,ISIC_0028606.JPG,,27,true,0.40000000000000024,lh,keypress(e),0,false,506569.09999990463,506569,501736.183,501745.5,501769.583,506579.178,1,40,13,
sequence,flow.Sequence,6_12,2023-11-30T17:41:16.008Z,,,,,,,,,,,4799.417000000016,completion,,,,,,,low,high,,,,,,,true,,,,,false,506569.2999999523,506569,501736.183,501745.5,501769.583,506579.178,1,40,,
trial,html.Screen,6_13_0,2023-11-30T17:41:18.568Z,,,,1,1.2724293858920366,1.149360738769835,,,true,ll,2549.7219998569344,response,-1.0789425085962503,1.2,-1.2,-0.7554447571704619,1.2,-1.2,low,low,,ISIC_1264725.JPG,,ISIC_9797578.JPG,,359,true,0.4500000000000003,ll,keypress(f),0,false,509128.89999985695,509128.89999985695,506562.34,506569.2999999523,506579.178,509133.892,1,40,14,
sequence,flow.Sequence,6_13,2023-11-30T17:41:18.568Z,,,,,,,,,,,2549.7219998569344,completion,,,,,,,low,low,,,,,,,true,,,,,false,509129,509128.89999985695,506562.34,506569.2999999523,506579.178,509133.892,1,40,,
trial,html.Screen,6_14_0,2023-11-30T17:41:23.193Z,,,,1,1.2219550761700546,1.2809901875733454,,,true,ll,4619.70799990464,response,-1.2749714218614645,1.2,-1.2,-1.1578619398362149,1.2,-1.2,low,low,,ISIC_6463417.JPG,,ISIC_0024999.JPG,,40,true,0.14,ll,keypress(f),0,false,513753.89999985695,513753.59999990463,509117.413,509129.09999990463,509133.892,513759.599,1,40,15,
sequence,flow.Sequence,6_14,2023-11-30T17:41:23.193Z,,,,,,,,,,,4619.70799990464,completion,,,,,,,low,low,,,,,,,true,,,,,false,513754.09999990463,513753.59999990463,509117.413,509129.09999990463,509133.892,513759.599,1,40,,
trial,html.Screen,6_15_0,2023-11-30T17:41:26.129Z,,,,1,1.151139267005652,1.0838749490501327,,,true,ll,2930.1009998092777,response,-1.1441767540243375,1.2,-1.2,-1.0949087392471728,1.2,-1.2,low,low,,ISIC_0002566.JPG,,ISIC_0054146.JPG,,40,true,0.14,ll,keypress(f),0,false,516690,516689.69999980927,513743.057,513754.19999980927,513759.599,516715.329,1,40,16,
sequence,flow.Sequence,6_15,2023-11-30T17:41:26.129Z,,,,,,,,,,,2930.1009998092777,completion,,,,,,,low,low,,,,,,,true,,,,,false,516690.2999999523,516689.69999980927,513743.057,513754.19999980927,513759.599,516715.329,1,40,,
trial,html.Screen,6_16_0,2023-11-30T17:41:29.065Z,,,,1,1.199471562817528,-0.8631260534979347,,,true,lh,2910.570999856922,response,-0.8307508446051526,1.2,-1.2,1.1707575338936729,1.2,-1.2,low,high,,ISIC_0030754.JPG,,ISIC_0028606.JPG,,27,true,0.40000000000000024,lh,keypress(e),0,false,519626.09999990463,519625.89999985695,516682.182,516690.59999990463,516715.329,519637.713,1,40,17,
sequence,flow.Sequence,6_16,2023-11-30T17:41:29.065Z,,,,,,,,,,,2910.570999856922,completion,,,,,,,low,high,,,,,,,true,,,,,false,519626.39999985695,519625.89999985695,516682.182,516690.5,516715.329,519637.713,1,40,,
trial,html.Screen,6_17_0,2023-11-30T17:41:31.689Z,,,,1,-1.0116417541846066,1.033442916947398,,,true,hl,2611.9869998092763,response,1.058275612142778,1.2,-1.2,-0.7824898568540655,1.2,-1.2,high,low,,ISIC_0031389.JPG,,ISIC_4906385.JPG,,26,true,0.4500000000000003,hl,keypress(j),0,false,522249.7999999523,522249.69999980927,519621.191,519626.59999990463,519637.713,522259.604,1,40,18,
sequence,flow.Sequence,6_17,2023-11-30T17:41:31.689Z,,,,,,,,,,,2611.9869998092763,completion,,,,,,,high,low,,,,,,,true,,,,,false,522250.09999990463,522249.69999980927,519621.191,519626.5,519637.713,522259.604,1,40,,
trial,html.Screen,6_18_0,2023-11-30T17:41:34.145Z,,,,1,1.0659165756604234,1.0867497316848906,,,true,ll,2445.9959999046405,response,-0.8721011160837115,1.2,-1.2,-0.9005344308932209,1.2,-1.2,low,low,,ISIC_5807608.JPG,,ISIC_0025744.JPG,,288,true,0.40000000000000024,ll,keypress(f),0,false,524705.7999999523,524705.5999999046,522242.734,522250.19999980927,522259.604,524714.195,1,40,19,
sequence,flow.Sequence,6_18,2023-11-30T17:41:34.145Z,,,,,,,,,,,2445.9959999046405,completion,,,,,,,low,low,,,,,,,true,,,,,false,524706.0999999046,524705.5999999046,522242.734,522250.09999990463,522259.604,524714.195,1,40,,
trial,html.Screen,6_19_0,2023-11-30T17:41:40.409Z,,,,1,-1.082709423673037,-1.1184338818466155,,,true,hh,6254.704999857,response,1.160746324899676,1.2,-1.2,1.1927876559115576,1.2,-1.2,high,high,,ISIC_0058666.JPG,,ISIC_8651053.JPG,,25,true,0.14,hh,keypress(i),0,false,530969,530968.899999857,524697.615,524706.0999999046,524714.195,530993.057,1,40,20,
sequence,flow.Sequence,6_19,2023-11-30T17:41:40.409Z,,,,,,,,,,,6254.704999857,completion,,,,,,,high,high,,,,,,,true,,,,,false,530969.1999998093,530968.899999857,524697.615,524706.0999999046,524714.195,530993.057,1,40,,
trial,html.Screen,6_20_0,2023-11-30T17:41:52.297Z,,,,1,-0.8350129142228142,0.8172547818270586,,,true,hl,11864.44299999997,response,1.0453124399868816,1.2,-1.2,-0.8986747280184286,1.2,-1.2,high,low,,ISIC_0301568.JPG,,ISIC_0013967.JPG,,26,true,0.4500000000000003,hl,keypress(j),0,false,542857.5999999046,542857.5,530959.862,530969.1999998093,530993.057,542866.191,1,40,21,
sequence,flow.Sequence,6_20,2023-11-30T17:41:52.297Z,,,,,,,,,,,11864.44299999997,completion,,,,,,,high,low,,,,,,,true,,,,,false,542857.899999857,542857.5,530959.862,530969.1999998093,530993.057,542866.191,1,40,,
trial,html.Screen,6_21_0,2023-11-30T17:42:00.417Z,,,,1,-1.136677654701082,-1.2647850993872314,,,true,hh,8110.809000000008,response,1.0058354021163274,1.2,-1.2,0.8916720716393026,1.2,-1.2,high,high,,ISIC_0015436.JPG,,ISIC_5581936.JPG,,203,true,0.40000000000000024,hh,keypress(i),0,false,550977,550977,542849.431,542857.899999857,542866.191,550981.976,1,40,22,
sequence,flow.Sequence,6_21,2023-11-30T17:42:00.417Z,,,,,,,,,,,8110.809000000008,completion,,,,,,,high,high,,,,,,,true,,,,,false,550977.1999998093,550977,542849.431,542857.899999857,542866.191,550981.976,1,40,,
trial,html.Screen,6_22_0,2023-11-30T17:42:04.561Z,,,,1,-1.236306205926646,-1.116612676102794,,,true,hh,4139.223999809241,response,1.2100527057059796,1.2,-1.2,1.2159112471537263,1.2,-1.2,high,high,,ISIC_0054341.JPG,,ISIC_0008055.JPG,,25,true,0.14,hh,keypress(i),0,false,555121.2999999523,555121.1999998093,550965.202,550977.1999998093,550981.976,555140.056,1,40,23,
sequence,flow.Sequence,6_22,2023-11-30T17:42:04.561Z,,,,,,,,,,,4139.223999809241,completion,,,,,,,high,high,,,,,,,true,,,,,false,555121.5,555121.1999998093,550965.202,550977.1999998093,550981.976,555140.056,1,40,,
trial,html.Screen,6_23_0,2023-11-30T17:42:12.993Z,,,,1,0.9653573371180936,-0.854766800381037,,,true,lh,8413.54399990465,response,-0.8350129142228142,1.2,-1.2,0.8172547818270586,1.2,-1.2,low,high,,ISIC_9640145.JPG,,ISIC_0301568.JPG,,27,true,0.40000000000000024,lh,keypress(e),0,false,563553.7999999523,563553.5999999046,555106.618,555121.5,555140.056,563573.124,1,40,24,
sequence,flow.Sequence,6_23,2023-11-30T17:42:12.994Z,,,,,,,,,,,8413.54399990465,completion,,,,,,,low,high,,,,,,,true,,,,,false,563554.1999998093,563553.5999999046,555106.618,555121.5,555140.056,563573.124,1,40,,
trial,html.Screen,6_24_0,2023-11-30T17:42:27.409Z,,,,1,-0.9544693251394116,1.0727539917203766,,,true,hl,14395.876000000047,response,1.2054195059663604,1.2,-1.2,-0.7760611240296147,1.2,-1.2,high,low,,ISIC_0055147.JPG,,ISIC_8712559.JPG,,26,true,0.4500000000000003,hl,keypress(j),0,false,577969.1999998093,577969,563539.814,563554.1999998093,563573.124,577984.468,1,40,25,
sequence,flow.Sequence,6_24,2023-11-30T17:42:27.409Z,,,,,,,,,,,14395.876000000047,completion,,,,,,,high,low,,,,,,,true,,,,,false,577969.399999857,577969,563539.814,563554.1999998093,563573.124,577984.468,1,40,,
trial,html.Screen,6_25_0,2023-11-30T17:42:35.152Z,,,,1,-0.9662688541319592,0.929746784178986,,,true,hl,7728.331999952323,response,1.199471562817528,1.2,-1.2,-0.8631260534979347,1.2,-1.2,high,low,,ISIC_0011077.JPG,,ISIC_0030754.JPG,,26,true,0.4500000000000003,hl,keypress(j),0,false,585712.899999857,585712.7999999523,577967.891,577969.5,577984.468,585716.161,1,40,26,
sequence,flow.Sequence,6_25,2023-11-30T17:42:35.153Z,,,,,,,,,,,7728.331999952323,completion,,,,,,,high,low,,,,,,,true,,,,,false,585713,585712.7999999523,577967.891,577969.5,577984.468,585716.161,1,40,,
trial,html.Screen,6_26_0,2023-11-30T17:42:40.937Z,,,,1,0.8472024037189965,-0.986370061404882,,,true,lh,5781.438999904669,response,-0.8987343013179191,1.2,-1.2,0.8149073454566363,1.2,-1.2,low,high,,ISIC_0054355.JPG,,ISIC_0472513.JPG,,27,true,0.40000000000000024,lh,keypress(e),0,false,591497.7999999523,591497.5999999046,585699.414,585713.0999999046,585716.161,591510.839,1,40,27,
sequence,flow.Sequence,6_26,2023-11-30T17:42:40.938Z,,,,,,,,,,,5781.438999904669,completion,,,,,,,low,high,,,,,,,true,,,,,false,591498.0999999046,591497.5999999046,585699.414,585713.0999999046,585716.161,591510.839,1,40,,
trial,html.Screen,6_27_0,2023-11-30T17:42:46.009Z,,,,1,1.1409143352872226,1.1323007949069106,,,true,ll,5058.46099995228,response,-1.2030355493299076,1.2,-1.2,-1.364176458580734,1.2,-1.2,low,low,,ISIC_0030291.JPG,,ISIC_0058022.JPG,,359,true,0.4500000000000003,ll,keypress(f),0,false,596569.5,596569.2999999523,591494.195,591498.2999999523,591510.839,596588.702,1,40,28,
sequence,flow.Sequence,6_27,2023-11-30T17:42:46.009Z,,,,,,,,,,,5058.46099995228,completion,,,,,,,low,low,,,,,,,true,,,,,false,596569.6999998093,596569.2999999523,591494.195,591498.2999999523,591510.839,596588.702,1,40,,
trial,html.Screen,6_28_0,2023-11-30T17:42:51.801Z,,,,1,-1.2749714218614645,-1.1578619398362149,,,true,hh,5772.497999809217,response,1.274752206258116,1.2,-1.2,1.2988509166163749,1.2,-1.2,high,high,,ISIC_0024999.JPG,,ISIC_6704623.JPG,,25,true,0.14,hh,keypress(i),0,false,602361.2999999523,602361.1999998093,596554.015,596569.7999999523,596588.702,602365.24,1,40,29,
sequence,flow.Sequence,6_28,2023-11-30T17:42:51.801Z,,,,,,,,,,,5772.497999809217,completion,,,,,,,high,high,,,,,,,true,,,,,false,602361.5999999046,602361.1999998093,596554.015,596569.7999999523,596588.702,602365.24,1,40,,
trial,html.Screen,6_29_0,2023-11-30T17:42:55.281Z,,,,1,-1.1302628852630028,-1.288906469447243,,,true,hh,3475.659999856958,response,1.077278111180185,1.2,-1.2,1.1530533996184025,1.2,-1.2,high,high,,ISIC_0071050.JPG,,ISIC_9525136.JPG,,25,true,0.14,hh,keypress(i),0,false,605841.1999998093,605840.899999857,602348.601,602361.5999999046,602365.24,605872.068,1,40,30,
sequence,flow.Sequence,6_29,2023-11-30T17:42:55.281Z,,,,,,,,,,,3475.659999856958,completion,,,,,,,high,high,,,,,,,true,,,,,false,605841.2999999523,605840.899999857,602348.601,602361.5999999046,602365.24,605872.068,1,40,,
trial,html.Screen,6_30_0,2023-11-30T17:43:06.297Z,,,,1,1.2362557973341337,-1.2548266183352603,,,true,lh,10985.131999809295,response,-1.0116417541846066,1.2,-1.2,1.033442916947398,1.2,-1.2,low,high,,ISIC_0033886.JPG,,ISIC_0031389.JPG,,27,true,0.40000000000000024,lh,keypress(e),0,false,616857.2999999523,616857.1999998093,605838.629,605841.399999857,605872.068,616860.068,1,40,31,
sequence,flow.Sequence,6_30,2023-11-30T17:43:06.297Z,,,,,,,,,,,10985.131999809295,completion,,,,,,,low,high,,,,,,,true,,,,,false,616857.5,616857.1999998093,605838.629,605841.399999857,605872.068,616860.068,1,40,,
trial,html.Screen,6_31_0,2023-11-30T17:43:10.601Z,,,,1,-1.1048559518249943,-1.2252457981338687,,,true,hh,4301.131999809295,response,0.785584495352475,1.2,-1.2,1.042144559030568,1.2,-1.2,high,high,,ISIC_0060817.JPG,,ISIC_0004099.JPG,,265,true,0.4500000000000003,hh,keypress(i),0,false,621161.399999857,621161.1999998093,616843.295,616857.5,616860.068,621168.462,1,40,32,
sequence,flow.Sequence,6_31,2023-11-30T17:43:10.601Z,,,,,,,,,,,4301.131999809295,completion,,,,,,,high,high,,,,,,,true,,,,,false,621161.5,621161.1999998093,616843.295,616857.5,616860.068,621168.462,1,40,,
trial,html.Screen,6_32_0,2023-11-30T17:43:17.474Z,,,,1,1.1684835186766898,1.2921331918483707,,,true,ll,6865.437999856891,response,-1.082709423673037,1.2,-1.2,-1.1184338818466155,1.2,-1.2,low,low,,ISIC_5920470.JPG,,ISIC_0058666.JPG,,30,true,0.13,ll,keypress(f),0,false,628034.1999998093,628033.899999857,621151.984,621161.5999999046,621168.462,628081.93,1,40,33,
sequence,flow.Sequence,6_32,2023-11-30T17:43:17.474Z,,,,,,,,,,,6865.437999856891,completion,,,,,,,low,low,,,,,,,true,,,,,false,628034.5999999046,628033.899999857,621151.984,621161.5999999046,621168.462,628081.93,1,40,,
trial,html.Screen,6_33_0,2023-11-30T17:43:27.417Z,,,,1,-0.9662688541319592,0.929746784178986,,,true,hl,9894.969999856898,response,1.0887164761389951,1.2,-1.2,-1.5357518752548716,1.2,-1.2,high,low,,ISIC_0011077.JPG,,ISIC_0028127.JPG,,26,true,0.4500000000000003,hl,keypress(j),0,false,637977.0999999046,637976.899999857,628031.833,628034.6999998093,628081.93,637984.506,1,40,34,
sequence,flow.Sequence,6_33,2023-11-30T17:43:27.417Z,,,,,,,,,,,9894.969999856898,completion,,,,,,,high,low,,,,,,,true,,,,,false,637977.1999998093,637976.899999857,628031.833,628034.6999998093,628081.93,637984.506,1,40,,
trial,html.Screen,6_34_0,2023-11-30T17:43:35.898Z,,,,1,-0.8067116931297591,1.215898074058027,,,true,hl,8472.193999809213,response,1.0887164761389951,1.2,-1.2,-1.5357518752548716,1.2,-1.2,high,low,,ISIC_1457687.JPG,,ISIC_0028127.JPG,,26,true,0.4500000000000003,hl,keypress(j),0,false,646456.7999999523,646456.6999998093,637967.922,637977.2999999523,637984.506,646467.699,1,40,35,
sequence,flow.Sequence,6_34,2023-11-30T17:43:35.898Z,,,,,,,,,,,8472.193999809213,completion,,,,,,,high,low,,,,,,,true,,,,,false,646457,646456.6999998093,637967.922,637977.2999999523,637984.506,646467.699,1,40,,
trial,html.Screen,6_35_0,2023-11-30T17:43:43.275Z,,,,1,-1.268445326285509,-1.173734476257662,,,true,hh,7365.90099990461,response,1.342482693427168,1.2,-1.2,0.8292877650794881,1.2,-1.2,high,high,,ISIC_5216586.JPG,,ISIC_3310625.JPG,,203,true,0.40000000000000024,hh,keypress(i),0,false,653833.7999999523,653833.5999999046,646450.911,646457.0999999046,646467.699,653848.702,1,40,36,
sequence,flow.Sequence,6_35,2023-11-30T17:43:43.275Z,,,,,,,,,,,7365.90099990461,completion,,,,,,,high,high,,,,,,,true,,,,,false,653834.1999998093,653833.5999999046,646450.911,646457.0999999046,646467.699,653848.702,1,40,,
trial,html.Screen,6_36_0,2023-11-30T17:43:51.562Z,,,,1,1.274417010249866,1.0725495669014795,,,true,ll,8272.497999809217,response,-1.0849202097813322,1.2,-1.2,-1.0851127310415287,1.2,-1.2,low,low,,ISIC_8849004.JPG,,ISIC_0010289.JPG,,30,true,0.13,ll,keypress(f),0,false,662121.399999857,662121.1999998093,653832.153,653834.399999857,653848.702,662148.175,1,40,37,
sequence,flow.Sequence,6_36,2023-11-30T17:43:51.562Z,,,,,,,,,,,8272.497999809217,completion,,,,,,,low,low,,,,,,,true,,,,,false,662121.5,662121.1999998093,653832.153,653834.1999998093,653848.702,662148.175,1,40,,
trial,html.Screen,6_37_0,2023-11-30T17:44:05.394Z,,,,1,1.0369885917487718,-0.8486937878412699,,,true,lh,13804.62499995227,response,-0.90812608370647,1.2,-1.2,1.2720026872926935,1.2,-1.2,low,high,,ISIC_6917681.JPG,,ISIC_0450295.JPG,,27,true,0.40000000000000024,lh,keypress(e),0,false,675952.899999857,675952.7999999523,662114.957,662121.5999999046,662148.175,675958.321,1,40,38,
sequence,flow.Sequence,6_37,2023-11-30T17:44:05.394Z,,,,,,,,,,,13804.62499995227,completion,,,,,,,low,high,,,,,,,true,,,,,false,675953.0999999046,675952.7999999523,662114.957,662121.5999999046,662148.175,675958.321,1,40,,
trial,html.Screen,6_38_0,2023-11-30T17:44:13.506Z,,,,1,1.2100527057059796,1.2159112471537263,,,true,ll,8106.878999809269,response,-1.0592032583207498,1.2,-1.2,-1.2939710463315144,1.2,-1.2,low,low,,ISIC_0008055.JPG,,ISIC_0056119.JPG,,359,true,0.4500000000000003,ll,keypress(f),0,false,684065.399999857,684065.1999998093,675941.633,675953.0999999046,675958.321,684074.15,1,40,39,
sequence,flow.Sequence,6_38,2023-11-30T17:44:13.506Z,,,,,,,,,,,8106.878999809269,completion,,,,,,,low,low,,,,,,,true,,,,,false,684065.5999999046,684065.1999998093,675941.633,675953.0999999046,675958.321,684074.15,1,40,,
trial,html.Screen,6_39_0,2023-11-30T17:44:19.171Z,,,,1,1.1684835186766898,1.2921331918483707,,,true,ll,5655.749999856926,response,-1.063036912656269,1.2,-1.2,-1.1534875859179432,1.2,-1.2,low,low,,ISIC_5920470.JPG,,ISIC_0010772.JPG,,40,true,0.14,ll,keypress(f),0,false,689730.1999998093,689729.899999857,684057.632,684065.5999999046,684074.15,689735.21,1,40,40,
sequence,flow.Sequence,6_39,2023-11-30T17:44:19.171Z,,,,,,,,,,,5655.749999856926,completion,,,,,,,low,low,,,,,,,true,,,,,false,689730.5,689729.899999857,684057.632,684065.5999999046,684074.15,689735.21,1,40,,
practice_loop,flow.Loop,6,2023-11-30T17:44:19.171Z,,,,,,,,,,,282961.73799985694,completion,,,,,,,,,,,,,,,true,,,,,false,689730.6999998093,689729.899999857,406751.586,406761.2999999523,406768.162,689735.21,1,40,,
stair_instructions,html.Screen,7,2023-11-30T17:45:00.881Z,,,,,,,,,,,41705.189999856986,response,,,,,,,,,,,,,,,,,continue,click button,,,731440.7999999523,731440.399999857,689718.622,689730.899999857,689735.21,731449.622,,,,
trial,html.Screen,8_0_0,2023-11-30T17:45:13.762Z,,,,2,-0.0074667911845194,0.018500200317654,,0.04,true,lh,12871.977999904659,response,-0.90812608370647,1.2,-1.2,1.2720026872926935,1.2,-1.2,low,high,,ISIC_0058723.JPG,,ISIC_0450295.JPG,28,27,false,0.40000000000000024,lh,keypress(e),0,true,744321.7999999523,744321.5999999046,731433.118,731441,731449.622,744341.345,1,40,1,
sequence,flow.Sequence,8_0,2023-11-30T17:45:13.763Z,,,,,,,,,,,12871.977999904659,completion,,,,,,,low,high,,,,,,,false,,,,,true,744322,744321.5999999046,731433.118,731441,731449.622,744341.345,1,40,,
trial,html.Screen,8_1_0,2023-11-30T17:45:25.803Z,,,,2,0.0076984477620101,0.0069458408496562,,0.04,true,hl,12021.155000000028,response,1.0887164761389951,1.15,-1.15,-1.5357518752548716,1.15,-1.15,high,low,,ISIC_0000434.JPG,,ISIC_0028127.JPG,28,26,false,0.40000000000000024,hl,keypress(j),0,true,756362.7999999523,756362.5,744324.649,744322.0999999046,744341.345,756382.11,1,40,2,
sequence,flow.Sequence,8_1,2023-11-30T17:45:25.804Z,,,,,,,,,,,12021.155000000028,completion,,,,,,,high,low,,,,,,,false,,,,,true,756363.0999999046,756362.5,744324.649,744322.0999999046,744341.345,756382.11,1,40,,
trial,html.Screen,8_2_0,2023-11-30T17:45:34.162Z,,,,2,0.0258224118104549,-0.0029364553353019,,0.04,false,lh,8338.989999904647,response,-0.9633172970727744,1.15,-1.15,0.8472659344792351,1.15,-1.15,low,high,,ISIC_8325226.JPG,,ISIC_0067172.JPG,28,26,false,0.3500000000000002,hh,keypress(i),0,true,764721.2999999523,764721.0999999046,756348.19,756363.2999999523,756382.11,764731.025,1,40,3,
sequence,flow.Sequence,8_2,2023-11-30T17:45:34.162Z,,,,,,,,,,,8338.989999904647,completion,,,,,,,low,high,,,,,,,false,,,,,true,764721.399999857,764721.0999999046,756348.19,756363.2999999523,756382.11,764731.025,1,40,,
trial,html.Screen,8_3_0,2023-11-30T17:45:40.345Z,,,,2,0.0009714874637896,-0.0174815595031679,,0.04,false,lh,6173.774999952293,response,-0.9633172970727744,1.15,-1.15,0.8472659344792351,1.0999999999999999,-1.15,low,high,,ISIC_9848743.JPG,,ISIC_0067172.JPG,28,26,false,0.3200000000000002,hh,keypress(i),0,true,770904.899999857,770904.7999999523,764714.519,764721.5,764731.025,770909.691,1,40,4,
sequence,flow.Sequence,8_3,2023-11-30T17:45:40.346Z,,,,,,,,,,,6173.774999952293,completion,,,,,,,low,high,,,,,,,false,,,,,true,770905.0999999046,770904.7999999523,764714.519,764721.5,764731.025,770909.691,1,40,,
trial,html.Screen,8_4_0,2023-11-30T17:45:51.884Z,,,,2,-0.0374659946425444,-0.0086043094957617,,0.04,true,lh,11532.309000000008,response,-1.0116417541846066,1.15,-1.15,1.033442916947398,1.0999999999999999,-1.15,low,high,,ISIC_0033051.JPG,,ISIC_0031389.JPG,28,26,false,0.3200000000000002,lh,keypress(e),0,true,782442.2999999523,782442,770892.959,770905.0999999046,770909.691,782465.526,1,40,5,
sequence,flow.Sequence,8_4,2023-11-30T17:45:51.884Z,,,,,,,,,,,11532.309000000008,completion,,,,,,,low,high,,,,,,,false,,,,,true,782442.6999998093,782442,770892.959,770905.0999999046,770909.691,782465.526,1,40,,
trial,html.Screen,8_5_0,2023-11-30T17:46:00.243Z,,,,2,0.0367706518941078,-0.0161069838272154,,0.04,false,lh,8335.373999856994,response,-1.004142980655507,1.15,-1.15,0.7749773174967559,1.0499999999999998,-1.15,low,high,,ISIC_0033419.JPG,,ISIC_3936223.JPG,28,27,false,0.30000000000000016,hh,keypress(i),0,true,790801.0999999046,790800.899999857,782432.266,782442.899999857,782465.526,790815.322,1,40,6,
sequence,flow.Sequence,8_5,2023-11-30T17:46:00.243Z,,,,,,,,,,,8335.373999856994,completion,,,,,,,low,high,,,,,,,false,,,,,true,790801.1999998093,790800.899999857,782432.266,782442.7999999523,782465.526,790815.322,1,40,,
trial,html.Screen,8_6_0,2023-11-30T17:46:03.788Z,,,,2,-0.0388181790775959,0.0049623405709465,,0.04,true,ll,3530.9779999522725,response,-1.082709423673037,1.15,-1.15,-1.1184338818466155,1.0499999999999998,-1.15,low,low,,ISIC_0061880.JPG,,ISIC_0058666.JPG,28,27,false,0.1,ll,keypress(f),0,true,794346.5999999046,794346.2999999523,790798.419,790801.399999857,790815.322,794355.336,1,40,7,
sequence,flow.Sequence,8_6,2023-11-30T17:46:03.789Z,,,,,,,,,,,3530.9779999522725,completion,,,,,,,low,low,,,,,,,false,,,,,true,794347,794346.2999999523,790798.419,790801.2999999523,790815.322,794355.336,1,40,,
trial,html.Screen,8_7_0,2023-11-30T17:46:14.819Z,,,,2,-0.039520186367207,-0.0377961575607372,,0.04,true,hh,11021.963999952306,response,1.0325421457475312,1.15,-1.15,1.0219157566370058,1.0499999999999998,-1.0505716527598261,high,high,,ISIC_6356149.JPG,,ISIC_5336548.JPG,28,29,false,0.13,hh,keypress(i),0,true,805377.5,805377.2999999523,794338.583,794347.2999999523,794355.336,805393.501,1,40,8,
sequence,flow.Sequence,8_7,2023-11-30T17:46:14.819Z,,,,,,,,,,,11021.963999952306,completion,,,,,,,high,high,,,,,,,false,,,,,true,805377.5999999046,805377.2999999523,794338.583,794347.1999998093,794355.336,805393.501,1,40,,
trial,html.Screen,8_8_0,2023-11-30T17:46:20.827Z,,,,2,-0.0374659946425444,-0.0086043094957617,,0.04,true,hh,5991.398999856901,response,1.1072126870290426,1.0999999999999999,-1.15,0.9917482735105084,0.9999999999999998,-1.0505716527598261,high,high,,ISIC_0033051.JPG,,ISIC_0071754.JPG,28,26,false,0.11,hh,keypress(i),0,true,811385,811384.899999857,805376.622,805377.6999998093,805393.501,811388.419,1,40,9,
sequence,flow.Sequence,8_8,2023-11-30T17:46:20.827Z,,,,,,,,,,,5991.398999856901,completion,,,,,,,high,high,,,,,,,false,,,,,true,811385.1999998093,811384.899999857,805376.622,805377.6999998093,805393.501,811388.419,1,40,,
trial,html.Screen,8_9_0,2023-11-30T17:46:26.692Z,,,,2,0.0258224118104549,-0.0029364553353019,,0.04,true,hh,5861.780999809271,response,1.1018283884093611,1.0999999999999999,-1.15,1.053767307212406,0.9999999999999998,-1.0505716527598261,high,high,,ISIC_8325226.JPG,,ISIC_6785249.JPG,28,26,false,0.11,hh,keypress(i),0,true,817250.5,817250.1999998093,811371.755,811385.1999998093,811388.419,817266.7,1,40,10,
sequence,flow.Sequence,8_9,2023-11-30T17:46:26.693Z,,,,,,,,,,,5861.780999809271,completion,,,,,,,high,high,,,,,,,false,,,,,true,817250.7999999523,817250.1999998093,811371.755,811385.1999998093,811388.419,817266.7,1,40,,
trial,html.Screen,8_10_0,2023-11-30T17:46:33.579Z,,,,2,-0.0388334549081915,0.0303399972963369,,0.04,false,hh,6870.099999952363,response,1.0122348575830964,0.9727577903614573,-1.15,1.007833368115011,0.9727577903614573,-1.0505716527598261,high,high,,ISIC_4961708.JPG,,ISIC_8145260.JPG,28,35,false,0.11,ll,keypress(f),0,true,824136.899999857,824136.7999999523,817249.902,817250.899999857,817266.7,824146.635,1,40,11,
sequence,flow.Sequence,8_10,2023-11-30T17:46:33.579Z,,,,,,,,,,,6870.099999952363,completion,,,,,,,high,high,,,,,,,false,,,,,true,824137,824136.7999999523,817249.902,817250.899999857,817266.7,824146.635,1,40,,
trial,html.Screen,8_11_0,2023-11-30T17:46:43.427Z,,,,2,0.0044063257337227,0.0172548282859886,,0.04,true,ll,9838.76499985694,response,-1.2014901828022857,1.0227577903614573,-1.15,-1.1484096197304636,1.0227577903614573,-1.0505716527598261,low,low,,ISIC_7413786.JPG,,ISIC_0067808.JPG,28,25,false,0.1,ll,keypress(f),0,true,833985.5999999046,833985.399999857,824130.041,824137.0999999046,824146.635,833999.098,1,40,12,
sequence,flow.Sequence,8_11,2023-11-30T17:46:43.428Z,,,,,,,,,,,9838.76499985694,completion,,,,,,,low,low,,,,,,,false,,,,,true,833985.899999857,833985.399999857,824130.041,824137.0999999046,824146.635,833999.098,1,40,,
trial,html.Screen,8_12_0,2023-11-30T17:46:50.221Z,,,,2,0.0220026381002083,-0.0170756452911772,,0.04,true,hl,6778.801999856951,response,1.3046390428588206,1.0227577903614573,-1.1249499012663746,-0.7942099232219556,1.0227577903614573,-1.0505716527598261,high,low,,ISIC_5347806.JPG,,ISIC_0013096.JPG,28,27,false,0.30000000000000016,hl,keypress(j),0,true,840778.1999998093,840777.899999857,833982.417,833986,833999.098,840795.883,1,40,13,
sequence,flow.Sequence,8_12,2023-11-30T17:46:50.221Z,,,,,,,,,,,6778.801999856951,completion,,,,,,,high,low,,,,,,,false,,,,,true,840778.6999998093,840777.899999857,833982.417,833986,833999.098,840795.883,1,40,,
trial,html.Screen,8_13_0,2023-11-30T17:47:05.436Z,,,,2,0.0200295718112167,0.0155559071275806,,0.04,false,hh,15197.61699999997,response,0.9394358755892184,1.0227577903614573,-1.1249499012663746,1.0256934713188917,1.0227577903614573,-1.000571652759826,high,high,,ISIC_0061343.JPG,,ISIC_4264600.JPG,28,30,false,0.11,hl,keypress(j),0,true,855993.5999999046,855993.5,840778.984,840778.899999857,840795.883,856008.549,1,40,14,
sequence,flow.Sequence,8_13,2023-11-30T17:47:05.436Z,,,,,,,,,,,15197.61699999997,completion,,,,,,,high,high,,,,,,,false,,,,,true,855993.899999857,855993.5,840778.984,840778.7999999523,840795.883,856008.549,1,40,,
trial,html.Screen,8_14_0,2023-11-30T17:47:10.587Z,,,,2,0.0200295718112167,0.0155559071275806,,0.04,false,hl,5135.951000000001,response,1.0453124399868816,1.0720374592240194,-1.1249499012663746,-0.8986747280184286,1.0727577903614574,-1.000571652759826,high,low,,ISIC_0061343.JPG,,ISIC_0013967.JPG,28,26,false,0.28000000000000014,hh,keypress(i),0,true,861144.5999999046,861144.5,855991.938,855994,856008.549,861151.814,1,40,15,
sequence,flow.Sequence,8_14,2023-11-30T17:47:10.587Z,,,,,,,,,,,5135.951000000001,completion,,,,,,,high,low,,,,,,,false,,,,,true,861144.6999998093,861144.5,855991.938,855994,856008.549,861151.814,1,40,,
trial,html.Screen,8_15_0,2023-11-30T17:47:21.499Z,,,,2,-0.0074667911845194,0.018500200317654,,0.04,false,hh,10904.885999809252,response,1.1290536173202614,1.0720374592240194,-1.1249499012663746,0.9768663240505168,1.0727577903614574,-1.0505716527598261,high,high,,ISIC_0058723.JPG,,ISIC_2196127.JPG,28,25,false,0.1,lh,keypress(e),0,true,872056.6999998093,872056.6999998093,861135.352,861144.7999999523,861151.814,872073.238,1,40,16,
sequence,flow.Sequence,8_15,2023-11-30T17:47:21.499Z,,,,,,,,,,,10904.885999809252,completion,,,,,,,high,high,,,,,,,false,,,,,true,872056.899999857,872056.6999998093,861135.352,861144.7999999523,861151.814,872073.238,1,40,,
trial,html.Screen,8_16_0,2023-11-30T17:47:26.180Z,,,,2,-0.0388181790775959,0.0049623405709465,,0.04,true,ll,4664.261999999988,response,-1.0605529903237636,1.1220374592240194,-1.1249499012663746,-1.1183115777058938,1.0727577903614574,-1.0505716527598261,low,low,,ISIC_0061880.JPG,,ISIC_0011365.JPG,28,32,false,0.1,ll,keypress(f),0,true,876737.5999999046,876737.5,872056.345,872057,872073.238,876748.838,1,40,17,
sequence,flow.Sequence,8_16,2023-11-30T17:47:26.180Z,,,,,,,,,,,4664.261999999988,completion,,,,,,,low,low,,,,,,,false,,,,,true,876738.0999999046,876737.5,872056.345,872057,872073.238,876748.838,1,40,,
trial,html.Screen,8_17_0,2023-11-30T17:47:32.532Z,,,,2,0.0286056110007553,0.036125199756515,,0.04,true,hh,6340.662000000011,response,1.1018283884093611,1.1220374592240194,-1.1249499012663746,1.053767307212406,1.0727577903614574,-1.0505716527598261,high,high,,ISIC_6535558.JPG,,ISIC_6785249.JPG,28,28,false,0.12,hh,keypress(i),0,true,883089.7999999523,883089.5,876732.21,876738.1999998093,876748.838,883094.583,1,40,18,
sequence,flow.Sequence,8_17,2023-11-30T17:47:32.532Z,,,,,,,,,,,6340.662000000011,completion,,,,,,,high,high,,,,,,,false,,,,,true,883090.0999999046,883089.5,876732.21,876738.1999998093,876748.838,883094.583,1,40,,
trial,html.Screen,8_18_0,2023-11-30T17:47:43.516Z,,,,2,-0.039520186367207,-0.0377961575607372,,0.04,false,ll,10978.516999904648,response,-1.0887084502656488,1.1220374592240194,-1.1249499012663746,-1.0539327766106836,1.0277978478108836,-1.0505716527598261,low,low,,ISIC_6356149.JPG,,ISIC_0030417.JPG,28,32,false,0.1,lh,keypress(e),0,true,894073.1999998093,894073.0999999046,883077.807,883090.2999999523,883094.583,894082.532,1,40,19,
sequence,flow.Sequence,8_18,2023-11-30T17:47:43.516Z,,,,,,,,,,,10978.516999904648,completion,,,,,,,low,low,,,,,,,false,,,,,true,894073.5,894073.0999999046,883077.807,883090.1999998093,883094.583,894082.532,1,40,,
trial,html.Screen,8_19_0,2023-11-30T17:47:48.637Z,,,,2,-0.0109416414475118,-0.005246498750811,,0.04,true,hh,5111.4679999999935,response,1.1450360947247324,1.1220374592240194,-1.0749499012663746,0.9543756979111568,1.0277978478108836,-1.1005716527598262,high,high,,ISIC_0064279.JPG,,ISIC_1234463.JPG,28,25,false,0.11,hh,keypress(i),0,true,899194.2999999523,899194,894066.041,894073.5999999046,894082.532,899225.926,1,40,20,
sequence,flow.Sequence,8_19,2023-11-30T17:47:48.638Z,,,,,,,,,,,5111.4679999999935,completion,,,,,,,high,high,,,,,,,false,,,,,true,899195,899194,894066.041,894073.5,894082.532,899225.926,1,40,,
trial,html.Screen,8_20_0,2023-11-30T17:48:00.116Z,,,,2,0.0286056110007553,0.036125199756515,,0.04,false,hl,11446.673999904655,response,0.8926515927689261,0.9997058963179446,-1.0749499012663746,-0.7935960767768927,1.0277978478108836,-1.1005716527598262,high,low,,ISIC_6535558.JPG,,ISIC_8901371.JPG,28,29,false,0.31000000000000016,ll,keypress(f),0,true,910672.6999998093,910672.5999999046,899192.491,899195.2999999523,899225.926,910681.528,1,40,21,
sequence,flow.Sequence,8_20,2023-11-30T17:48:00.116Z,,,,,,,,,,,11446.673999904655,completion,,,,,,,high,low,,,,,,,false,,,,,true,910672.7999999523,910672.5999999046,899192.491,899195.1999998093,899225.926,910681.528,1,40,,
trial,html.Screen,8_21_0,2023-11-30T17:48:07.860Z,,,,2,-0.0088741920055285,-0.0058246074740588,,0.04,false,ll,7735.171999809216,response,-1.048482877784125,1.0497058963179446,-1.0749499012663746,-1.0716857765902368,1.0277978478108836,-1.1005716527598262,low,low,,ISIC_4136663.JPG,,ISIC_0063961.JPG,28,34,false,0.1,hl,keypress(j),0,true,918416.899999857,918416.6999998093,910664.773,910672.899999857,910681.528,918430.075,1,40,22,
sequence,flow.Sequence,8_21,2023-11-30T17:48:07.860Z,,,,,,,,,,,7735.171999809216,completion,,,,,,,low,low,,,,,,,false,,,,,true,918417.0999999046,918416.6999998093,910664.773,910672.899999857,910681.528,918430.075,1,40,,
trial,html.Screen,8_22_0,2023-11-30T17:48:19.708Z,,,,2,0.0367706518941078,-0.0161069838272154,,0.04,true,ll,11834.925000000047,response,-1.0207386405120693,1.0497058963179446,-1.1249499012663746,-0.8603433452329202,1.0277978478108836,-0.8826409266835646,low,low,,ISIC_0033419.JPG,,ISIC_0010714.JPG,28,30,false,0.11,ll,keypress(f),0,true,930265,930265,918413.18,918417.1999998093,918430.075,930269.621,1,40,23,
sequence,flow.Sequence,8_22,2023-11-30T17:48:19.708Z,,,,,,,,,,,11834.925000000047,completion,,,,,,,low,low,,,,,,,false,,,,,true,930265.1999998093,930265,918413.18,918417.0999999046,918430.075,930269.621,1,40,,
trial,html.Screen,8_23_0,2023-11-30T17:48:24.140Z,,,,2,0.0367706518941078,-0.0161069838272154,,0.04,true,hh,4427.678999952273,response,1.1072126870290426,1.0497058963179446,-1.1249499012663746,0.9917482735105084,1.0277978478108836,-0.8826409266835646,high,high,,ISIC_0033419.JPG,,ISIC_0071754.JPG,28,25,false,0.1,hh,keypress(i),0,true,934697.5,934697.2999999523,930253.056,930265.2999999523,930269.621,934711.745,1,40,24,
sequence,flow.Sequence,8_23,2023-11-30T17:48:24.141Z,,,,,,,,,,,4427.678999952273,completion,,,,,,,high,high,,,,,,,false,,,,,true,934697.7999999523,934697.2999999523,930253.056,930265.2999999523,930269.621,934711.745,1,40,,
trial,html.Screen,8_24_0,2023-11-30T17:48:34.269Z,,,,2,-0.0074667911845194,0.018500200317654,,0.04,false,hh,10113.95499980927,response,0.9691635021928308,1.0497058963179446,-1.1249499012663746,1.0761216763182415,0.9994804802697754,-0.8826409266835646,high,high,,ISIC_0058723.JPG,,ISIC_8169564.JPG,28,26,false,0.1,lh,keypress(e),0,true,944825.7999999523,944825.6999998093,934695.084,934697.899999857,934711.745,944831.324,1,40,25,
sequence,flow.Sequence,8_24,2023-11-30T17:48:34.269Z,,,,,,,,,,,10113.95499980927,completion,,,,,,,high,high,,,,,,,false,,,,,true,944826.1999998093,944825.6999998093,934695.084,934697.899999857,934711.745,944831.324,1,40,,
trial,html.Screen,8_25_0,2023-11-30T17:48:42.908Z,,,,2,0.0308384937406319,-0.0038396364323947,,0.04,true,lh,8633.575999856927,response,-1.2020012168275056,1.0997058963179447,-1.1249499012663746,0.923753102263735,0.9994804802697754,-0.8826409266835646,low,high,,ISIC_0029825.JPG,,ISIC_0000022.JPG,28,27,false,0.28000000000000014,lh,keypress(e),0,true,953465,953464.899999857,944814.74,944826.399999857,944831.324,953481.44,1,40,26,
sequence,flow.Sequence,8_25,2023-11-30T17:48:42.908Z,,,,,,,,,,,8633.575999856927,completion,,,,,,,low,high,,,,,,,false,,,,,true,953465.0999999046,953464.899999857,944814.74,944826.399999857,944831.324,953481.44,1,40,,
trial,html.Screen,8_26_0,2023-11-30T17:48:51.364Z,,,,2,-0.0388181790775959,0.0049623405709465,,0.04,false,hl,8438.959999857005,response,1.3046390428588206,1.0997058963179447,-1.0749499012663746,-0.7942099232219556,0.9499373892909881,-0.8826409266835646,high,low,,ISIC_0061880.JPG,,ISIC_0013096.JPG,28,27,false,0.2400000000000001,ll,keypress(f),0,true,961920.5999999046,961920.399999857,953464.937,953465.1999998093,953481.44,961931.199,1,40,27,
sequence,flow.Sequence,8_26,2023-11-30T17:48:51.364Z,,,,,,,,,,,8438.959999857005,completion,,,,,,,high,low,,,,,,,false,,,,,true,961920.5999999046,961920.399999857,953464.937,953465.1999998093,953481.44,961931.199,1,40,,
trial,html.Screen,8_27_0,2023-11-30T17:49:05.740Z,,,,2,-0.001445457736793,-0.0165307427449982,,0.04,false,lh,14365.600999952294,response,-1.0685314915436992,1.1497058963179447,-1.0749499012663746,0.8203833713472237,0.9499373892909881,-0.8326409266835646,low,high,,ISIC_0027350.JPG,,ISIC_0029374.JPG,28,26,false,0.2400000000000001,ll,keypress(f),0,true,976296.899999857,976296.7999999523,961914.689,961920.7999999523,961931.199,976309.177,1,40,28,
sequence,flow.Sequence,8_27,2023-11-30T17:49:05.741Z,,,,,,,,,,,14365.600999952294,completion,,,,,,,low,high,,,,,,,false,,,,,true,976297.0999999046,976296.7999999523,961914.689,961920.7999999523,961931.199,976309.177,1,40,,
trial,html.Screen,8_28_0,2023-11-30T17:49:13.252Z,,,,2,-0.0109416414475118,-0.005246498750811,,0.04,true,hl,7499.622999952291,response,1.075512775389519,1.1497058963179447,-1.0749499012663746,-1.0454702683049502,0.9999373892909882,-0.8326409266835646,high,low,,ISIC_0064279.JPG,,ISIC_0033603.JPG,28,26,false,0.2600000000000001,hl,keypress(j),0,true,983808.899999857,983808.7999999523,976292.593,976297.1999998093,976309.177,983823.946,1,40,29,
sequence,flow.Sequence,8_28,2023-11-30T17:49:13.253Z,,,,,,,,,,,7499.622999952291,completion,,,,,,,high,low,,,,,,,false,,,,,true,983809.0999999046,983808.7999999523,976292.593,976297.0999999046,976309.177,983823.946,1,40,,
trial,html.Screen,8_29_0,2023-11-30T17:49:17.901Z,,,,2,0,-0.0102871556606504,,0.04,true,ll,4632.953999856953,response,-0.9782611937027104,1.1497058963179447,-1.0749499012663746,-0.7397456600694207,0.9999373892909882,-0.8326409266835646,low,low,,ISIC_1805163.JPG,,ISIC_0010131.JPG,28,33,false,0.1,ll,keypress(f),0,true,988457.0999999046,988456.899999857,983807.028,983809.1999998093,983823.946,988466.14,1,40,30,
sequence,flow.Sequence,8_29,2023-11-30T17:49:17.901Z,,,,,,,,,,,4632.953999856953,completion,,,,,,,low,low,,,,,,,false,,,,,true,988457.2999999523,988456.899999857,983807.028,983809.1999998093,983823.946,988466.14,1,40,,
trial,html.Screen,8_30_0,2023-11-30T17:49:29.349Z,,,,2,0.0283578106329894,-0.0088840758711548,,0.04,false,lh,11438.859999999986,response,-1.0116417541846066,1.1497058963179447,-0.8426079641871853,1.033442916947398,0.9999373892909882,-0.8426079641871853,low,high,,ISIC_0060707.JPG,,ISIC_0031389.JPG,28,26,false,0.18000000000000005,ll,keypress(f),0,true,999905.0999999046,999905,988449.616,988457.399999857,988466.14,999921.755,1,40,31,
sequence,flow.Sequence,8_30,2023-11-30T17:49:29.349Z,,,,,,,,,,,11438.859999999986,completion,,,,,,,low,high,,,,,,,false,,,,,true,999905.2999999523,999905,988449.616,988457.2999999523,988466.14,999921.755,1,40,,
trial,html.Screen,8_31_0,2023-11-30T17:49:45.347Z,,,,2,-0.0388334549081915,0.0303399972963369,,0.04,,,16014.643999999971,timeout,1.1797246542163315,1.1497058963179447,-0.8426079641871853,-0.5881499989296397,1.0499373892909882,-0.8426079641871853,high,low,,ISIC_4961708.JPG,,ISIC_0031741.JPG,28,26,false,0.2600000000000001,,,0,true,1015903.6999998093,1015903.5,999905.221,999905.2999999523,999921.755,1015936.399,1,40,32,
sequence,flow.Sequence,8_31,2023-11-30T17:49:45.348Z,,,,,,,,,,,15981.744999999995,completion,,,,,,,high,low,,,,,,,false,,,,,true,1015904.0999999046,1015903.5,999905.221,999905.2999999523,999921.755,1015936.399,1,40,,
trial,html.Screen,8_32_0,2023-11-30T17:49:48.581Z,,,,2,0,-0.0102871556606504,,0.04,true,ll,3200.500999856973,response,-0.9179483069507334,1.1497058963179447,-0.8426079641871853,-0.8157414137646586,1.0499373892909882,-0.8426079641871853,low,low,,ISIC_1805163.JPG,,ISIC_0032892.JPG,28,56,false,0.1,ll,keypress(f),0,true,1019137,1019136.899999857,1015919.549,1015904.2999999523,1015936.399,1019142.487,1,40,33,
sequence,flow.Sequence,8_32,2023-11-30T17:49:48.581Z,,,,,,,,,,,3200.500999856973,completion,,,,,,,low,low,,,,,,,false,,,,,true,1019137.2999999523,1019136.899999857,1015919.549,1015904.2999999523,1015936.399,1019142.487,1,40,,
trial,html.Screen,8_33_0,2023-11-30T17:49:55.149Z,,,,2,0,-0.0102871556606504,,0.04,true,hl,6562.2129998093005,response,0.989300717252516,1.1497058963179447,-0.8168448603576959,-0.7908280206937478,1.0499373892909882,-0.8426079641871853,high,low,,ISIC_1805163.JPG,,ISIC_6416533.JPG,28,26,false,0.2600000000000001,hl,keypress(j),0,true,1025704.7999999523,1025704.6999998093,1019125.857,1019137.399999857,1019142.487,1025722.045,1,40,34,
sequence,flow.Sequence,8_33,2023-11-30T17:49:55.149Z,,,,,,,,,,,6562.2129998093005,completion,,,,,,,high,low,,,,,,,false,,,,,true,1025704.899999857,1025704.6999998093,1019125.857,1019137.2999999523,1019142.487,1025722.045,1,40,,
trial,html.Screen,8_34_0,2023-11-30T17:50:00.310Z,,,,2,0.0119001144851157,-0.0063430114540141,,0.04,true,hl,5143.854999856907,response,1.0160925610470608,1.0997058963179447,-0.8168448603576959,-0.5707094956389498,1.0499373892909882,-0.7532847172292032,high,low,,ISIC_0003822.JPG,,ISIC_8120622.JPG,28,26,false,0.20000000000000007,hl,keypress(j),0,true,1030866.1999998093,1030865.899999857,1025688.601,1025705,1025722.045,1030882.195,1,40,35,
sequence,flow.Sequence,8_34,2023-11-30T17:50:00.311Z,,,,,,,,,,,5143.854999856907,completion,,,,,,,high,low,,,,,,,false,,,,,true,1030866.7999999523,1030865.899999857,1025688.601,1025704.899999857,1025722.045,1030882.195,1,40,,
trial,html.Screen,8_35_0,2023-11-30T17:50:09.317Z,,,,2,0.0286056110007553,0.036125199756515,,0.04,false,ll,8991.004999809316,response,-0.8110369560965408,1.0997058963179447,-0.8168448603576959,-0.7091309063434607,1.0499373892909882,-0.7532847172292032,low,low,,ISIC_6535558.JPG,,ISIC_0030901.JPG,28,49,false,0.1,lh,keypress(e),0,true,1039873.399999857,1039873.1999998093,1030865.368,1030867.0999999046,1030882.195,1039882.761,1,40,36,
sequence,flow.Sequence,8_35,2023-11-30T17:50:09.318Z,,,,,,,,,,,8991.004999809316,completion,,,,,,,low,low,,,,,,,false,,,,,true,1039873.6999998093,1039873.1999998093,1030865.368,1030867,1030882.195,1039882.761,1,40,,
trial,html.Screen,8_36_0,2023-11-30T17:50:16.165Z,,,,2,0.0220026381002083,-0.0170756452911772,,0.04,true,ll,6837.738999999943,response,-0.7908195179596742,1.0997058963179447,-0.8168448603576959,-0.846286768918253,1.0499373892909882,-0.8032847172292032,low,low,,ISIC_5347806.JPG,,ISIC_0033843.JPG,28,56,false,0.1,ll,keypress(f),0,true,1046720.5999999046,1046720.5,1039866.158,1039874,1039882.761,1046729.463,1,40,37,
sequence,flow.Sequence,8_36,2023-11-30T17:50:16.165Z,,,,,,,,,,,6837.738999999943,completion,,,,,,,low,low,,,,,,,false,,,,,true,1046720.6999998093,1046720.5,1039866.158,1039873.899999857,1039882.761,1046729.463,1,40,,
trial,html.Screen,8_37_0,2023-11-30T17:50:29.925Z,,,,2,0,-0.0102871556606504,,0.04,false,lh,13751.537000000011,response,-0.8443403196524287,1.0997058963179447,-0.7685531434389636,0.8858525429102605,1.0499373892909882,-0.8032847172292032,low,high,,ISIC_1805163.JPG,,ISIC_8777813.JPG,28,25,false,0.17000000000000004,hl,keypress(j),0,true,1060481.1999998093,1060481,1046712.682,1046720.7999999523,1046729.463,1060489.565,1,40,38,
sequence,flow.Sequence,8_37,2023-11-30T17:50:29.925Z,,,,,,,,,,,13751.537000000011,completion,,,,,,,low,high,,,,,,,false,,,,,true,1060481.399999857,1060481,1046712.682,1046720.6999998093,1046729.463,1060489.565,1,40,,
trial,html.Screen,8_38_0,2023-11-30T17:50:37.069Z,,,,2,-0.0388334549081915,0.0303399972963369,,0.04,false,lh,7135.134999809321,response,-0.8867328775712738,1.0997058963179447,-0.8185531434389637,1.0063426986460375,1.0999373892909883,-0.8032847172292032,low,high,,ISIC_4961708.JPG,,ISIC_0055759.JPG,28,25,false,0.19000000000000006,ll,keypress(f),0,true,1067624.899999857,1067624.6999998093,1060472.749,1060481.5,1060489.565,1067636.767,1,40,39,
sequence,flow.Sequence,8_38,2023-11-30T17:50:37.069Z,,,,,,,,,,,7135.134999809321,completion,,,,,,,low,high,,,,,,,false,,,,,true,1067625,1067624.6999998093,1060472.749,1060481.5,1060489.565,1067636.767,1,40,,
trial,html.Screen,8_39_0,2023-11-30T17:50:43.997Z,,,,2,0.0283578106329894,-0.0088840758711548,,0.04,true,hl,6915.83299990464,response,1.2499674737468107,1.0997058963179447,-0.8185531434389637,-0.7169661572441197,1.1499373892909883,-0.8032847172292032,high,low,,ISIC_0060707.JPG,,ISIC_0013617.JPG,28,27,false,0.22000000000000008,hl,keypress(j),0,true,1074552.6999998093,1074552.5999999046,1067620.183,1067625.0999999046,1067636.767,1074566.931,1,40,40,
sequence,flow.Sequence,8_39,2023-11-30T17:50:43.997Z,,,,,,,,,,,6915.83299990464,completion,,,,,,,high,low,,,,,,,false,,,,,true,1074552.899999857,1074552.5999999046,1067620.183,1067625.0999999046,1067636.767,1074566.931,1,40,,
stair_loop,flow.Loop,8,2023-11-30T17:50:43.997Z,,,,,,,,,,,343102.97799990466,completion,,,,,,,,,,,,,,,false,,,,,true,1074553,1074552.5999999046,731433.118,731441,731449.622,1074566.931,1,40,,
exp_instructions,html.Screen,9,2023-11-30T17:50:59.365Z,,,,,,,,,,,15353.668999904534,response,,,,,,,,,,,,,,,,,continue,keypress(Space),,,1089921.2999999523,1089920.5999999046,1074550.183,1074553.0999999046,1074566.931,1089930.148,,,,
trial,html.Screen,10_0_0,2023-11-30T17:51:04.773Z,,,,1,0.0044063257337227,0.0172548282859886,,0.04,true,ll,5398.351999999955,response,-0.8856883166390501,1.1022058963179453,-0.957518088848649,-0.86246873871669,1.0304637900928462,-0.8601205439556064,low,low,,ISIC_7413786.JPG,9,ISIC_0010938.JPG,28,41,false,0.1,ll,keypress(f),0,false,1095328.6999998093,1095328.5,1089913.637,1089921.5,1089930.148,1095340.785,5,600,1,
break,html.Screen,10_0_1,2023-11-30T17:51:04.773Z,,,,,,,,,,,NaN,,,,,,,,low,low,,,,,,,false,,,,,false,1095329.0999999046,1095328.899999857,,1095328.7999999523,,1095340.785,5,600,,
break_continue,html.Screen,10_0_2,2023-11-30T17:51:04.773Z,,,,,,,,,,,NaN,,,,,,,,low,low,,,,,,,false,,,,,false,1095329.2999999523,1095329.1999998093,,1095329.0999999046,,1095340.785,5,600,,
sequence,flow.Sequence,10_0,2023-11-30T17:51:04.774Z,,,,,,,,,,,5399.05199980922,completion,,,,,,,low,low,,,,,,,false,,,,,false,1095329.399999857,1095329.1999998093,1089913.637,1089921.5,1089930.148,1095340.785,5,600,,
trial,html.Screen,10_1_0,2023-11-30T17:51:11.725Z,,,,1,0.0283578106329894,-0.0088840758711548,,0.04,true,hh,6939.814999904716,response,1.0733807306669467,1.1022058963179453,-0.957518088848649,0.9781766331161578,1.0304637900928462,-0.8601205439556064,high,high,,ISIC_0060707.JPG,8,ISIC_0032383.JPG,28,28,false,0.11,hh,keypress(i),0,false,1102280.7999999523,1102280.5999999046,1095323.939,1095329.5,1095340.785,1102287.5,5,600,2,
break,html.Screen,10_1_1,2023-11-30T17:51:11.725Z,,,,,,,,,,,NaN,,,,,,,,high,high,,,,,,,false,,,,,false,1102281,1102281,,1102280.7999999523,,1102287.5,5,600,,
break_continue,html.Screen,10_1_2,2023-11-30T17:51:11.725Z,,,,,,,,,,,NaN,,,,,,,,high,high,,,,,,,false,,,,,false,1102281.2999999523,1102281.0999999046,,1102281,,1102287.5,5,600,,
sequence,flow.Sequence,10_1,2023-11-30T17:51:11.725Z,,,,,,,,,,,6940.314999904716,completion,,,,,,,high,high,,,,,,,false,,,,,false,1102281.2999999523,1102281.0999999046,1095323.939,1095329.399999857,1095340.785,1102287.5,5,600,,
trial,html.Screen,10_2_0,2023-11-30T17:51:21.669Z,,,,1,0.0220026381002083,-0.0170756452911772,,0.04,false,hl,9937.099999904633,response,0.930804711032185,1.1022058963179453,-0.957518088848649,-0.7294067991476295,1.0304637900928462,-0.8601205439556064,high,low,,ISIC_5347806.JPG,9,ISIC_5067317.JPG,28,25,false,0.22000000000000008,ll,keypress(f),0,false,1112224.6999998093,1112224.5999999046,1102270.87,1102281.2999999523,1102287.5,1112256.925,5,600,3,
break,html.Screen,10_2_1,2023-11-30T17:51:21.669Z,,,,,,,,,,,NaN,,,,,,,,high,low,,,,,,,false,,,,,false,1112225.1999998093,1112225.0999999046,,1112224.899999857,,1112256.925,5,600,,
break_continue,html.Screen,10_2_2,2023-11-30T17:51:21.670Z,,,,,,,,,,,NaN,,,,,,,,high,low,,,,,,,false,,,,,false,1112225.5,1112225.399999857,,1112225.2999999523,,1112256.925,5,600,,
sequence,flow.Sequence,10_2,2023-11-30T17:51:21.670Z,,,,,,,,,,,9937.899999856949,completion,,,,,,,high,low,,,,,,,false,,,,,false,1112225.6999998093,1112225.399999857,1102270.87,1102281.2999999523,1102287.5,1112256.925,5,600,,
trial,html.Screen,10_3_0,2023-11-30T17:51:27.630Z,,,,1,0.0009714874637896,-0.0174815595031679,,0.04,true,hl,5928.674999904586,response,1.3046390428588206,1.1022058963179453,-0.957518088848649,-0.7942099232219556,1.0304637900928462,-0.8601205439556064,high,low,,ISIC_9848743.JPG,9,ISIC_0013096.JPG,28,25,false,0.22000000000000008,hl,keypress(j),0,false,1118185.899999857,1118185.5999999046,1112240.338,1112225.6999998093,1112256.925,1118201.796,5,600,4,
break,html.Screen,10_3_1,2023-11-30T17:51:27.631Z,,,,,,,,,,,NaN,,,,,,,,high,low,,,,,,,false,,,,,false,1118187,1118186.5999999046,,1118186.1999998093,,1118201.796,5,600,,
break_continue,html.Screen,10_3_2,2023-11-30T17:51:27.632Z,,,,,,,,,,,NaN,,,,,,,,high,low,,,,,,,false,,,,,false,1118187.6999998093,1118187.399999857,,1118187.1999998093,,1118201.796,5,600,,
sequence,flow.Sequence,10_3,2023-11-30T17:51:27.632Z,,,,,,,,,,,5930.474999856902,completion,,,,,,,high,low,,,,,,,false,,,,,false,1118188,1118187.399999857,1112240.338,1112225.6999998093,1112256.925,1118201.796,5,600,,
trial,html.Screen,10_4_0,2023-11-30T17:51:30.589Z,,,,1,0.0257631352671967,0.0202837002774028,,0.04,true,ll,2942.7039999999106,response,-0.8856883166390501,1.1022058963179453,-0.957518088848649,-0.86246873871669,1.0304637900928462,-0.8601205439556064,low,low,,ISIC_0032797.JPG,9,ISIC_0010938.JPG,28,41,false,0.1,ll,keypress(f),0,false,1121144.5999999046,1121144.5,1118185.283,1118188.1999998093,1118201.796,1121157.523,5,600,5,
break,html.Screen,10_4_1,2023-11-30T17:51:30.589Z,,,,,,,,,,,NaN,,,,,,,,low,low,,,,,,,false,,,,,false,1121145.0999999046,1121145,,1121144.7999999523,,1121157.523,5,600,,
break_continue,html.Screen,10_4_2,2023-11-30T17:51:30.590Z,,,,,,,,,,,NaN,,,,,,,,low,low,,,,,,,false,,,,,false,1121145.399999857,1121145.1999998093,,1121145.1999998093,,1121157.523,5,600,,
sequence,flow.Sequence,10_4,2023-11-30T17:51:30.590Z,,,,,,,,,,,2943.4039998091757,completion,,,,,,,low,low,,,,,,,false,,,,,false,1121145.5,1121145.1999998093,1118185.283,1118188.1999998093,1118201.796,1121157.523,5,600,,
trial,html.Screen,10_5_0,2023-11-30T17:51:39.222Z,,,,1,-0.0241900387072296,0.0339955304424736,,0.04,false,lh,8620.276999952272,response,-1.0685314915436992,1.1022058963179453,-0.957518088848649,0.8203833713472237,1.0304637900928462,-0.8601205439556064,low,high,,ISIC_0010789.JPG,9,ISIC_0029374.JPG,28,25,false,0.22000000000000008,hh,keypress(i),0,false,1129778.0999999046,1129777.7999999523,1121140.975,1121145.5999999046,1121157.523,1129790.954,5,600,6,
break,html.Screen,10_5_1,2023-11-30T17:51:39.223Z,,,,,,,,,,,NaN,,,,,,,,low,high,,,,,,,false,,,,,false,1129779.1999998093,1129778.899999857,,1129778.5,,1129790.954,5,600,,
break_continue,html.Screen,10_5_2,2023-11-30T17:51:39.224Z,,,,,,,,,,,NaN,,,,,,,,low,high,,,,,,,false,,,,,false,1129780.0999999046,1129779.6999998093,,1129779.5,,1129790.954,5,600,,
sequence,flow.Sequence,10_5,2023-11-30T17:51:39.224Z,,,,,,,,,,,8622.17699980922,completion,,,,,,,low,high,,,,,,,false,,,,,false,1129780.399999857,1129779.6999998093,1121140.975,1121145.5999999046,1121157.523,1129790.954,5,600,,
trial,html.Screen,10_6_0,2023-11-30T17:51:43.558Z,,,,1,0.0258224118104549,-0.0029364553353019,,0.04,true,hh,4322.2459998093545,response,1.0211808747755002,1.1022058963179453,-0.957518088848649,0.9580728810269548,1.0304637900928462,-0.8601205439556064,high,high,,ISIC_8325226.JPG,9,ISIC_1211506.JPG,28,28,false,0.11,hh,keypress(i),0,false,1134113.5,1134113.1999998093,1129774.536,1129780.5,1129790.954,1134116.128,5,600,7,
break,html.Screen,10_6_1,2023-11-30T17:51:43.559Z,,,,,,,,,,,NaN,,,,,,,,high,high,,,,,,,false,,,,,false,1134114.399999857,1134114.1999998093,,1134113.899999857,,1134116.128,5,600,,
break_continue,html.Screen,10_6_2,2023-11-30T17:51:43.559Z,,,,,,,,,,,NaN,,,,,,,,high,high,,,,,,,false,,,,,false,1134115.0999999046,1134114.6999998093,,1134114.5,,1134116.128,5,600,,
sequence,flow.Sequence,10_6,2023-11-30T17:51:43.559Z,,,,,,,,,,,4323.7459998093545,completion,,,,,,,high,high,,,,,,,false,,,,,false,1134115.2999999523,1134114.6999998093,1129774.536,1129780.5,1129790.954,1134116.128,5,600,,
trial,html.Screen,10_7_0,2023-11-30T17:51:48.429Z,,,,1,0.0367744112927588,0.0324865661712824,,0.04,false,ll,4868.4719999046065,response,-0.9737567085091248,1.1022058963179453,-0.957518088848649,-0.9013996680304692,1.0304637900928462,-0.8601205439556064,low,low,,ISIC_4523565.JPG,9,ISIC_2483825.JPG,28,41,false,0.1,hl,keypress(j),0,false,1138984.6999998093,1138984.5999999046,1134099.334,1134115.399999857,1134116.128,1138992.199,5,600,8,
break,html.Screen,10_7_1,2023-11-30T17:51:48.429Z,,,,,,,,,,,NaN,,,,,,,,low,low,,,,,,,false,,,,,false,1138985.0999999046,1138985,,1138984.899999857,,1138992.199,5,600,,
break_continue,html.Screen,10_7_2,2023-11-30T17:51:48.429Z,,,,,,,,,,,NaN,,,,,,,,low,low,,,,,,,false,,,,,false,1138985.2999999523,1138985.1999998093,,1138985.1999998093,,1138992.199,5,600,,
sequence,flow.Sequence,10_7,2023-11-30T17:51:48.429Z,,,,,,,,,,,4869.071999809239,completion,,,,,,,low,low,,,,,,,false,,,,,false,1138985.2999999523,1138985.1999998093,1134099.334,1134115.399999857,1134116.128,1138992.199,5,600,,
trial,html.Screen,10_8_0,2023-11-30T17:51:53.310Z,,,,1,-0.0065172941585523,0.0118857043117315,,0.04,true,hh,4873.000999809243,response,1.00975234958099,1.1022058963179453,-0.957518088848649,0.958677033057289,1.0304637900928462,-0.8601205439556064,high,high,,ISIC_6119202.JPG,9,ISIC_0976232.JPG,28,28,false,0.11,hh,keypress(i),0,false,1143865.5,1143865.1999998093,1138975.728,1138985.399999857,1138992.199,1143868.395,5,600,9,
break,html.Screen,10_8_1,2023-11-30T17:51:53.310Z,,,,,,,,,,,NaN,,,,,,,,high,high,,,,,,,false,,,,,false,1143866.1999998093,1143866,,1143865.6999998093,,1143868.395,5,600,,
break_continue,html.Screen,10_8_2,2023-11-30T17:51:53.311Z,,,,,,,,,,,NaN,,,,,,,,high,high,,,,,,,false,,,,,false,1143866.6999998093,1143866.5,,1143866.2999999523,,1143868.395,5,600,,
sequence,flow.Sequence,10_8,2023-11-30T17:51:53.311Z,,,,,,,,,,,4874.300999999978,completion,,,,,,,high,high,,,,,,,false,,,,,false,1143866.899999857,1143866.5,1138975.728,1138985.399999857,1138992.199,1143868.395,5,600,,
trial,html.Screen,10_9_0,2023-11-30T17:51:58.926Z,,,,1,-0.0088741920055285,-0.0058246074740588,,0.04,true,hh,5612.704999904614,response,1.1018283884093611,1.1022058963179453,-0.957518088848649,1.053767307212406,1.0304637900928462,-0.8601205439556064,high,high,,ISIC_4136663.JPG,10,ISIC_6785249.JPG,28,28,false,0.11,hh,keypress(i),0,false,1149481.399999857,1149481.0999999046,1143851.658,1143867.0999999046,1143868.395,1149496.014,5,600,10,
break,html.Screen,10_9_1,2023-11-30T17:51:58.927Z,,,,,,,,,,,NaN,,,,,,,,high,high,,,,,,,false,,,,,false,1149482.2999999523,1149482.0999999046,,1149481.6999998093,,1149496.014,5,600,,
break_continue,html.Screen,10_9_2,2023-11-30T17:51:58.928Z,,,,,,,,,,,NaN,,,,,,,,high,high,,,,,,,false,,,,,false,1149482.7999999523,1149482.5,,1149482.399999857,,1149496.014,5,600,,
sequence,flow.Sequence,10_9,2023-11-30T17:51:58.928Z,,,,,,,,,,,5614.104999999981,completion,,,,,,,high,high,,,,,,,false,,,,,false,1149483.0999999046,1149482.5,1143851.658,1143867,1143868.395,1149496.014,5,600,,
trial,html.Screen,10_10_0,2023-11-30T17:52:14.923Z,,,,1,0.0367744112927588,0.0324865661712824,,0.04,,,16014.570999999996,timeout,1.0369885917487718,1.1022058963179453,-0.957518088848649,-0.8486937878412699,1.0304637900928462,-0.8601205439556064,high,low,,ISIC_4523565.JPG,9,ISIC_6917681.JPG,28,25,false,0.22000000000000008,,,0,false,1165477.7999999523,1165477.5999999046,1149479.494,1149483.1999998093,1149496.014,1165510.585,5,600,11,
break,html.Screen,10_10_1,2023-11-30T17:52:14.924Z,,,,,,,,,,,NaN,,,,,,,,high,low,,,,,,,false,,,,,false,1165478.5,1165478.399999857,,1165478.0999999046,,1165510.585,5,600,,
break_continue,html.Screen,10_10_2,2023-11-30T17:52:14.924Z,,,,,,,,,,,NaN,,,,,,,,high,low,,,,,,,false,,,,,false,1165479,1165478.7999999523,,1165478.6999998093,,1165510.585,5,600,,
sequence,flow.Sequence,10_10,2023-11-30T17:52:14.924Z,,,,,,,,,,,15982.78599995235,completion,,,,,,,high,low,,,,,,,false,,,,,false,1165479.0999999046,1165478.7999999523,1149479.494,1149483.1999998093,1149496.014,1165510.585,5,600,,
trial,html.Screen,10_11_0,2023-11-30T17:52:17.686Z,,,,1,0.0367744112927588,0.0324865661712824,,0.04,true,ll,2730.1149998093024,response,-0.8689339070965472,1.1022058963179453,-0.957518088848649,-0.9278851723466304,1.0304637900928462,-0.8601205439556064,low,low,,ISIC_4523565.JPG,10,ISIC_2221217.JPG,28,41,false,0.1,ll,keypress(f),0,false,1168240.7999999523,1168240.6999998093,1165494.036,1165479.2999999523,1165510.585,1168249.267,5,600,12,
break,html.Screen,10_11_1,2023-11-30T17:52:17.686Z,,,,,,,,,,,NaN,,,,,,,,low,low,,,,,,,false,,,,,false,1168241.0999999046,1168241.0999999046,,1168240.899999857,,1168249.267,5,600,,
break_continue,html.Screen,10_11_2,2023-11-30T17:52:17.686Z,,,,,,,,,,,NaN,,,,,,,,low,low,,,,,,,false,,,,,false,1168241.399999857,1168241.2999999523,,1168241.1999998093,,1168249.267,5,600,,
sequence,flow.Sequence,10_11,2023-11-30T17:52:17.687Z,,,,,,,,,,,2730.7149999523535,completion,,,,,,,low,low,,,,,,,false,,,,,false,1168241.5,1168241.2999999523,1165494.036,1165479.2999999523,1165510.585,1168249.267,5,600,,
trial,html.Screen,10_12_0,2023-11-30T17:52:21.743Z,,,,1,0.0076984477620101,0.0069458408496562,,0.04,true,ll,4048.4329998092726,response,-0.8724853443422199,1.1022058963179453,-0.957518088848649,-0.9014790323337478,1.0304637900928462,-0.8601205439556064,low,low,,ISIC_0000434.JPG,9,ISIC_6278273.JPG,28,41,false,0.1,ll,keypress(f),0,false,1172297.899999857,1172297.6999998093,1168232.4,1168241.5,1168249.267,1172307.037,5,600,13,
break,html.Screen,10_12_1,2023-11-30T17:52:21.744Z,,,,,,,,,,,NaN,,,,,,,,low,low,,,,,,,false,,,,,false,1172298.899999857,1172298.5999999046,,1172298.2999999523,,1172307.037,5,600,,
break_continue,html.Screen,10_12_2,2023-11-30T17:52:21.745Z,,,,,,,,,,,NaN,,,,,,,,low,low,,,,,,,false,,,,,false,1172299.5999999046,1172299.2999999523,,1172299.0999999046,,1172307.037,5,600,,
sequence,flow.Sequence,10_12,2023-11-30T17:52:21.745Z,,,,,,,,,,,4050.0329999523237,completion,,,,,,,low,low,,,,,,,false,,,,,false,1172299.7999999523,1172299.2999999523,1168232.4,1168241.5,1168249.267,1172307.037,5,600,,
trial,html.Screen,10_13_0,2023-11-30T17:52:29.382Z,,,,1,-0.0198696495649504,0.0387952353063878,,0.04,false,lh,7629.662999809254,response,-0.7629099401226335,1.1022058963179453,-0.957518088848649,0.8515956627075536,1.0304637900928462,-0.8601205439556064,low,high,,ISIC_6735970.JPG,9,ISIC_0028718.JPG,28,25,false,0.22000000000000008,hl,keypress(j),0,false,1179936.899999857,1179936.6999998093,1172290.335,1172300,1172307.037,1179938.504,5,600,14,
break,html.Screen,10_13_1,2023-11-30T17:52:29.382Z,,,,,,,,,,,NaN,,,,,,,,low,high,,,,,,,false,,,,,false,1179937.1999998093,1179937.1999998093,,1179937,,1179938.504,5,600,,
break_continue,html.Screen,10_13_2,2023-11-30T17:52:29.383Z,,,,,,,,,,,NaN,,,,,,,,low,high,,,,,,,false,,,,,false,1179937.399999857,1179937.399999857,,1179937.2999999523,,1179938.504,5,600,,
sequence,flow.Sequence,10_13,2023-11-30T17:52:29.383Z,,,,,,,,,,,7630.362999856938,completion,,,,,,,low,high,,,,,,,false,,,,,false,1179937.5999999046,1179937.399999857,1172290.335,1172300,1172307.037,1179938.504,5,600,,
trial,html.Screen,10_14_0,2023-11-30T17:52:34.911Z,,,,1,-0.0109416414475118,-0.005246498750811,,0.04,false,hl,5526.996000000043,response,1.2578167348825195,1.1022058963179453,-0.957518088848649,-0.8371819698254004,1.0304637900928462,-0.8601205439556064,high,low,,ISIC_0064279.JPG,9,ISIC_9613570.JPG,28,25,false,0.22000000000000008,hh,keypress(i),0,false,1185465.7999999523,1185465.5,1179921.956,1179937.5999999046,1179938.504,1185482.656,5,600,15,
break,html.Screen,10_14_1,2023-11-30T17:52:34.912Z,,,,,,,,,,,NaN,,,,,,,,high,low,,,,,,,false,,,,,false,1185466.6999998093,1185466.5,,1185466,,1185482.656,5,600,,
break_continue,html.Screen,10_14_2,2023-11-30T17:52:34.913Z,,,,,,,,,,,NaN,,,,,,,,high,low,,,,,,,false,,,,,false,1185467.399999857,1185467.0999999046,,1185466.899999857,,1185482.656,5,600,,
sequence,flow.Sequence,10_14,2023-11-30T17:52:34.913Z,,,,,,,,,,,5528.595999904675,completion,,,,,,,high,low,,,,,,,false,,,,,false,1185467.6999998093,1185467.0999999046,1179921.956,1179937.5999999046,1179938.504,1185482.656,5,600,,
trial,html.Screen,10_15_0,2023-11-30T17:52:41.278Z,,,,1,-0.0088741920055285,-0.0058246074740588,,0.04,true,hl,6350.443999904674,response,0.9375710028613438,1.1022058963179453,-0.957518088848649,-0.646533075914549,1.0304637900928462,-0.8601205439556064,high,low,,ISIC_4136663.JPG,8,ISIC_0024507.JPG,28,25,false,0.22000000000000008,hl,keypress(j),0,false,1191833.1999998093,1191833.0999999046,1185466.139,1185467.899999857,1185482.656,1191844.974,5,600,16,
break,html.Screen,10_15_1,2023-11-30T17:52:41.279Z,,,,,,,,,,,NaN,,,,,,,,high,low,,,,,,,false,,,,,false,1191834.0999999046,1191833.899999857,,1191833.5,,1191844.974,5,600,,
break_continue,html.Screen,10_15_2,2023-11-30T17:52:41.280Z,,,,,,,,,,,NaN,,,,,,,,high,low,,,,,,,false,,,,,false,1191834.6999998093,1191834.5,,1191834.2999999523,,1191844.974,5,600,,
sequence,flow.Sequence,10_15,2023-11-30T17:52:41.280Z,,,,,,,,,,,6351.844000000041,completion,,,,,,,high,low,,,,,,,false,,,,,false,1191835,1191834.5,1185466.139,1185467.7999999523,1185482.656,1191844.974,5,600,,
trial,html.Screen,10_16_0,2023-11-30T17:52:45.463Z,,,,1,0.0118382036798625,0.0300588245877227,,0.04,true,hh,4172.325999952387,response,1.0211808747755002,1.1022058963179453,-0.957518088848649,0.9580728810269548,1.0304637900928462,-0.8601205439556064,high,high,,ISIC_4748605.JPG,9,ISIC_1211506.JPG,28,28,false,0.11,hh,keypress(i),0,false,1196017.5999999046,1196017.2999999523,1191828.29,1191835.1999998093,1191844.974,1196019.828,5,600,17,
break,html.Screen,10_16_1,2023-11-30T17:52:45.464Z,,,,,,,,,,,NaN,,,,,,,,high,high,,,,,,,false,,,,,false,1196018.5999999046,1196018.399999857,,1196018.0999999046,,1196019.828,5,600,,
break_continue,html.Screen,10_16_2,2023-11-30T17:52:45.464Z,,,,,,,,,,,NaN,,,,,,,,high,high,,,,,,,false,,,,,false,1196019.1999998093,1196019,,1196018.7999999523,,1196019.828,5,600,,
sequence,flow.Sequence,10_16,2023-11-30T17:52:45.464Z,,,,,,,,,,,4174.026000000071,completion,,,,,,,high,high,,,,,,,false,,,,,false,1196019.399999857,1196019,1191828.29,1191835.0999999046,1191844.974,1196019.828,5,600,,
trial,html.Screen,10_17_0,2023-11-30T17:52:53.415Z,,,,1,0.0257631352671967,0.0202837002774028,,0.04,true,hl,7949.471999952337,response,0.8954803463300026,1.1022058963179453,-0.957518088848649,-0.7071819047913821,1.0304637900928462,-0.8601205439556064,high,low,,ISIC_0032797.JPG,8,ISIC_0033071.JPG,28,25,false,0.22000000000000008,hl,keypress(j),0,false,1203969.399999857,1203969.2999999523,1196003.364,1196019.5999999046,1196019.828,1203985.347,5,600,18,
break,html.Screen,10_17_1,2023-11-30T17:52:53.415Z,,,,,,,,,,,NaN,,,,,,,,high,low,,,,,,,false,,,,,false,1203970.1999998093,1203970,,1203969.7999999523,,1203985.347,5,600,,
break_continue,html.Screen,10_17_2,2023-11-30T17:52:53.416Z,,,,,,,,,,,NaN,,,,,,,,high,low,,,,,,,false,,,,,false,1203970.899999857,1203970.5999999046,,1203970.399999857,,1203985.347,5,600,,
sequence,flow.Sequence,10_17,2023-11-30T17:52:53.416Z,,,,,,,,,,,7950.771999904653,completion,,,,,,,high,low,,,,,,,false,,,,,false,1203971.0999999046,1203970.5999999046,1196003.364,1196019.5,1196019.828,1203985.347,5,600,,
trial,html.Screen,10_18_0,2023-11-30T17:52:58.527Z,,,,1,-0.039520186367207,-0.0377961575607372,,0.04,true,lh,5095.852999809198,response,-0.9138670886161264,1.1022058963179453,-0.957518088848649,0.8414121478342018,1.0304637900928462,-0.8601205439556064,low,high,,ISIC_6356149.JPG,9,ISIC_6709052.JPG,28,25,false,0.22000000000000008,lh,keypress(e),0,false,1209081.399999857,1209081.1999998093,1203968.837,1203971.2999999523,1203985.347,1209095.25,5,600,19,
break,html.Screen,10_18_1,2023-11-30T17:52:58.528Z,,,,,,,,,,,NaN,,,,,,,,low,high,,,,,,,false,,,,,false,1209082.399999857,1209082.0999999046,,1209081.6999998093,,1209095.25,5,600,,
break_continue,html.Screen,10_18_2,2023-11-30T17:52:58.529Z,,,,,,,,,,,NaN,,,,,,,,low,high,,,,,,,false,,,,,false,1209082.899999857,1209082.6999998093,,1209082.5,,1209095.25,5,600,,
sequence,flow.Sequence,10_18,2023-11-30T17:52:58.529Z,,,,,,,,,,,5097.352999809198,completion,,,,,,,low,high,,,,,,,false,,,,,false,1209083.0999999046,1209082.6999998093,1203968.837,1203971.1999998093,1203985.347,1209095.25,5,600,,
trial,html.Screen,10_19_0,2023-11-30T17:53:08.719Z,,,,1,0.0220026381002083,-0.0170756452911772,,0.04,true,hl,10177.449999809265,response,0.8954803463300026,1.1022058963179453,-0.957518088848649,-0.7071819047913821,1.0304637900928462,-0.8601205439556064,high,low,,ISIC_5347806.JPG,9,ISIC_0033071.JPG,28,25,false,0.22000000000000008,hl,keypress(j),0,false,1219272.899999857,1219272.6999998093,1209078.687,1209083.0999999046,1209095.25,1219281.693,5,600,20,
break,html.Screen,10_19_1,2023-11-30T17:53:08.719Z,,,,,,,,,,,NaN,,,,,,,,high,low,,,,,,,false,,,,,false,1219273.2999999523,1219273.2999999523,,1219273,,1219281.693,5,600,,
break_continue,html.Screen,10_19_2,2023-11-30T17:53:08.719Z,,,,,,,,,,,NaN,,,,,,,,high,low,,,,,,,false,,,,,false,1219273.6999998093,1219273.5,,1219273.5,,1219281.693,5,600,,
sequence,flow.Sequence,10_19,2023-11-30T17:53:08.719Z,,,,,,,,,,,10178.25,completion,,,,,,,high,low,,,,,,,false,,,,,false,1219273.7999999523,1219273.5,1209078.687,1209083.0999999046,1209095.25,1219281.693,5,600,,
trial,html.Screen,10_20_0,2023-11-30T17:53:18.351Z,,,,1,0.0283578106329894,-0.0088840758711548,,0.04,false,hh,9623.30700000003,response,1.0161855018674797,1.1022058963179453,-0.957518088848649,1.1331366334676347,1.0304637900928462,-0.8601205439556064,high,high,,ISIC_0060707.JPG,8,ISIC_3521671.JPG,28,28,false,0.11,lh,keypress(e),0,false,1228905.1999998093,1228905,1219265.144,1219273.899999857,1219281.693,1228917.119,5,600,21,
break,html.Screen,10_20_1,2023-11-30T17:53:18.352Z,,,,,,,,,,,NaN,,,,,,,,high,high,,,,,,,false,,,,,false,1228905.899999857,1228905.6999998093,,1228905.399999857,,1228917.119,5,600,,
break_continue,html.Screen,10_20_2,2023-11-30T17:53:18.352Z,,,,,,,,,,,NaN,,,,,,,,high,high,,,,,,,false,,,,,false,1228906.399999857,1228906.1999998093,,1228906.0999999046,,1228917.119,5,600,,
sequence,flow.Sequence,10_20,2023-11-30T17:53:18.352Z,,,,,,,,,,,9624.506999809295,completion,,,,,,,high,high,,,,,,,false,,,,,false,1228906.5999999046,1228906.1999998093,1219265.144,1219273.899999857,1219281.693,1228917.119,5,600,,
trial,html.Screen,10_21_0,2023-11-30T17:53:22.342Z,,,,1,0,-0.0102871556606504,,0.04,false,hl,3979.4809999046847,response,1.2578167348825195,1.1022058963179453,-0.957518088848649,-0.8371819698254004,1.0304637900928462,-0.8601205439556064,high,low,,ISIC_1805163.JPG,8,ISIC_9613570.JPG,28,25,false,0.22000000000000008,hh,keypress(i),0,false,1232896.6999998093,1232896.5999999046,1228900.449,1228906.7999999523,1228917.119,1232908.264,5,600,22,
break,html.Screen,10_21_1,2023-11-30T17:53:22.343Z,,,,,,,,,,,NaN,,,,,,,,high,low,,,,,,,false,,,,,false,1232897,1232896.899999857,,1232896.7999999523,,1232908.264,5,600,,
break_continue,html.Screen,10_21_2,2023-11-30T17:53:22.343Z,,,,,,,,,,,NaN,,,,,,,,high,low,,,,,,,false,,,,,false,1232897.1999998093,1232897.0999999046,,1232897.0999999046,,1232908.264,5,600,,
sequence,flow.Sequence,10_21,2023-11-30T17:53:22.343Z,,,,,,,,,,,3979.9809999046847,completion,,,,,,,high,low,,,,,,,false,,,,,false,1232897.1999998093,1232897.0999999046,1228900.449,1228906.6999998093,1228917.119,1232908.264,5,600,,
trial,html.Screen,10_22_0,2023-11-30T17:53:25.895Z,,,,1,0.0044063257337227,0.0172548282859886,,0.04,false,hl,3540.7360000000335,response,1.058275612142778,1.1022058963179453,-0.957518088848649,-0.7824898568540655,1.0304637900928462,-0.8601205439556064,high,low,,ISIC_7413786.JPG,10,ISIC_4906385.JPG,28,25,false,0.22000000000000008,hh,keypress(i),0,false,1236449.1999998093,1236449,1232891.618,1232897.399999857,1232908.264,1236465.133,5,600,23,
break,html.Screen,10_22_1,2023-11-30T17:53:25.895Z,,,,,,,,,,,NaN,,,,,,,,high,low,,,,,,,false,,,,,false,1236449.6999998093,1236449.5999999046,,1236449.2999999523,,1236465.133,5,600,,
break_continue,html.Screen,10_22_2,2023-11-30T17:53:25.896Z,,,,,,,,,,,NaN,,,,,,,,high,low,,,,,,,false,,,,,false,1236450,1236449.899999857,,1236449.7999999523,,1236465.133,5,600,,
sequence,flow.Sequence,10_22,2023-11-30T17:53:25.896Z,,,,,,,,,,,3541.6359998569824,completion,,,,,,,high,low,,,,,,,false,,,,,false,1236450.1999998093,1236449.899999857,1232891.618,1232897.399999857,1232908.264,1236465.133,5,600,,
trial,html.Screen,10_23_0,2023-11-30T17:53:29.543Z,,,,1,0.0283578106329894,-0.0088840758711548,,0.04,true,lh,3631.7669998570345,response,-0.7714570894008278,1.1022058963179453,-0.957518088848649,0.9113656554657036,1.0304637900928462,-0.8601205439556064,low,high,,ISIC_0060707.JPG,10,ISIC_4529092.JPG,28,25,false,0.22000000000000008,lh,keypress(e),0,false,1240097,1240096.899999857,1236448.412,1236450.1999998093,1236465.133,1240105.535,5,600,24,
break,html.Screen,10_23_1,2023-11-30T17:53:29.543Z,,,,,,,,,,,NaN,,,,,,,,low,high,,,,,,,false,,,,,false,1240097.5999999046,1240097.5,,1240097.2999999523,,1240105.535,5,600,,
break_continue,html.Screen,10_23_2,2023-11-30T17:53:29.544Z,,,,,,,,,,,NaN,,,,,,,,low,high,,,,,,,false,,,,,false,1240098.0999999046,1240097.899999857,,1240097.7999999523,,1240105.535,5,600,,
sequence,flow.Sequence,10_23,2023-11-30T17:53:29.544Z,,,,,,,,,,,3632.7669998570345,completion,,,,,,,low,high,,,,,,,false,,,,,false,1240098.1999998093,1240097.899999857,1236448.412,1236450.1999998093,1236465.133,1240105.535,5,600,,
trial,html.Screen,10_24_0,2023-11-30T17:53:34.455Z,,,,1,0.0118382036798625,0.0300588245877227,,0.04,true,ll,4903.7649999524,response,-0.9405746940315332,1.1022058963179453,-0.957518088848649,-0.7847785203585506,1.0304637900928462,-0.8601205439556064,low,low,,ISIC_4748605.JPG,9,ISIC_0034237.JPG,28,41,false,0.1,ll,keypress(f),0,false,1245009.5,1245009.2999999523,1240088.896,1240098.1999998093,1240105.535,1245015.082,5,600,25,
break,html.Screen,10_24_1,2023-11-30T17:53:34.456Z,,,,,,,,,,,NaN,,,,,,,,low,low,,,,,,,false,,,,,false,1245010.2999999523,1245010.1999998093,,1245009.7999999523,,1245015.082,5,600,,
break_continue,html.Screen,10_24_2,2023-11-30T17:53:34.457Z,,,,,,,,,,,NaN,,,,,,,,low,low,,,,,,,false,,,,,false,1245010.899999857,1245010.6999998093,,1245010.5,,1245015.082,5,600,,
sequence,flow.Sequence,10_24,2023-11-30T17:53:34.457Z,,,,,,,,,,,4905.164999809349,completion,,,,,,,low,low,,,,,,,false,,,,,false,1245011.0999999046,1245010.6999998093,1240088.896,1240098.1999998093,1240105.535,1245015.082,5,600,,
trial,html.Screen,10_25_0,2023-11-30T17:53:44.023Z,,,,1,0.0009714874637896,-0.0174815595031679,,0.04,false,hl,9561.918000000063,response,0.930804711032185,1.1022058963179453,-0.957518088848649,-0.7294067991476295,1.0304637900928462,-0.8601205439556064,high,low,,ISIC_9848743.JPG,9,ISIC_5067317.JPG,28,25,false,0.22000000000000008,lh,keypress(e),0,false,1254577.0999999046,1254577,1244998.497,1245011.2999999523,1245015.082,1254583.734,5,600,26,
break,html.Screen,10_25_1,2023-11-30T17:53:44.024Z,,,,,,,,,,,NaN,,,,,,,,high,low,,,,,,,false,,,,,false,1254577.899999857,1254577.5999999046,,1254577.399999857,,1254583.734,5,600,,
break_continue,html.Screen,10_25_2,2023-11-30T17:53:44.024Z,,,,,,,,,,,NaN,,,,,,,,high,low,,,,,,,false,,,,,false,1254578.399999857,1254578.1999998093,,1254578,,1254583.734,5,600,,
sequence,flow.Sequence,10_25,2023-11-30T17:53:44.024Z,,,,,,,,,,,9563.117999809328,completion,,,,,,,high,low,,,,,,,false,,,,,false,1254578.5,1254578.1999998093,1244998.497,1245011.2999999523,1245015.082,1254583.734,5,600,,
trial,html.Screen,10_26_0,2023-11-30T17:53:47.439Z,,,,1,0.0257631352671967,0.0202837002774028,,0.04,true,hh,3409.365999904694,response,1.1055382068806878,1.1022058963179453,-0.957518088848649,1.0166010471189206,1.0304637900928462,-0.8601205439556064,high,high,,ISIC_0032797.JPG,9,ISIC_5420979.JPG,28,28,false,0.11,hh,keypress(i),0,false,1257993.399999857,1257993.0999999046,1254566.945,1254578.6999998093,1254583.734,1258007.016,5,600,27,
break,html.Screen,10_26_1,2023-11-30T17:53:47.440Z,,,,,,,,,,,NaN,,,,,,,,high,high,,,,,,,false,,,,,false,1257994.0999999046,1257994,,1257993.5999999046,,1258007.016,5,600,,
break_continue,html.Screen,10_26_2,2023-11-30T17:53:47.440Z,,,,,,,,,,,NaN,,,,,,,,high,high,,,,,,,false,,,,,false,1257994.5999999046,1257994.399999857,,1257994.2999999523,,1258007.016,5,600,,
sequence,flow.Sequence,10_26,2023-11-30T17:53:47.440Z,,,,,,,,,,,3410.6659998570103,completion,,,,,,,high,high,,,,,,,false,,,,,false,1257994.7999999523,1257994.399999857,1254566.945,1254578.5999999046,1254583.734,1258007.016,5,600,,
trial,html.Screen,10_27_0,2023-11-30T17:53:50.830Z,,,,1,-0.039520186367207,-0.0377961575607372,,0.04,false,lh,3377.4839999999385,response,-0.9617893983965208,1.1022058963179453,-0.957518088848649,0.9453006131304652,1.0304637900928462,-0.8601205439556064,low,high,,ISIC_6356149.JPG,9,ISIC_4229473.JPG,28,25,false,0.22000000000000008,ll,keypress(f),0,false,1261384.6999998093,1261384.5,1257990.3,1257994.899999857,1258007.016,1261396.964,5,600,28,
break,html.Screen,10_27_1,2023-11-30T17:53:50.831Z,,,,,,,,,,,NaN,,,,,,,,low,high,,,,,,,false,,,,,false,1261385,1261385,,1261384.7999999523,,1261396.964,5,600,,
break_continue,html.Screen,10_27_2,2023-11-30T17:53:50.831Z,,,,,,,,,,,NaN,,,,,,,,low,high,,,,,,,false,,,,,false,1261385.1999998093,1261385.0999999046,,1261385.0999999046,,1261396.964,5,600,,
sequence,flow.Sequence,10_27,2023-11-30T17:53:50.831Z,,,,,,,,,,,3378.083999904571,completion,,,,,,,low,high,,,,,,,false,,,,,false,1261385.2999999523,1261385.0999999046,1257990.3,1257994.899999857,1258007.016,1261396.964,5,600,,
trial,html.Screen,10_28_0,2023-11-30T17:54:01.647Z,,,,1,-0.0109416414475118,-0.005246498750811,,0.04,false,hl,10803.635999904713,response,0.930804711032185,1.1022058963179453,-0.957518088848649,-0.7294067991476295,1.0304637900928462,-0.8601205439556064,high,low,,ISIC_0064279.JPG,9,ISIC_5067317.JPG,28,25,false,0.22000000000000008,hh,keypress(i),0,false,1272200.6999998093,1272200.5999999046,1261380.239,1261385.399999857,1261396.964,1272219.52,5,600,29,
break,html.Screen,10_28_1,2023-11-30T17:54:01.647Z,,,,,,,,,,,NaN,,,,,,,,high,low,,,,,,,false,,,,,false,1272201,1272200.899999857,,1272200.7999999523,,1272219.52,5,600,,
break_continue,html.Screen,10_28_2,2023-11-30T17:54:01.647Z,,,,,,,,,,,NaN,,,,,,,,high,low,,,,,,,false,,,,,false,1272201.0999999046,1272201.0999999046,,1272201,,1272219.52,5,600,,
sequence,flow.Sequence,10_28,2023-11-30T17:54:01.647Z,,,,,,,,,,,10804.135999904713,completion,,,,,,,high,low,,,,,,,false,,,,,false,1272201.1999998093,1272201.0999999046,1261380.239,1261385.399999857,1261396.964,1272219.52,5,600,,
trial,html.Screen,10_29_0,2023-11-30T17:54:09.023Z,,,,1,0.0257631352671967,0.0202837002774028,,0.04,false,hh,7357.1799998092465,response,1.0161855018674797,1.1022058963179453,-0.957518088848649,1.1331366334676347,1.0304637900928462,-0.8601205439556064,high,high,,ISIC_0032797.JPG,8,ISIC_3521671.JPG,28,28,false,0.11,lh,keypress(e),0,false,1279576.7999999523,1279576.6999998093,1272184.702,1272201.1999998093,1272219.52,1279582.338,5,600,30,
break,html.Screen,10_29_1,2023-11-30T17:54:09.024Z,,,,,,,,,,,NaN,,,,,,,,high,high,,,,,,,false,,,,,false,1279577.5,1279577.2999999523,,1279577,,1279582.338,5,600,,
break_continue,html.Screen,10_29_2,2023-11-30T17:54:09.024Z,,,,,,,,,,,NaN,,,,,,,,high,high,,,,,,,false,,,,,false,1279577.899999857,1279577.6999998093,,1279577.5999999046,,1279582.338,5,600,,
sequence,flow.Sequence,10_29,2023-11-30T17:54:09.024Z,,,,,,,,,,,7358.1799998092465,completion,,,,,,,high,high,,,,,,,false,,,,,false,1279578,1279577.6999998093,1272184.702,1272201.1999998093,1272219.52,1279582.338,5,600,,
trial,html.Screen,10_30_0,2023-11-30T17:54:14.327Z,,,,1,0.0258224118104549,-0.0029364553353019,,0.04,false,lh,5298.261999904644,response,-1.0685314915436992,1.1022058963179453,-0.957518088848649,0.8203833713472237,1.0304637900928462,-0.8601205439556064,low,high,,ISIC_8325226.JPG,9,ISIC_0029374.JPG,28,25,false,0.22000000000000008,hh,keypress(i),0,false,1284880.6999998093,1284880.5999999046,1279565.785,1279578.0999999046,1279582.338,1284892.689,5,600,31,
break,html.Screen,10_30_1,2023-11-30T17:54:14.327Z,,,,,,,,,,,NaN,,,,,,,,low,high,,,,,,,false,,,,,false,1284881.0999999046,1284881,,1284880.7999999523,,1284892.689,5,600,,
break_continue,html.Screen,10_30_2,2023-11-30T17:54:14.328Z,,,,,,,,,,,NaN,,,,,,,,low,high,,,,,,,false,,,,,false,1284881.2999999523,1284881.2999999523,,1284881.0999999046,,1284892.689,5,600,,
sequence,flow.Sequence,10_30,2023-11-30T17:54:14.328Z,,,,,,,,,,,5298.9619999523275,completion,,,,,,,low,high,,,,,,,false,,,,,false,1284881.399999857,1284881.2999999523,1279565.785,1279578.0999999046,1279582.338,1284892.689,5,600,,
trial,html.Screen,10_31_0,2023-11-30T17:54:18.126Z,,,,1,0.0076984477620101,0.0069458408496562,,0.04,true,ll,3787.510999809252,response,-0.9179483069507334,1.1022058963179453,-0.957518088848649,-0.8157414137646586,1.0304637900928462,-0.8601205439556064,low,low,,ISIC_0000434.JPG,9,ISIC_0032892.JPG,28,41,false,0.1,ll,keypress(f),0,false,1288680.1999998093,1288680.1999998093,1284875.916,1284881.5,1284892.689,1288683.327,5,600,32,
break,html.Screen,10_31_1,2023-11-30T17:54:18.127Z,,,,,,,,,,,NaN,,,,,,,,low,low,,,,,,,false,,,,,false,1288680.5999999046,1288680.5,,1288680.399999857,,1288683.327,5,600,,
break_continue,html.Screen,10_31_2,2023-11-30T17:54:18.127Z,,,,,,,,,,,NaN,,,,,,,,low,low,,,,,,,false,,,,,false,1288680.7999999523,1288680.6999998093,,1288680.6999998093,,1288683.327,5,600,,
sequence,flow.Sequence,10_31,2023-11-30T17:54:18.127Z,,,,,,,,,,,3788.010999809252,completion,,,,,,,low,low,,,,,,,false,,,,,false,1288680.899999857,1288680.6999998093,1284875.916,1284881.5,1284892.689,1288683.327,5,600,,
trial,html.Screen,10_32_0,2023-11-30T17:54:22.623Z,,,,1,0.0009714874637896,-0.0174815595031679,,0.04,false,ll,4493.672999999952,response,-0.9737567085091248,1.1022058963179453,-0.957518088848649,-0.9013996680304692,1.0304637900928462,-0.8601205439556064,low,low,,ISIC_9848743.JPG,9,ISIC_2483825.JPG,28,41,false,0.1,hl,keypress(j),0,false,1293177.0999999046,1293177,1288666.772,1288680.899999857,1288683.327,1293192.095,5,600,33,
break,html.Screen,10_32_1,2023-11-30T17:54:22.624Z,,,,,,,,,,,NaN,,,,,,,,low,low,,,,,,,false,,,,,false,1293177.899999857,1293177.6999998093,,1293177.399999857,,1293192.095,5,600,,
break_continue,html.Screen,10_32_2,2023-11-30T17:54:22.625Z,,,,,,,,,,,NaN,,,,,,,,low,low,,,,,,,false,,,,,false,1293178.399999857,1293178.1999998093,,1293178,,1293192.095,5,600,,
sequence,flow.Sequence,10_32,2023-11-30T17:54:22.625Z,,,,,,,,,,,4494.872999809217,completion,,,,,,,low,low,,,,,,,false,,,,,false,1293178.5999999046,1293178.1999998093,1288666.772,1288680.899999857,1288683.327,1293192.095,5,600,,
trial,html.Screen,10_33_0,2023-11-30T17:54:28.687Z,,,,1,0.0119001144851157,-0.0063430114540141,,0.04,false,hl,6048.405000000028,response,0.930804711032185,1.1022058963179453,-0.957518088848649,-0.7294067991476295,1.0304637900928462,-0.8601205439556064,high,low,,ISIC_0003822.JPG,8,ISIC_5067317.JPG,28,25,false,0.22000000000000008,ll,keypress(f),0,false,1299240.5999999046,1299240.5,1293175.609,1293178.7999999523,1293192.095,1299253.902,5,600,34,
break,html.Screen,10_33_1,2023-11-30T17:54:28.687Z,,,,,,,,,,,NaN,,,,,,,,high,low,,,,,,,false,,,,,false,1299241,1299240.899999857,,1299240.6999998093,,1299253.902,5,600,,
break_continue,html.Screen,10_33_2,2023-11-30T17:54:28.688Z,,,,,,,,,,,NaN,,,,,,,,high,low,,,,,,,false,,,,,false,1299241.399999857,1299241.2999999523,,1299241.1999998093,,1299253.902,5,600,,
sequence,flow.Sequence,10_33,2023-11-30T17:54:28.688Z,,,,,,,,,,,6049.204999952344,completion,,,,,,,high,low,,,,,,,false,,,,,false,1299241.5,1299241.2999999523,1293175.609,1293178.6999998093,1293192.095,1299253.902,5,600,,
trial,html.Screen,10_34_0,2023-11-30T17:54:36.303Z,,,,1,0.0367706518941078,-0.0161069838272154,,0.04,false,lh,7602.897999952314,response,-0.8067116931297591,1.1022058963179453,-0.957518088848649,1.215898074058027,1.0304637900928462,-0.8601205439556064,low,high,,ISIC_0033419.JPG,8,ISIC_1457687.JPG,28,25,false,0.22000000000000008,hh,keypress(i),0,false,1306857,1306856.7999999523,1299237.445,1299241.5,1299253.902,1306868.737,5,600,35,
break,html.Screen,10_34_1,2023-11-30T17:54:36.304Z,,,,,,,,,,,NaN,,,,,,,,low,high,,,,,,,false,,,,,false,1306857.5999999046,1306857.399999857,,1306857.0999999046,,1306868.737,5,600,,
break_continue,html.Screen,10_34_2,2023-11-30T17:54:36.304Z,,,,,,,,,,,NaN,,,,,,,,low,high,,,,,,,false,,,,,false,1306857.899999857,1306857.6999998093,,1306857.5999999046,,1306868.737,5,600,,
sequence,flow.Sequence,10_34,2023-11-30T17:54:36.304Z,,,,,,,,,,,7603.797999809263,completion,,,,,,,low,high,,,,,,,false,,,,,false,1306858,1306857.6999998093,1299237.445,1299241.5,1299253.902,1306868.737,5,600,,
trial,html.Screen,10_35_0,2023-11-30T17:54:42.359Z,,,,1,-0.0198696495649504,0.0387952353063878,,0.04,false,lh,6043.9629998093005,response,-1.0685314915436992,1.1022058963179453,-0.957518088848649,0.8203833713472237,1.0304637900928462,-0.8601205439556064,low,high,,ISIC_6735970.JPG,9,ISIC_0029374.JPG,28,25,false,0.22000000000000008,ll,keypress(f),0,false,1312912.7999999523,1312912.6999998093,1306852.118,1306858.0999999046,1306868.737,1312930.84,5,600,36,
break,html.Screen,10_35_1,2023-11-30T17:54:42.359Z,,,,,,,,,,,NaN,,,,,,,,low,high,,,,,,,false,,,,,false,1312913.1999998093,1312913.0999999046,,1312912.899999857,,1312930.84,5,600,,
break_continue,html.Screen,10_35_2,2023-11-30T17:54:42.360Z,,,,,,,,,,,NaN,,,,,,,,low,high,,,,,,,false,,,,,false,1312913.399999857,1312913.2999999523,,1312913.1999998093,,1312930.84,5,600,,
sequence,flow.Sequence,10_35,2023-11-30T17:54:42.360Z,,,,,,,,,,,6044.562999952352,completion,,,,,,,low,high,,,,,,,false,,,,,false,1312913.5,1312913.2999999523,1306852.118,1306858.0999999046,1306868.737,1312930.84,5,600,,
trial,html.Screen,10_36_0,2023-11-30T17:54:47.911Z,,,,1,0.0119001144851157,-0.0063430114540141,,0.04,true,ll,5533.659999999916,response,-1.013670467344924,1.1022058963179453,-0.957518088848649,-0.8383919586371591,1.0304637900928462,-0.8601205439556064,low,low,,ISIC_0003822.JPG,9,ISIC_0014541.JPG,28,41,false,0.1,ll,keypress(f),0,false,1318464.5999999046,1318464.5,1312897.153,1312913.5999999046,1312930.84,1318474.62,5,600,37,
break,html.Screen,10_36_1,2023-11-30T17:54:47.911Z,,,,,,,,,,,NaN,,,,,,,,low,low,,,,,,,false,,,,,false,1318464.899999857,1318464.899999857,,1318464.7999999523,,1318474.62,5,600,,
break_continue,html.Screen,10_36_2,2023-11-30T17:54:47.911Z,,,,,,,,,,,NaN,,,,,,,,low,low,,,,,,,false,,,,,false,1318465.0999999046,1318465.0999999046,,1318465,,1318474.62,5,600,,
sequence,flow.Sequence,10_36,2023-11-30T17:54:47.911Z,,,,,,,,,,,5534.259999904549,completion,,,,,,,low,low,,,,,,,false,,,,,false,1318465.1999998093,1318465.0999999046,1312897.153,1312913.5999999046,1312930.84,1318474.62,5,600,,
trial,html.Screen,10_37_0,2023-11-30T17:54:52.606Z,,,,1,-0.039520186367207,-0.0377961575607372,,0.04,false,lh,4685.579999809153,response,-0.8067116931297591,1.1022058963179453,-0.957518088848649,1.215898074058027,1.0304637900928462,-0.8601205439556064,low,high,,ISIC_6356149.JPG,9,ISIC_1457687.JPG,28,25,false,0.22000000000000008,hh,keypress(i),0,false,1323160.1999998093,1323160.1999998093,1318457.882,1318465.2999999523,1318474.62,1323167.096,5,600,38,
