sender,sender_type,sender_id,timestamp,meta,,age,blockNo,c1,c2,condition,control_tolerance,correct,correctResponse,duration,ended_on,f1,f1_high,f1_low,f2,f2_high,f2_low,feature_level1,feature_level2,gender,img_left,img_reveal,img_right,n_control_images,n_target_images,practice,range_tolerance,response,response_action,selection_duration,staircase,time_commit,time_end,time_render,time_run,time_show,time_switch,total_blocks,total_trials,trialNo,url
informed_consent,html.Screen,0,2023-11-30T19:33:24.180Z,"{""labjs_version"":""20.2.4"",""labjs_build"":{""flavor"":""development"",""commit"":""f5b4a49f956347addd546a832a3327688c2c0fef""},""location"":""https://labjs.felixhenninger.com/api/labjs_preview/index.html"",""userAgent"":""Mozilla/5.0 (Windows NT 10.0; Win64; x64) AppleWebKit/537.36 (KHTML, like Gecko) Chrome/119.0.0.0 Safari/537.36"",""platform"":""Win32"",""language"":""en-US"",""locale"":""en-US"",""timeZone"":""America/Chicago"",""timezoneOffset"":360,""screen_width"":1680,""screen_height"":1050,""scroll_width"":1680,""scroll_height"":1002,""window_innerWidth"":1680,""window_innerHeight"":1050,""devicePixelRatio"":1}",,,,,,,,,,12339.629000143052,response,,,,,,,,,,,,,,,,,continue,keypress(Space),,,12883.700000047684,12875.100000143051,518.794,532.7999999523163,535.471,12893.729,,,,{}
Demography form,html.Form,1,2023-11-30T19:33:34.980Z,,,18,,,,,,,,10790.171000095368,form submission,,,,,,,,,male,,,,,,,,,,,,23684,23683.900000095367,12859.404,12883.900000095367,12893.729,23697.243,,,,
Welcome,html.Screen,2,2023-11-30T19:34:01.958Z,,,,,,,"[""bor"",""col""]",,,,26961.957000047685,response,,,,,,,,,,,,,,,,,continue,click button,,,50659.700000047684,50659.200000047684,23680.498,23684.10000014305,23697.243,50666.335,,,,
demo_instructions,html.Screen,3,2023-11-30T19:34:23.694Z,,,,,,,,,,,21728.765000143052,response,,,,,,,,,,,,,,,,,continue,click button,,,72395.70000004768,72395.10000014305,50649.668,50659.799999952316,50666.335,72408.683,,,,
trial,html.Screen,4_0_0,2023-11-30T19:34:37.772Z,,,,0,-1.2194553326562725,-1.2381726989215684,,,true,hh,14062.717000095363,response,1.1870093485714288,1.2,-1.2,1.3339880978442629,1.2,-1.2,high,high,,ISIC_0068975.JPG,,ISIC_8592235.JPG,,25,true,0.14,hh,keypress(i),100,false,86471.70000004768,86471.40000009537,72392.178,72395.90000009537,72408.683,86502.724,1,16,1,
sequence,flow.Sequence,4_0,2023-11-30T19:34:37.772Z,,,,,,,,,,,14062.717000095363,completion,,,,,,,high,high,,,,,,,true,,,,,false,86472.29999995232,86471.40000009537,72392.178,72395.90000009537,72408.683,86502.724,1,16,,
trial,html.Screen,4_1_0,2023-11-30T19:34:43.530Z,,,,0,-1.1048559518249943,-1.2252457981338687,,,true,hh,5726.775999999998,response,1.2804054832904397,1.2,-1.2,1.171271535505083,1.2,-1.2,high,high,,ISIC_0060817.JPG,,ISIC_7889838.JPG,,25,true,0.14,hh,keypress(i),100,false,92229.70000004768,92229.5,86486.149,86472.5,86502.724,92247.403,1,16,2,
sequence,flow.Sequence,4_1,2023-11-30T19:34:43.530Z,,,,,,,,,,,5726.775999999998,completion,,,,,,,high,high,,,,,,,true,,,,,false,92230,92229.5,86486.149,86472.5,86502.724,92247.403,1,16,,
trial,html.Screen,4_2_0,2023-11-30T19:34:49.797Z,,,,0,-1.0769708994456726,-1.2196503533725178,,,true,hh,6249.197000143045,response,1.0659165756604234,1.2,-1.2,1.0867497316848906,1.2,-1.2,high,high,,ISIC_0063824.JPG,,ISIC_5807608.JPG,,25,true,0.14,hh,keypress(i),100,false,98496.79999995232,98496.60000014305,92230.517,92230.20000004768,92247.403,98526.093,1,16,3,
sequence,flow.Sequence,4_2,2023-11-30T19:34:49.797Z,,,,,,,,,,,6249.197000143045,completion,,,,,,,high,high,,,,,,,true,,,,,false,98496.90000009537,98496.60000014305,92230.517,92230.10000014305,92247.403,98526.093,1,16,,
trial,html.Screen,4_3_0,2023-11-30T19:34:56.171Z,,,,0,-1.2118207001489876,-1.3164676315545727,,,true,hh,6344.10700004769,response,1.2804054832904397,1.2,-1.2,1.171271535505083,1.2,-1.2,high,high,,ISIC_0066476.JPG,,ISIC_7889838.JPG,,25,true,0.14,hh,keypress(i),100,false,104870.40000009537,104870.20000004768,98509.625,98496.90000009537,98526.093,104888.616,1,16,4,
sequence,flow.Sequence,4_3,2023-11-30T19:34:56.171Z,,,,,,,,,,,6344.10700004769,completion,,,,,,,high,high,,,,,,,true,,,,,false,104870.70000004768,104870.20000004768,98509.625,98496.90000009537,98526.093,104888.616,1,16,,
trial,html.Screen,4_4_0,2023-11-30T19:35:05.880Z,,,,0,1.2246024683501224,1.2904526351590244,,,true,ll,9690.683999952322,response,-1.1195710731537871,1.2,-1.2,-1.1961732733209125,1.2,-1.2,low,low,,ISIC_4730066.JPG,,ISIC_0067170.JPG,,30,true,0.13,ll,keypress(f),100,false,114579.5,114579.29999995232,104871.784,104870.90000009537,104888.616,114607.547,1,16,5,
sequence,flow.Sequence,4_4,2023-11-30T19:35:05.880Z,,,,,,,,,,,9690.683999952322,completion,,,,,,,low,low,,,,,,,true,,,,,false,114579.70000004768,114579.29999995232,104871.784,104870.90000009537,104888.616,114607.547,1,16,,
trial,html.Screen,4_5_0,2023-11-30T19:35:11.053Z,,,,0,1.0943527860463682,1.124481746658104,,,true,ll,5144.952999999994,response,-1.0773466327271526,1.2,-1.2,-1.1601445610079184,1.2,-1.2,low,low,,ISIC_0438136.JPG,,ISIC_0055169.JPG,,40,true,0.14,ll,keypress(f),100,false,119752.60000014305,119752.5,114590.931,114579.79999995232,114607.547,119784.274,1,16,6,
sequence,flow.Sequence,4_5,2023-11-30T19:35:11.053Z,,,,,,,,,,,5144.952999999994,completion,,,,,,,low,low,,,,,,,true,,,,,false,119752.79999995232,119752.5,114590.931,114579.70000004768,114607.547,119784.274,1,16,,
trial,html.Screen,4_6_0,2023-11-30T19:35:15.298Z,,,,0,1.160746324899676,1.1927876559115576,,,true,ll,4213.725999999995,response,-1.063036912656269,1.2,-1.2,-1.1534875859179432,1.2,-1.2,low,low,,ISIC_8651053.JPG,,ISIC_0010772.JPG,,40,true,0.14,ll,keypress(f),100,false,123998.20000004768,123998,119767.631,119752.90000009537,119784.274,124025.692,1,16,7,
sequence,flow.Sequence,4_6,2023-11-30T19:35:15.299Z,,,,,,,,,,,4213.725999999995,completion,,,,,,,low,low,,,,,,,true,,,,,false,123998.5,123998,119767.631,119752.90000009537,119784.274,124025.692,1,16,,
trial,html.Screen,4_7_0,2023-11-30T19:35:20.044Z,,,,0,1.160746324899676,1.1927876559115576,,,true,ll,4717.708000095372,response,-1.2118207001489876,1.2,-1.2,-1.3164676315545727,1.2,-1.2,low,low,,ISIC_8651053.JPG,,ISIC_0066476.JPG,,40,true,0.14,ll,keypress(f),100,false,128743.60000014305,128743.40000009537,124009.002,123998.70000004768,124025.692,128768.234,1,16,8,
sequence,flow.Sequence,4_7,2023-11-30T19:35:20.044Z,,,,,,,,,,,4717.708000095372,completion,,,,,,,low,low,,,,,,,true,,,,,false,128743.79999995232,128743.40000009537,124009.002,123998.60000014305,124025.692,128768.234,1,16,,
trial,html.Screen,4_8_0,2023-11-30T19:35:55.370Z,,,,0,0.8034318937720549,-1.0024917298189338,,,true,lh,35299.96600004769,response,-0.8307508446051526,1.2,-1.2,1.1707575338936729,1.2,-1.2,low,high,,ISIC_0032766.JPG,,ISIC_0028606.JPG,,27,true,0.40000000000000024,lh,keypress(e),100,false,164068.40000009537,164068.20000004768,128751.58,128743.90000009537,128768.234,164086.927,1,16,9,
sequence,flow.Sequence,4_8,2023-11-30T19:35:55.370Z,,,,,,,,,,,35299.96600004769,completion,,,,,,,low,high,,,,,,,true,,,,,false,164068.60000014305,164068.20000004768,128751.58,128743.90000009537,128768.234,164086.927,1,16,,
trial,html.Screen,4_9_0,2023-11-30T19:35:59.998Z,,,,0,0.8110121381849364,-0.7563142141851558,,,true,lh,4609.473000095371,response,-1.168911077628813,1.2,-1.2,1.2181838235193114,1.2,-1.2,low,high,,ISIC_0033605.JPG,,ISIC_7358691.JPG,,40,true,0.4500000000000003,lh,keypress(e),100,false,168696.70000004768,168696.40000009537,164070.25,164068.70000004768,164086.927,168712.583,1,16,10,
sequence,flow.Sequence,4_9,2023-11-30T19:35:59.999Z,,,,,,,,,,,4609.473000095371,completion,,,,,,,low,high,,,,,,,true,,,,,false,168697.10000014305,168696.40000009537,164070.25,164068.60000014305,164086.927,168712.583,1,16,,
trial,html.Screen,4_10_0,2023-11-30T19:36:02.256Z,,,,0,0.9653573371180936,-0.854766800381037,,,true,lh,2241.1170000476704,response,-1.0153439398566937,1.2,-1.2,0.93001438372942,1.2,-1.2,low,high,,ISIC_9640145.JPG,,ISIC_8211214.JPG,,40,true,0.4500000000000003,lh,keypress(e),100,false,170953.70000004768,170953.70000004768,168696.029,168697.29999995232,168712.583,170983.894,1,16,11,
sequence,flow.Sequence,4_10,2023-11-30T19:36:02.256Z,,,,,,,,,,,2241.1170000476704,completion,,,,,,,low,high,,,,,,,true,,,,,false,170954,170953.70000004768,168696.029,168697.29999995232,168712.583,170983.894,1,16,,
trial,html.Screen,4_11_0,2023-11-30T19:36:04.064Z,,,,0,1.0453124399868816,-0.8986747280184286,,,true,lh,1778.3060000476835,response,-0.9244148283103414,1.2,-1.2,0.9712966348713286,1.2,-1.2,low,high,,ISIC_0013967.JPG,,ISIC_7927525.JPG,,40,true,0.4500000000000003,lh,keypress(e),100,false,172762.29999995232,172762.20000004768,170966.998,170954,170983.894,172787.266,1,16,12,
sequence,flow.Sequence,4_11,2023-11-30T19:36:04.064Z,,,,,,,,,,,1778.3060000476835,completion,,,,,,,low,high,,,,,,,true,,,,,false,172762.5,172762.20000004768,170966.998,170954,170983.894,172787.266,1,16,,
trial,html.Screen,4_12_0,2023-11-30T19:36:09.473Z,,,,0,-1.2594580992890123,0.8833175387485132,,,true,hl,5383.533999952313,response,1.2362557973341337,1.2,-1.2,-1.2548266183352603,1.2,-1.2,high,low,,ISIC_0011933.JPG,,ISIC_0033886.JPG,,26,true,0.4500000000000003,hl,keypress(j),100,false,178171,178170.79999995232,172770.499,172762.5,172787.266,178197.889,1,16,13,
sequence,flow.Sequence,4_12,2023-11-30T19:36:09.473Z,,,,,,,,,,,5383.533999952313,completion,,,,,,,high,low,,,,,,,true,,,,,false,178171.20000004768,178170.79999995232,172770.499,172762.5,172787.266,178197.889,1,16,,
trial,html.Screen,4_13_0,2023-11-30T19:36:16.419Z,,,,0,-0.9617893983965208,0.9453006131304652,,,true,hl,6919.611000000004,response,0.7991459998473059,1.2,-1.2,-1.0280788723474688,1.2,-1.2,high,low,,ISIC_4229473.JPG,,ISIC_7951202.JPG,,26,true,0.4500000000000003,hl,keypress(j),100,false,185117.60000014305,185117.5,178181.033,178171.29999995232,178197.889,185144.583,1,16,14,
sequence,flow.Sequence,4_13,2023-11-30T19:36:16.420Z,,,,,,,,,,,6919.611000000004,completion,,,,,,,high,low,,,,,,,true,,,,,false,185117.79999995232,185117.5,178181.033,178171.20000004768,178197.889,185144.583,1,16,,
trial,html.Screen,4_14_0,2023-11-30T19:36:20.262Z,,,,0,-0.90812608370647,1.2720026872926935,,,true,hl,3815.216999952303,response,0.989300717252516,1.2,-1.2,-0.7908280206937478,1.2,-1.2,high,low,,ISIC_0450295.JPG,,ISIC_6416533.JPG,,26,true,0.4500000000000003,hl,keypress(j),100,false,188960.20000004768,188959.79999995232,185127.877,185117.90000009537,185144.583,188985.383,1,16,15,
sequence,flow.Sequence,4_14,2023-11-30T19:36:20.263Z,,,,,,,,,,,3815.216999952303,completion,,,,,,,high,low,,,,,,,true,,,,,false,188960.79999995232,188959.79999995232,185127.877,185117.90000009537,185144.583,188985.383,1,16,,
trial,html.Screen,4_15_0,2023-11-30T19:36:22.169Z,,,,0,-1.2081146885025262,1.195668832085049,,,true,hl,1882.0170000953658,response,1.2578167348825195,1.2,-1.2,-0.8371819698254004,1.2,-1.2,high,low,,ISIC_7369690.JPG,,ISIC_9613570.JPG,,26,true,0.4500000000000003,hl,keypress(j),100,false,190867.60000014305,190867.40000009537,188968.747,188961.10000014305,188985.383,190889.315,1,16,16,
sequence,flow.Sequence,4_15,2023-11-30T19:36:22.170Z,,,,,,,,,,,1882.0170000953658,completion,,,,,,,high,low,,,,,,,true,,,,,false,190867.90000009537,190867.40000009537,188968.747,188961.10000014305,188985.383,190889.315,1,16,,
demonstration_loop,flow.Loop,4,2023-11-30T19:36:22.170Z,,,,,,,,,,,118458.71700009536,completion,,,,,,,,,,,,,,,true,,,,,false,190868.10000014305,190867.40000009537,72392.178,72395.90000009537,72408.683,190889.315,1,16,,
practice_instructions,html.Screen,5,2023-11-30T19:36:38.155Z,,,,,,,,,,,15953.585000095365,response,,,,,,,,,,,,,,,,,continue,click button,,,206851.70000004768,206842.90000009537,190872.378,190868.20000004768,190889.315,206870.132,,,,
trial,html.Screen,6_0_0,2023-11-30T19:36:54.156Z,,,,1,-0.8500530224490773,1.0893360711742854,,,,,16014.747999999992,timeout,0.8472024037189965,1.2,-1.2,-0.986370061404882,1.2,-1.2,high,low,,ISIC_2998367.JPG,,ISIC_0054355.JPG,,26,true,0.4500000000000003,,,0,false,222852.79999995232,222852.60000014305,206853.461,206851.90000009537,206870.132,222884.88,1,40,1,
sequence,flow.Sequence,6_0,2023-11-30T19:36:54.156Z,,,,,,,,,,,15982.468000143039,completion,,,,,,,high,low,,,,,,,true,,,,,false,222853,222852.60000014305,206853.461,206851.79999995232,206870.132,222884.88,1,40,,
trial,html.Screen,6_1_0,2023-11-30T19:36:59.259Z,,,,1,-0.8047295996345292,1.551750455622795,,,false,hl,5071.020000095363,response,0.8830264383952469,1.2,-1.2,-0.8635562538060516,1.2,-1.2,high,low,,ISIC_7717907.JPG,,ISIC_0032258.JPG,,26,true,0.4500000000000003,hh,keypress(i),0,false,227956,227955.90000009537,222867.912,222853,222884.88,227977.866,1,40,2,
sequence,flow.Sequence,6_1,2023-11-30T19:36:59.259Z,,,,,,,,,,,5071.020000095363,completion,,,,,,,high,low,,,,,,,true,,,,,false,227956.10000014305,227955.90000009537,222867.912,222853,222884.88,227977.866,1,40,,
trial,html.Screen,6_2_0,2023-11-30T19:37:04.939Z,,,,1,1.109799097093339,1.091507924157762,,,false,ll,5657.834000047675,response,-1.4622927933739749,1.2,-1.2,-1.2251845559044463,1.2,-1.2,low,low,,ISIC_0765584.JPG,,ISIC_0011957.JPG,,288,true,0.40000000000000024,hl,keypress(j),0,false,233635.90000009537,233635.70000004768,227961.149,227956.20000004768,227977.866,233638.871,1,40,3,
sequence,flow.Sequence,6_2,2023-11-30T19:37:04.939Z,,,,,,,,,,,5657.834000047675,completion,,,,,,,low,low,,,,,,,true,,,,,false,233636.10000014305,233635.70000004768,227961.149,227956.20000004768,227977.866,233638.871,1,40,,
trial,html.Screen,6_3_0,2023-11-30T19:37:14.979Z,,,,1,1.109799097093339,1.091507924157762,,,false,ll,10036.729000143037,response,-1.0865209011322887,1.2,-1.2,-1.1401461171952545,1.2,-1.2,low,low,,ISIC_0765584.JPG,,ISIC_0016145.JPG,,40,true,0.14,hl,keypress(j),0,false,243675.79999995232,243675.60000014305,233622.12,233636.10000014305,233638.871,243691.736,1,40,4,
sequence,flow.Sequence,6_3,2023-11-30T19:37:14.979Z,,,,,,,,,,,10036.729000143037,completion,,,,,,,low,low,,,,,,,true,,,,,false,243675.90000009537,243675.60000014305,233622.12,233636.10000014305,233638.871,243691.736,1,40,,
trial,html.Screen,6_4_0,2023-11-30T19:37:25.219Z,,,,1,0.8828738626295417,-0.8288177599439582,,,true,lh,10224.164000095363,response,-1.0788024398087033,1.2,-1.2,0.9911875460374616,1.2,-1.2,low,high,,ISIC_0056041.JPG,,ISIC_5951430.JPG,,27,true,0.40000000000000024,lh,keypress(e),0,false,253916.10000014305,253915.90000009537,243675.185,243676,243691.736,253928.358,1,40,5,
sequence,flow.Sequence,6_4,2023-11-30T19:37:25.219Z,,,,,,,,,,,10224.164000095363,completion,,,,,,,low,high,,,,,,,true,,,,,false,253916.40000009537,253915.90000009537,243675.185,243676,243691.736,253928.358,1,40,,
trial,html.Screen,6_5_0,2023-11-30T19:37:34.635Z,,,,1,-1.1117876838408909,-1.2957497771092716,,,true,hh,9403.342000047676,response,1.0008081653938232,1.2,-1.2,0.7832040253954599,1.2,-1.2,high,high,,ISIC_0061915.JPG,,ISIC_8796632.JPG,,265,true,0.4500000000000003,hh,keypress(i),0,false,263331.7999999523,263331.7000000477,253911.761,253916.5,253928.358,263346.635,1,40,6,
sequence,flow.Sequence,6_5,2023-11-30T19:37:34.635Z,,,,,,,,,,,9403.342000047676,completion,,,,,,,high,high,,,,,,,true,,,,,false,263332,263331.7000000477,253911.761,253916.5,253928.358,263346.635,1,40,,
trial,html.Screen,6_6_0,2023-11-30T19:37:42.325Z,,,,1,-0.9617893983965208,0.9453006131304652,,,true,hl,7672.765000095358,response,0.8828738626295417,1.2,-1.2,-0.8288177599439582,1.2,-1.2,high,low,,ISIC_4229473.JPG,,ISIC_0056041.JPG,,26,true,0.4500000000000003,hl,keypress(j),0,false,271019.60000014305,271019.40000009537,263329.938,263332.10000014305,263346.635,271028.305,1,40,7,
sequence,flow.Sequence,6_6,2023-11-30T19:37:42.325Z,,,,,,,,,,,7672.765000095358,completion,,,,,,,high,low,,,,,,,true,,,,,false,271019.7000000477,271019.40000009537,263329.938,263332.10000014305,263346.635,271028.305,1,40,,
trial,html.Screen,6_7_0,2023-11-30T19:37:51.637Z,,,,1,1.2100527057059796,1.2159112471537263,,,true,ll,9303.595000095374,response,-1.0349570401423522,1.2,-1.2,-1.0363323665817852,1.2,-1.2,low,low,,ISIC_0008055.JPG,,ISIC_0030107.JPG,,288,true,0.40000000000000024,ll,keypress(f),0,false,280332.10000014305,280331.90000009537,271011.606,271019.7000000477,271028.305,280346.396,1,40,8,
sequence,flow.Sequence,6_7,2023-11-30T19:37:51.637Z,,,,,,,,,,,9303.595000095374,completion,,,,,,,low,low,,,,,,,true,,,,,false,280332.40000009537,280331.90000009537,271011.606,271019.7000000477,271028.305,280346.396,1,40,,
trial,html.Screen,6_8_0,2023-11-30T19:38:01.484Z,,,,1,1.2724293858920366,1.149360738769835,,,true,ll,9833.00400009536,response,-1.1243896694621007,1.2,-1.2,-1.1772340944704969,1.2,-1.2,low,low,,ISIC_1264725.JPG,,ISIC_0062765.JPG,,40,true,0.14,ll,keypress(f),0,false,290179.5,290179.40000009537,280329.703,280332.5,280346.396,290182.148,1,40,9,
sequence,flow.Sequence,6_8,2023-11-30T19:38:01.485Z,,,,,,,,,,,9833.00400009536,completion,,,,,,,low,low,,,,,,,true,,,,,false,290179.60000014305,290179.40000009537,280329.703,280332.5,280346.396,290182.148,1,40,,
trial,html.Screen,6_9_0,2023-11-30T19:38:09.837Z,,,,1,-1.1746004947382946,-1.2207657619249948,,,true,hh,8349.452000143065,response,1.1409143352872226,1.2,-1.2,1.1323007949069106,1.2,-1.2,high,high,,ISIC_0012069.JPG,,ISIC_0030291.JPG,,25,true,0.14,hh,keypress(i),0,false,298531.60000014305,298531.60000014305,290165.606,290179.7000000477,290182.148,298548.422,1,40,10,
sequence,flow.Sequence,6_9,2023-11-30T19:38:09.837Z,,,,,,,,,,,8349.452000143065,completion,,,,,,,high,high,,,,,,,true,,,,,false,298531.90000009537,298531.60000014305,290165.606,290179.7000000477,290182.148,298548.422,1,40,,
trial,html.Screen,6_10_0,2023-11-30T19:38:20.892Z,,,,1,1.2362557973341337,-1.2548266183352603,,,true,lh,11038.978000095347,response,-0.9244148283103414,1.2,-1.2,0.9712966348713286,1.2,-1.2,low,high,,ISIC_0033886.JPG,,ISIC_7927525.JPG,,27,true,0.40000000000000024,lh,keypress(e),0,false,309587.5,309587.40000009537,298531.801,298531.90000009537,298548.422,309603.52,1,40,11,
sequence,flow.Sequence,6_10,2023-11-30T19:38:20.893Z,,,,,,,,,,,11038.978000095347,completion,,,,,,,low,high,,,,,,,true,,,,,false,309587.60000014305,309587.40000009537,298531.801,298531.90000009537,298548.422,309603.52,1,40,,
trial,html.Screen,6_11_0,2023-11-30T19:38:26.421Z,,,,1,-1.136677654701082,-1.2647850993872314,,,true,hh,5512.0800001430325,response,0.875032819970805,1.2,-1.2,0.9230722071334148,1.2,-1.2,high,high,,ISIC_0015436.JPG,,ISIC_4568084.JPG,,265,true,0.4500000000000003,hh,keypress(i),0,false,315115.7999999523,315115.60000014305,309586.688,309587.7000000477,309603.52,315147.364,1,40,12,
sequence,flow.Sequence,6_11,2023-11-30T19:38:26.421Z,,,,,,,,,,,5512.0800001430325,completion,,,,,,,high,high,,,,,,,true,,,,,false,315116.10000014305,315115.60000014305,309586.688,309587.7000000477,309603.52,315147.364,1,40,,
trial,html.Screen,6_12_0,2023-11-30T19:38:31.917Z,,,,1,1.199471562817528,-0.8631260534979347,,,true,lh,5464.23600014305,response,-0.8067116931297591,1.2,-1.2,1.215898074058027,1.2,-1.2,low,high,,ISIC_0030754.JPG,,ISIC_1457687.JPG,,27,true,0.40000000000000024,lh,keypress(e),0,false,320611.7999999523,320611.60000014305,315114.068,315116.2999999523,315147.364,320624.714,1,40,13,
sequence,flow.Sequence,6_12,2023-11-30T19:38:31.917Z,,,,,,,,,,,5464.23600014305,completion,,,,,,,low,high,,,,,,,true,,,,,false,320611.90000009537,320611.60000014305,315114.068,315116.2000000477,315147.364,320624.714,1,40,,
trial,html.Screen,6_13_0,2023-11-30T19:38:36.837Z,,,,1,-0.8500530224490773,1.0893360711742854,,,true,hl,4906.986000047706,response,0.7883321712536753,1.2,-1.2,-1.0011430756825364,1.2,-1.2,high,low,,ISIC_2998367.JPG,,ISIC_9828853.JPG,,26,true,0.4500000000000003,hl,keypress(j),0,false,325531.7999999523,325531.7000000477,320608.211,320612,320624.714,325534.281,1,40,14,
sequence,flow.Sequence,6_13,2023-11-30T19:38:36.837Z,,,,,,,,,,,4906.986000047706,completion,,,,,,,high,low,,,,,,,true,,,,,false,325532.2000000477,325531.7000000477,320608.211,320612,320624.714,325534.281,1,40,,
trial,html.Screen,6_14_0,2023-11-30T19:38:45.190Z,,,,1,1.1409143352872226,1.1323007949069106,,,true,ll,8348.919000047666,response,-0.8721011160837115,1.2,-1.2,-0.9005344308932209,1.2,-1.2,low,low,,ISIC_0030291.JPG,,ISIC_0025744.JPG,,288,true,0.40000000000000024,ll,keypress(f),0,false,333883.2999999523,333883.2000000477,325517.751,325532.2999999523,325534.281,333900.512,1,40,15,
sequence,flow.Sequence,6_14,2023-11-30T19:38:45.190Z,,,,,,,,,,,8348.919000047666,completion,,,,,,,low,low,,,,,,,true,,,,,false,333883.40000009537,333883.2000000477,325517.751,325532.2000000477,325534.281,333900.512,1,40,,
trial,html.Screen,6_15_0,2023-11-30T19:38:51.375Z,,,,1,-0.8867328775712738,1.0063426986460375,,,true,hl,6167.488000000012,response,0.8034318937720549,1.2,-1.2,-1.0024917298189338,1.2,-1.2,high,low,,ISIC_0055759.JPG,,ISIC_0032766.JPG,,26,true,0.4500000000000003,hl,keypress(j),0,false,340068.2000000477,340068,333867.237,333883.5,333900.512,340095.905,1,40,16,
sequence,flow.Sequence,6_15,2023-11-30T19:38:51.375Z,,,,,,,,,,,6167.488000000012,completion,,,,,,,high,low,,,,,,,true,,,,,false,340068.5,340068,333867.237,333883.40000009537,333900.512,340095.905,1,40,,
trial,html.Screen,6_16_0,2023-11-30T19:38:57.247Z,,,,1,1.3046390428588206,-0.7942099232219556,,,true,lh,5844.195000143023,response,-1.0153439398566937,1.2,-1.2,0.93001438372942,1.2,-1.2,low,high,,ISIC_0013096.JPG,,ISIC_8211214.JPG,,27,true,0.40000000000000024,lh,keypress(e),0,false,345940.2999999523,345940.10000014305,340062.709,340068.7000000477,340095.905,345957.332,1,40,17,
sequence,flow.Sequence,6_16,2023-11-30T19:38:57.247Z,,,,,,,,,,,5844.195000143023,completion,,,,,,,low,high,,,,,,,true,,,,,false,345940.60000014305,345940.10000014305,340062.709,340068.60000014305,340095.905,345957.332,1,40,,
trial,html.Screen,6_17_0,2023-11-30T19:39:05.262Z,,,,1,1.2600330864275875,1.0958628838888655,,,true,ll,7998.068000095373,response,-1.3670234997974695,1.2,-1.2,-1.1148224246556622,1.2,-1.2,low,low,,ISIC_0026996.JPG,,ISIC_6767569.JPG,,359,true,0.4500000000000003,ll,keypress(f),0,false,353955.60000014305,353955.40000009537,345940.56,345940.7000000477,345957.332,353974.175,1,40,18,
sequence,flow.Sequence,6_17,2023-11-30T19:39:05.262Z,,,,,,,,,,,7998.068000095373,completion,,,,,,,low,low,,,,,,,true,,,,,false,353955.7000000477,353955.40000009537,345940.56,345940.7000000477,345957.332,353974.175,1,40,,
trial,html.Screen,6_18_0,2023-11-30T19:39:10.110Z,,,,1,-1.082709423673037,-1.1184338818466155,,,true,hh,4829.325000000012,response,1.2600330864275875,1.2,-1.2,1.0958628838888655,1.2,-1.2,high,high,,ISIC_0058666.JPG,,ISIC_0026996.JPG,,25,true,0.14,hh,keypress(i),0,false,358803.60000014305,358803.5,353939.556,353955.7999999523,353974.175,358832.334,1,40,19,
sequence,flow.Sequence,6_18,2023-11-30T19:39:10.110Z,,,,,,,,,,,4829.325000000012,completion,,,,,,,high,high,,,,,,,true,,,,,false,358803.7999999523,358803.5,353939.556,353955.7999999523,353974.175,358832.334,1,40,,
trial,html.Screen,6_19_0,2023-11-30T19:39:20.246Z,,,,1,0.7991459998473059,-1.0280788723474688,,,true,lh,10106.965999952343,response,-1.168911077628813,1.2,-1.2,1.2181838235193114,1.2,-1.2,low,high,,ISIC_7951202.JPG,,ISIC_7358691.JPG,,27,true,0.40000000000000024,lh,keypress(e),0,false,368939.40000009537,368939.2999999523,358798.9,358803.7999999523,358832.334,368952.025,1,40,20,
sequence,flow.Sequence,6_19,2023-11-30T19:39:20.246Z,,,,,,,,,,,10106.965999952343,completion,,,,,,,low,high,,,,,,,true,,,,,false,368939.5,368939.2999999523,358798.9,358803.7999999523,358832.334,368952.025,1,40,,
trial,html.Screen,6_20_0,2023-11-30T19:39:24.359Z,,,,1,-1.1668613502915044,-1.327068780840367,,,true,hh,4099.875000095344,response,0.83166078255243,1.2,-1.2,0.9118813671244655,1.2,-1.2,high,high,,ISIC_0054459.JPG,,ISIC_1453671.JPG,,265,true,0.4500000000000003,hh,keypress(i),0,false,373052.10000014305,373051.90000009537,368935.317,368939.5,368952.025,373076.697,1,40,21,
sequence,flow.Sequence,6_20,2023-11-30T19:39:24.359Z,,,,,,,,,,,4099.875000095344,completion,,,,,,,high,high,,,,,,,true,,,,,false,373052.40000009537,373051.90000009537,368935.317,368939.5,368952.025,373076.697,1,40,,
trial,html.Screen,6_21_0,2023-11-30T19:39:33.078Z,,,,1,0.8034318937720549,-1.0024917298189338,,,true,lh,8694.503000047698,response,-0.8307508446051526,1.2,-1.2,1.1707575338936729,1.2,-1.2,low,high,,ISIC_0032766.JPG,,ISIC_0028606.JPG,,27,true,0.40000000000000024,lh,keypress(e),0,false,381771.40000009537,381771.2000000477,373043.468,373052.5,373076.697,381776.969,1,40,22,
sequence,flow.Sequence,6_21,2023-11-30T19:39:33.078Z,,,,,,,,,,,8694.503000047698,completion,,,,,,,low,high,,,,,,,true,,,,,false,381771.40000009537,381771.2000000477,373043.468,373052.5,373076.697,381776.969,1,40,,
trial,html.Screen,6_22_0,2023-11-30T19:39:36.838Z,,,,1,-0.9662688541319592,0.929746784178986,,,true,hl,3754.0310000000172,response,0.7882758084023446,1.2,-1.2,-0.8296405881378283,1.2,-1.2,high,low,,ISIC_0011077.JPG,,ISIC_0065882.JPG,,26,true,0.4500000000000003,hl,keypress(j),0,false,385531.10000014305,385531,381760.453,381771.5,381776.969,385534.243,1,40,23,
sequence,flow.Sequence,6_22,2023-11-30T19:39:36.838Z,,,,,,,,,,,3754.0310000000172,completion,,,,,,,high,low,,,,,,,true,,,,,false,385531.2999999523,385531,381760.453,381771.5,381776.969,385534.243,1,40,,
trial,html.Screen,6_23_0,2023-11-30T19:39:45.951Z,,,,1,1.2362557973341337,-1.2548266183352603,,,true,lh,9108.957000047667,response,-1.2020012168275056,1.2,-1.2,0.923753102263735,1.2,-1.2,low,high,,ISIC_0033886.JPG,,ISIC_0000022.JPG,,27,true,0.40000000000000024,lh,keypress(e),0,false,394643.2999999523,394643.2000000477,385517.614,385531.40000009537,385534.243,394651.984,1,40,24,
sequence,flow.Sequence,6_23,2023-11-30T19:39:45.952Z,,,,,,,,,,,9108.957000047667,completion,,,,,,,low,high,,,,,,,true,,,,,false,394643.40000009537,394643.2000000477,385517.614,385531.2999999523,385534.243,394651.984,1,40,,
trial,html.Screen,6_24_0,2023-11-30T19:39:53.000Z,,,,1,1.2362557973341337,-1.2548266183352603,,,true,lh,7040.016000000003,response,-1.168911077628813,1.2,-1.2,1.2181838235193114,1.2,-1.2,low,high,,ISIC_0033886.JPG,,ISIC_7358691.JPG,,40,true,0.4500000000000003,lh,keypress(e),0,false,401692.2999999523,401692,394635.241,394643.5,394651.984,401699.099,1,40,25,
sequence,flow.Sequence,6_24,2023-11-30T19:39:53.001Z,,,,,,,,,,,7040.016000000003,completion,,,,,,,low,high,,,,,,,true,,,,,false,401692.7000000477,401692,394635.241,394643.5,394651.984,401699.099,1,40,,
trial,html.Screen,6_25_0,2023-11-30T19:39:59.879Z,,,,1,-1.2014901828022857,-1.1484096197304636,,,true,hh,6872.101000047696,response,0.8882984205893003,1.2,-1.2,1.612556189477848,1.2,-1.2,high,high,,ISIC_0067808.JPG,,ISIC_0003068.JPG,,265,true,0.4500000000000003,hh,keypress(i),0,false,408571.2000000477,408571.2000000477,401682.291,401692.90000009537,401699.099,408579.075,1,40,26,
sequence,flow.Sequence,6_25,2023-11-30T19:39:59.879Z,,,,,,,,,,,6872.101000047696,completion,,,,,,,high,high,,,,,,,true,,,,,false,408571.40000009537,408571.2000000477,401682.291,401692.7999999523,401699.099,408579.075,1,40,,
trial,html.Screen,6_26_0,2023-11-30T19:40:03.671Z,,,,1,-1.1117876838408909,-1.2957497771092716,,,true,hh,3784.0250001430395,response,1.151139267005652,1.2,-1.2,1.0838749490501327,1.2,-1.2,high,high,,ISIC_0061915.JPG,,ISIC_0002566.JPG,,25,true,0.14,hh,keypress(i),0,false,412363.2999999523,412363.10000014305,408562.367,408571.5,408579.075,412369.759,1,40,27,
sequence,flow.Sequence,6_26,2023-11-30T19:40:03.671Z,,,,,,,,,,,3784.0250001430395,completion,,,,,,,high,high,,,,,,,true,,,,,false,412363.40000009537,412363.10000014305,408562.367,408571.5,408579.075,412369.759,1,40,,
trial,html.Screen,6_27_0,2023-11-30T19:40:11.800Z,,,,1,-1.14454137020797,-1.1082302786512033,,,true,hh,8121.841000143031,response,1.3246728710248594,1.2,-1.2,1.1527736000922424,1.2,-1.2,high,high,,ISIC_0065128.JPG,,ISIC_6876281.JPG,,25,true,0.14,hh,keypress(i),0,false,420491.7000000477,420491.60000014305,412353.134,412363.40000009537,412369.759,420502.264,1,40,28,
sequence,flow.Sequence,6_27,2023-11-30T19:40:11.800Z,,,,,,,,,,,8121.841000143031,completion,,,,,,,high,high,,,,,,,true,,,,,false,420491.7999999523,420491.60000014305,412353.134,412363.40000009537,412369.759,420502.264,1,40,,
trial,html.Screen,6_28_0,2023-11-30T19:40:19.048Z,,,,1,1.1989130276493527,1.2666195460149832,,,true,ll,7237.235999999975,response,-1.1195710731537871,1.2,-1.2,-1.1961732733209125,1.2,-1.2,low,low,,ISIC_0031705.JPG,,ISIC_0067170.JPG,,30,true,0.13,ll,keypress(f),0,false,427739.60000014305,427739.5,420485.642,420491.90000009537,420502.264,427766.383,1,40,29,
sequence,flow.Sequence,6_28,2023-11-30T19:40:19.048Z,,,,,,,,,,,7237.235999999975,completion,,,,,,,low,low,,,,,,,true,,,,,false,427739.90000009537,427739.5,420485.642,420491.90000009537,420502.264,427766.383,1,40,,
trial,html.Screen,6_29_0,2023-11-30T19:40:32.096Z,,,,1,-0.9662688541319592,0.929746784178986,,,true,hl,13021.117000000027,response,1.199471562817528,1.2,-1.2,-0.8631260534979347,1.2,-1.2,high,low,,ISIC_0011077.JPG,,ISIC_0030754.JPG,,26,true,0.4500000000000003,hl,keypress(j),0,false,440787.60000014305,440787.5,427733.027,427740,427766.383,440808.431,1,40,30,
sequence,flow.Sequence,6_29,2023-11-30T19:40:32.096Z,,,,,,,,,,,13021.117000000027,completion,,,,,,,high,low,,,,,,,true,,,,,false,440787.90000009537,440787.5,427733.027,427740,427766.383,440808.431,1,40,,
trial,html.Screen,6_30_0,2023-11-30T19:40:37.119Z,,,,1,-0.9138670886161264,0.8414121478342018,,,true,hl,5002.469000095385,response,1.0887164761389951,1.2,-1.2,-1.5357518752548716,1.2,-1.2,high,low,,ISIC_6709052.JPG,,ISIC_0028127.JPG,,26,true,0.4500000000000003,hl,keypress(j),0,false,445811,445810.90000009537,440774.957,440788,440808.431,445818.132,1,40,31,
sequence,flow.Sequence,6_30,2023-11-30T19:40:37.119Z,,,,,,,,,,,5002.469000095385,completion,,,,,,,high,low,,,,,,,true,,,,,false,445811.10000014305,445810.90000009537,440774.957,440787.90000009537,440808.431,445818.132,1,40,,
trial,html.Screen,6_31_0,2023-11-30T19:40:44.321Z,,,,1,1.0887164761389951,-1.5357518752548716,,,true,lh,7193.0680000477005,response,-1.2646773654288392,1.2,-1.2,0.952963803634235,1.2,-1.2,low,high,,ISIC_0028127.JPG,,ISIC_1996356.JPG,,27,true,0.40000000000000024,lh,keypress(e),0,false,453011.2999999523,453011.2000000477,445801.688,445811.2000000477,445818.132,453015.5,1,40,32,
sequence,flow.Sequence,6_31,2023-11-30T19:40:44.321Z,,,,,,,,,,,7193.0680000477005,completion,,,,,,,low,high,,,,,,,true,,,,,false,453011.40000009537,453011.2000000477,445801.688,445811.2000000477,445818.132,453015.5,1,40,,
trial,html.Screen,6_32_0,2023-11-30T19:40:48.889Z,,,,1,-1.2646773654288392,0.952963803634235,,,true,hl,4563.700000047684,response,1.2578167348825195,1.2,-1.2,-0.8371819698254004,1.2,-1.2,high,low,,ISIC_1996356.JPG,,ISIC_9613570.JPG,,26,true,0.4500000000000003,hl,keypress(j),0,false,457579.2999999523,457579.2000000477,452998.979,453011.5,453015.5,457591.028,1,40,33,
sequence,flow.Sequence,6_32,2023-11-30T19:40:48.889Z,,,,,,,,,,,4563.700000047684,completion,,,,,,,high,low,,,,,,,true,,,,,false,457579.40000009537,457579.2000000477,452998.979,453011.40000009537,453015.5,457591.028,1,40,,
trial,html.Screen,6_33_0,2023-11-30T19:40:57.273Z,,,,1,0.8110121381849364,-0.7563142141851558,,,true,lh,8372.672000047693,response,-1.0685314915436992,1.2,-1.2,0.8203833713472237,1.2,-1.2,low,high,,ISIC_0033605.JPG,,ISIC_0029374.JPG,,27,true,0.40000000000000024,lh,keypress(e),0,false,465963.7000000477,465963.7000000477,457574.487,457579.5,457591.028,465974.07,1,40,34,
sequence,flow.Sequence,6_33,2023-11-30T19:40:57.274Z,,,,,,,,,,,8372.672000047693,completion,,,,,,,low,high,,,,,,,true,,,,,false,465963.90000009537,465963.7000000477,457574.487,457579.5,457591.028,465974.07,1,40,,
trial,html.Screen,6_34_0,2023-11-30T19:41:02.961Z,,,,1,-1.1392972253022884,-1.208510423375335,,,true,hh,5676.929999999993,response,1.109799097093339,1.2,-1.2,1.091507924157762,1.2,-1.2,high,high,,ISIC_0046526.JPG,,ISIC_0765584.JPG,,265,true,0.4500000000000003,hh,keypress(i),0,false,471651.10000014305,471651,465957.437,465964.10000014305,465974.07,471668.815,1,40,35,
sequence,flow.Sequence,6_34,2023-11-30T19:41:02.961Z,,,,,,,,,,,5676.929999999993,completion,,,,,,,high,high,,,,,,,true,,,,,false,471651.2999999523,471651,465957.437,465964,465974.07,471668.815,1,40,,
trial,html.Screen,6_35_0,2023-11-30T19:41:08.194Z,,,,1,1.2246024683501224,1.2904526351590244,,,true,ll,5215.385000047681,response,-1.0915173513546716,1.2,-1.2,-1.266840220031473,1.2,-1.2,low,low,,ISIC_4730066.JPG,,ISIC_8241457.JPG,,30,true,0.13,ll,keypress(f),0,false,476884.5,476884.2000000477,471635.146,471651.2999999523,471668.815,476895.257,1,40,36,
sequence,flow.Sequence,6_35,2023-11-30T19:41:08.194Z,,,,,,,,,,,5215.385000047681,completion,,,,,,,low,low,,,,,,,true,,,,,false,476884.7999999523,476884.2000000477,471635.146,471651.2999999523,471668.815,476895.257,1,40,,
trial,html.Screen,6_36_0,2023-11-30T19:41:14.113Z,,,,1,-1.268445326285509,-1.173734476257662,,,true,hh,5908.042999952333,response,1.3379750533585932,1.2,-1.2,1.1671342614509763,1.2,-1.2,high,high,,ISIC_5216586.JPG,,ISIC_0063556.JPG,,25,true,0.14,hh,keypress(i),0,false,482803.40000009537,482803.2999999523,476878.794,476885,476895.257,482806.776,1,40,37,
sequence,flow.Sequence,6_36,2023-11-30T19:41:14.113Z,,,,,,,,,,,5908.042999952333,completion,,,,,,,high,high,,,,,,,true,,,,,false,482803.5,482803.2999999523,476878.794,476885,476895.257,482806.776,1,40,,
trial,html.Screen,6_37_0,2023-11-30T19:41:17.753Z,,,,1,1.2541318165695772,1.085289936617366,,,true,ll,3636.624000095355,response,-1.0915173513546716,1.2,-1.2,-1.266840220031473,1.2,-1.2,low,low,,ISIC_4277207.JPG,,ISIC_8241457.JPG,,30,true,0.13,ll,keypress(f),0,false,486443.60000014305,486443.40000009537,482790.127,482803.7000000477,482806.776,486463.89,1,40,38,
sequence,flow.Sequence,6_37,2023-11-30T19:41:17.753Z,,,,,,,,,,,3636.624000095355,completion,,,,,,,low,low,,,,,,,true,,,,,false,486443.7000000477,486443.40000009537,482790.127,482803.60000014305,482806.776,486463.89,1,40,,
trial,html.Screen,6_38_0,2023-11-30T19:41:21.610Z,,,,1,-0.9633172970727744,0.8472659344792351,,,true,hl,3836.3100000476697,response,0.7883321712536753,1.2,-1.2,-1.0011430756825364,1.2,-1.2,high,low,,ISIC_0067172.JPG,,ISIC_9828853.JPG,,26,true,0.4500000000000003,hl,keypress(j),0,false,490300.5,490300.2000000477,486430.708,486443.7999999523,486463.89,490304.757,1,40,39,
sequence,flow.Sequence,6_38,2023-11-30T19:41:21.610Z,,,,,,,,,,,3836.3100000476697,completion,,,,,,,high,low,,,,,,,true,,,,,false,490300.7000000477,490300.2000000477,486430.708,486443.7999999523,486463.89,490304.757,1,40,,
trial,html.Screen,6_39_0,2023-11-30T19:41:26.665Z,,,,1,1.160746324899676,1.1927876559115576,,,true,ll,5050.643000095384,response,-1.3242884828161026,1.2,-1.2,-1.599657170839185,1.2,-1.2,low,low,,ISIC_8651053.JPG,,ISIC_0073136.JPG,,288,true,0.40000000000000024,ll,keypress(f),0,false,495355.60000014305,495355.40000009537,490288.129,490300.90000009537,490304.757,495364.559,1,40,40,
sequence,flow.Sequence,6_39,2023-11-30T19:41:26.665Z,,,,,,,,,,,5050.643000095384,completion,,,,,,,low,low,,,,,,,true,,,,,false,495355.7999999523,495355.40000009537,490288.129,490300.90000009537,490304.757,495364.559,1,40,,
practice_loop,flow.Loop,6,2023-11-30T19:41:26.666Z,,,,,,,,,,,288485.2680000954,completion,,,,,,,,,,,,,,,true,,,,,false,495355.90000009537,495355.40000009537,206853.461,206851.70000004768,206870.132,495364.559,1,40,,
stair_instructions,html.Screen,7,2023-11-30T19:41:34.553Z,,,,,,,,,,,7878.240999952308,response,,,,,,,,,,,,,,,,,continue,click button,,,503243.2999999523,503242.7999999523,495348.025,495356,495364.559,503246.516,,,,
trial,html.Screen,8_0_0,2023-11-30T19:41:38.203Z,,,,2,0,-0.0102871556606504,,0.04,true,ll,3645.084000143048,response,-1.0915173513546716,1.2,-1.2,-1.266840220031473,1.2,-1.2,low,low,,ISIC_1805163.JPG,,ISIC_8241457.JPG,28,40,false,0.14,ll,keypress(f),0,true,506891.7999999523,506891.60000014305,503229.944,503243.2999999523,503246.516,506920.493,1,40,1,
sequence,flow.Sequence,8_0,2023-11-30T19:41:38.203Z,,,,,,,,,,,3645.084000143048,completion,,,,,,,low,low,,,,,,,false,,,,,true,506891.90000009537,506891.60000014305,503229.944,503243.2999999523,503246.516,506920.493,1,40,,
trial,html.Screen,8_1_0,2023-11-30T19:41:45.747Z,,,,2,-0.0074667911845194,0.018500200317654,,0.04,true,hh,7515.107000143034,response,1.033832433609739,1.15,-1.15,1.139863018685685,1.15,-1.15,high,high,,ISIC_0058723.JPG,,ISIC_0008510.JPG,28,27,false,0.14,hh,keypress(i),0,true,514435.7000000477,514435.60000014305,506903.807,506892,506920.493,514451.64,1,40,2,
sequence,flow.Sequence,8_1,2023-11-30T19:41:45.747Z,,,,,,,,,,,7515.107000143034,completion,,,,,,,high,high,,,,,,,false,,,,,true,514435.90000009537,514435.60000014305,506903.807,506892,506920.493,514451.64,1,40,,
trial,html.Screen,8_2_0,2023-11-30T19:41:52.818Z,,,,2,0.0308384937406319,-0.0038396364323947,,0.04,false,hh,7055.56000004767,response,1.0257168197307909,1.15,-1.15,1.0403166496930305,1.15,-1.15,high,high,,ISIC_0029825.JPG,,ISIC_1690909.JPG,28,27,false,0.14,lh,keypress(e),0,true,521507.2999999523,521507.2000000477,514434.999,514436,514451.64,521515.396,1,40,3,
sequence,flow.Sequence,8_2,2023-11-30T19:41:52.819Z,,,,,,,,,,,7055.56000004767,completion,,,,,,,high,high,,,,,,,false,,,,,true,521507.5,521507.2000000477,514434.999,514436,514451.64,521515.396,1,40,,
trial,html.Screen,8_3_0,2023-11-30T19:42:01.515Z,,,,2,-0.0388181790775959,0.0049623405709465,,0.04,false,lh,8687.903999952308,response,-1.0116417541846066,1.15,-1.15,1.033442916947398,1.0400898341893579,-1.15,low,high,,ISIC_0061880.JPG,,ISIC_0031389.JPG,28,25,false,0.29000000000000015,ll,keypress(f),0,true,530203.4000000954,530203.2999999523,521498.764,521507.60000014305,521515.396,530215.653,1,40,4,
sequence,flow.Sequence,8_3,2023-11-30T19:42:01.515Z,,,,,,,,,,,8687.903999952308,completion,,,,,,,low,high,,,,,,,false,,,,,true,530203.600000143,530203.2999999523,521498.764,521507.5,521515.396,530215.653,1,40,,
trial,html.Screen,8_4_0,2023-11-30T19:42:06.691Z,,,,2,0.0258224118104549,-0.0029364553353019,,0.04,true,lh,5164.346999999951,response,-0.9617893983965208,1.15,-1.0999999999999999,0.9453006131304652,1.090089834189358,-1.15,low,high,,ISIC_8325226.JPG,,ISIC_4229473.JPG,28,25,false,0.29000000000000015,lh,keypress(e),0,true,535380.2000000477,535380,530199.069,530203.7000000477,530215.653,535392.521,1,40,5,
sequence,flow.Sequence,8_4,2023-11-30T19:42:06.692Z,,,,,,,,,,,5164.346999999951,completion,,,,,,,low,high,,,,,,,false,,,,,true,535380.600000143,535380,530199.069,530203.7000000477,530215.653,535392.521,1,40,,
trial,html.Screen,8_5_0,2023-11-30T19:42:12.907Z,,,,2,0.0200295718112167,0.0155559071275806,,0.04,true,ll,6203.379000095418,response,-1.0454436589399478,1.15,-1.0999999999999999,-1.110086733022912,1.090089834189358,-1.15,low,low,,ISIC_0061343.JPG,,ISIC_0053916.JPG,28,27,false,0.1,ll,keypress(f),0,true,541596.2000000477,541595.9000000954,535375.894,535380.7999999523,535392.521,541604.488,1,40,6,
sequence,flow.Sequence,8_5,2023-11-30T19:42:12.908Z,,,,,,,,,,,6203.379000095418,completion,,,,,,,low,low,,,,,,,false,,,,,true,541596.5,541595.9000000954,535375.894,535380.7999999523,535392.521,541604.488,1,40,,
trial,html.Screen,8_6_0,2023-11-30T19:42:20.059Z,,,,2,-0.0374659946425444,-0.0086043094957617,,0.04,false,hl,7142.912000095355,response,0.989300717252516,1.15,-1.0499999999999998,-0.7908280206937478,1.090089834189358,-1.0999999999999999,high,low,,ISIC_0033051.JPG,,ISIC_6416533.JPG,28,27,false,0.3700000000000002,ll,keypress(f),0,true,548747.5,548747.4000000954,541587.979,541596.600000143,541604.488,548751.72,1,40,7,
sequence,flow.Sequence,8_6,2023-11-30T19:42:20.059Z,,,,,,,,,,,7142.912000095355,completion,,,,,,,high,low,,,,,,,false,,,,,true,548747.7000000477,548747.4000000954,541587.979,541596.5,541604.488,548751.72,1,40,,
trial,html.Screen,8_7_0,2023-11-30T19:42:25.450Z,,,,2,0.0367706518941078,-0.0161069838272154,,0.04,true,ll,5387.579999952344,response,-1.0642195369108791,1.15,-1.0499999999999998,-1.0897657776277234,1.090089834189358,-1.0999999999999999,low,low,,ISIC_0033419.JPG,,ISIC_0071988.JPG,28,42,false,0.1,ll,keypress(f),0,true,554139.4000000954,554139.2999999523,548734.952,548747.7999999523,548751.72,554145.499,1,40,8,
sequence,flow.Sequence,8_7,2023-11-30T19:42:25.451Z,,,,,,,,,,,5387.579999952344,completion,,,,,,,low,low,,,,,,,false,,,,,true,554139.5,554139.2999999523,548734.952,548747.7999999523,548751.72,554145.499,1,40,,
trial,html.Screen,8_8_0,2023-11-30T19:42:32.378Z,,,,2,-0.0374659946425444,-0.0086043094957617,,0.04,true,hh,6921.601000143099,response,1.2541318165695772,1.15,-1.0499999999999998,1.085289936617366,1.090089834189358,-1.0269926572693013,high,high,,ISIC_0033051.JPG,,ISIC_4277207.JPG,28,27,false,0.13,hh,keypress(i),0,true,561067.2000000477,561067.100000143,554128.858,554139.600000143,554145.499,561075.67,1,40,9,
sequence,flow.Sequence,8_8,2023-11-30T19:42:32.378Z,,,,,,,,,,,6921.601000143099,completion,,,,,,,high,high,,,,,,,false,,,,,true,561067.4000000954,561067.100000143,554128.858,554139.600000143,554145.499,561075.67,1,40,,
trial,html.Screen,8_9_0,2023-11-30T19:42:38.972Z,,,,2,-0.0388334549081915,0.0303399972963369,,0.04,false,hl,6583.530000047642,response,0.8828738626295417,1.15,-1.0499999999999998,-0.8288177599439582,1.1197108765934716,-1.0269926572693013,high,low,,ISIC_4961708.JPG,,ISIC_0056041.JPG,28,25,false,0.3200000000000002,ll,keypress(f),0,true,567659.2999999523,567659.2000000477,561059.115,561067.4000000954,561075.67,567671.838,1,40,10,
sequence,flow.Sequence,8_9,2023-11-30T19:42:38.972Z,,,,,,,,,,,6583.530000047642,completion,,,,,,,high,low,,,,,,,false,,,,,true,567659.5,567659.2000000477,561059.115,561067.4000000954,561075.67,567671.838,1,40,,
trial,html.Screen,8_10_0,2023-11-30T19:42:42.684Z,,,,2,-0.0241900387072296,0.0339955304424736,,0.04,false,lh,3699.162000000011,response,-0.9244148283103414,1.15,-1.0499999999999998,0.9712966348713286,1.1197108765934716,-1.0269926572693013,low,high,,ISIC_0010789.JPG,,ISIC_7927525.JPG,28,25,false,0.28000000000000014,hh,keypress(i),0,true,571371,571371,567655.301,567659.5,567671.838,571379.043,1,40,11,
sequence,flow.Sequence,8_10,2023-11-30T19:42:42.684Z,,,,,,,,,,,3699.162000000011,completion,,,,,,,low,high,,,,,,,false,,,,,true,571371.100000143,571371,567655.301,567659.5,567671.838,571379.043,1,40,,
trial,html.Screen,8_11_0,2023-11-30T19:42:50.564Z,,,,2,-0.001445457736793,-0.0165307427449982,,0.04,false,hh,7872.657000047737,response,1.077278111180185,1.15,-1.0999999999999999,1.1530533996184025,1.1197108765934716,-1.0269926572693013,high,high,,ISIC_0027350.JPG,,ISIC_9525136.JPG,28,28,false,0.14,lh,keypress(e),0,true,579251.7999999523,579251.7000000477,571362.526,571371.2000000477,571379.043,579261.029,1,40,12,
sequence,flow.Sequence,8_11,2023-11-30T19:42:50.565Z,,,,,,,,,,,7872.657000047737,completion,,,,,,,high,high,,,,,,,false,,,,,true,579252,579251.7000000477,571362.526,571371.2000000477,571379.043,579261.029,1,40,,
trial,html.Screen,8_12_0,2023-11-30T19:42:55.580Z,,,,2,-0.0198696495649504,0.0387952353063878,,0.04,true,lh,5005.871000095387,response,-1.0788024398087033,1.15,-1.0999999999999999,0.9911875460374616,1.0121750172448654,-1.0269926572693013,low,high,,ISIC_6735970.JPG,,ISIC_5951430.JPG,28,26,false,0.2600000000000001,lh,keypress(e),0,true,584267,584266.9000000954,579244.323,579252.100000143,579261.029,584270.787,1,40,13,
sequence,flow.Sequence,8_12,2023-11-30T19:42:55.580Z,,,,,,,,,,,5005.871000095387,completion,,,,,,,low,high,,,,,,,false,,,,,true,584267.100000143,584266.9000000954,579244.323,579252.100000143,579261.029,584270.787,1,40,,
trial,html.Screen,8_13_0,2023-11-30T19:43:01.364Z,,,,2,-0.0241900387072296,0.0339955304424736,,0.04,false,lh,5780.4130000476725,response,-0.9198276163642348,1.15,-1.0999999999999999,0.7754915110667046,1.0121750172448654,-1.0269926572693013,low,high,,ISIC_0010789.JPG,,ISIC_7840728.JPG,28,26,false,0.2600000000000001,hh,keypress(i),0,true,590051.2999999523,590051.2000000477,584254.189,584267.2000000477,584270.787,590065.407,1,40,14,
sequence,flow.Sequence,8_13,2023-11-30T19:43:01.364Z,,,,,,,,,,,5780.4130000476725,completion,,,,,,,low,high,,,,,,,false,,,,,true,590051.5,590051.2000000477,584254.189,584267.2000000477,584270.787,590065.407,1,40,,
trial,html.Screen,8_14_0,2023-11-30T19:43:06.196Z,,,,2,0,-0.0102871556606504,,0.04,false,hl,4817.693000143045,response,0.84290786638064,1.15,-1.15,-0.7332521189371746,0.833339528552083,-1.0269926572693013,high,low,,ISIC_1805163.JPG,,ISIC_4708642.JPG,28,25,false,0.3200000000000002,ll,keypress(f),0,true,594883.2000000477,594883.100000143,590048.655,590051.5,590065.407,594891.576,1,40,15,
sequence,flow.Sequence,8_14,2023-11-30T19:43:06.196Z,,,,,,,,,,,4817.693000143045,completion,,,,,,,high,low,,,,,,,false,,,,,true,594883.2000000477,594883.100000143,590048.655,590051.5,590065.407,594891.576,1,40,,
trial,html.Screen,8_15_0,2023-11-30T19:43:10.036Z,,,,2,0.0044063257337227,0.0172548282859886,,0.04,true,hh,3831.8240000953665,response,1.0622023082418524,1.15,-1.15,0.8319500041964579,0.833339528552083,-0.9769926572693013,high,high,,ISIC_7413786.JPG,,ISIC_0056707.JPG,28,29,false,0.12,hh,keypress(i),0,true,598723.5,598723.4000000954,594874.94,594883.2999999523,594891.576,598732.244,1,40,16,
sequence,flow.Sequence,8_15,2023-11-30T19:43:10.036Z,,,,,,,,,,,3831.8240000953665,completion,,,,,,,high,high,,,,,,,false,,,,,true,598723.600000143,598723.4000000954,594874.94,594883.2999999523,594891.576,598732.244,1,40,,
trial,html.Screen,8_16_0,2023-11-30T19:43:15.733Z,,,,2,0.0283578106329894,-0.0088840758711548,,0.04,false,lh,5687.856000143103,response,-1.004142980655507,1.15,-1.15,0.7749773174967559,0.833339528552083,-0.9769926572693013,low,high,,ISIC_0060707.JPG,,ISIC_3936223.JPG,28,28,false,0.2400000000000001,ll,keypress(f),0,true,604420.2999999523,604420.100000143,598715.527,598723.7000000477,598732.244,604426.709,1,40,17,
sequence,flow.Sequence,8_16,2023-11-30T19:43:15.733Z,,,,,,,,,,,5687.856000143103,completion,,,,,,,low,high,,,,,,,false,,,,,true,604420.7000000477,604420.100000143,598715.527,598723.7000000477,598732.244,604426.709,1,40,,
trial,html.Screen,8_17_0,2023-11-30T19:43:19.620Z,,,,2,0.0286056110007553,0.036125199756515,,0.04,true,hh,3880.1910000953358,response,1.2268098550740514,1.15,-1.15,1.000470054909676,0.8833395285520831,-0.9769926572693013,high,high,,ISIC_6535558.JPG,,ISIC_9562157.JPG,28,25,false,0.12,hh,keypress(i),0,true,608307,608306.9000000954,604410.004,604420.9000000954,604426.709,608317.517,1,40,18,
sequence,flow.Sequence,8_17,2023-11-30T19:43:19.620Z,,,,,,,,,,,3880.1910000953358,completion,,,,,,,high,high,,,,,,,false,,,,,true,608307.100000143,608306.9000000954,604410.004,604420.7999999523,604426.709,608317.517,1,40,,
trial,html.Screen,8_18_0,2023-11-30T19:43:23.700Z,,,,2,0.0200295718112167,0.0155559071275806,,0.04,false,lh,4069.7829999523237,response,-0.9662688541319592,1.0636399549918638,-1.15,0.929746784178986,0.8833395285520831,-0.9769926572693013,low,high,,ISIC_0061343.JPG,,ISIC_0011077.JPG,28,26,false,0.2400000000000001,ll,keypress(f),0,true,612387.4000000954,612387.2999999523,608301.063,608307.2000000477,608317.517,612392.124,1,40,19,
sequence,flow.Sequence,8_18,2023-11-30T19:43:23.700Z,,,,,,,,,,,4069.7829999523237,completion,,,,,,,low,high,,,,,,,false,,,,,true,612387.5,612387.2999999523,608301.063,608307.100000143,608317.517,612392.124,1,40,,
trial,html.Screen,8_19_0,2023-11-30T19:43:26.677Z,,,,2,-0.0074667911845194,0.018500200317654,,0.04,true,ll,2972.276000095415,response,-1.017768542725066,1.0636399549918638,-1.0999999999999999,-0.9045368314063942,0.9333395285520831,-0.9769926572693013,low,low,,ISIC_0058723.JPG,,ISIC_0031752.JPG,28,25,false,0.1,ll,keypress(f),0,true,615364.7000000477,615364.4000000954,612375.422,612387.600000143,612392.124,615381.346,1,40,20,
sequence,flow.Sequence,8_19,2023-11-30T19:43:26.678Z,,,,,,,,,,,2972.276000095415,completion,,,,,,,low,low,,,,,,,false,,,,,true,615365.2000000477,615364.4000000954,612375.422,612387.600000143,612392.124,615381.346,1,40,,
trial,html.Screen,8_20_0,2023-11-30T19:43:30.085Z,,,,2,-0.0088741920055285,-0.0058246074740588,,0.04,true,ll,3390.6539999999804,response,-1.1103777034815996,1.0636399549918638,-1.0999999999999999,-1.018282939602391,0.9333395285520831,-0.9769926572693013,low,low,,ISIC_4136663.JPG,,ISIC_3094758.JPG,28,25,false,0.1,ll,keypress(f),0,true,618772.2999999523,618772,615364.67,615365.4000000954,615381.346,618787.885,1,40,21,
sequence,flow.Sequence,8_20,2023-11-30T19:43:30.085Z,,,,,,,,,,,3390.6539999999804,completion,,,,,,,low,low,,,,,,,false,,,,,true,618772.7000000477,618772,615364.67,615365.2999999523,615381.346,618787.885,1,40,,
trial,html.Screen,8_21_0,2023-11-30T19:43:34.124Z,,,,2,0.0220026381002083,-0.0170756452911772,,0.04,false,hl,4023.414999952307,response,0.9653573371180936,1.0636399549918638,-0.9114098855043925,-0.854766800381037,0.9333395285520831,-0.9114098855043925,high,low,,ISIC_5347806.JPG,,ISIC_9640145.JPG,28,25,false,0.2400000000000001,hh,keypress(i),0,true,622811.4000000954,622811.2999999523,618771.407,618772.7999999523,618787.885,622830.351,1,40,22,
sequence,flow.Sequence,8_21,2023-11-30T19:43:34.124Z,,,,,,,,,,,4023.414999952307,completion,,,,,,,high,low,,,,,,,false,,,,,true,622811.5,622811.2999999523,618771.407,618772.7999999523,618787.885,622830.351,1,40,,
trial,html.Screen,8_22_0,2023-11-30T19:43:46.213Z,,,,2,-0.0088741920055285,-0.0058246074740588,,0.04,false,ll,12068.549000095343,response,-0.8161945839077875,1.0636399549918638,-0.9114098855043925,-0.8847883487572158,0.9333395285520831,-0.9614098855043925,low,low,,ISIC_4136663.JPG,,ISIC_0058496.JPG,28,41,false,0.1,lh,keypress(e),0,true,634899,634898.9000000954,622795.895,622811.600000143,622830.351,634902.564,1,40,23,
sequence,flow.Sequence,8_22,2023-11-30T19:43:46.213Z,,,,,,,,,,,12068.549000095343,completion,,,,,,,low,low,,,,,,,false,,,,,true,634899.100000143,634898.9000000954,622795.895,622811.600000143,622830.351,634902.564,1,40,,
trial,html.Screen,8_23_0,2023-11-30T19:43:51.534Z,,,,2,-0.0074667911845194,0.018500200317654,,0.04,false,lh,5316.735999952303,response,-1.0116417541846066,1.0636399549918638,-0.9114098855043925,1.033442916947398,0.9333395285520831,-1.0114098855043925,low,high,,ISIC_0058723.JPG,,ISIC_0031389.JPG,28,28,false,0.17000000000000004,ll,keypress(f),0,true,640219.4000000954,640219.2999999523,634885.922,634899.100000143,634902.564,640229.605,1,40,24,
sequence,flow.Sequence,8_23,2023-11-30T19:43:51.534Z,,,,,,,,,,,5316.735999952303,completion,,,,,,,low,high,,,,,,,false,,,,,true,640219.5,640219.2999999523,634885.922,634899.100000143,634902.564,640229.605,1,40,,
trial,html.Screen,8_24_0,2023-11-30T19:43:57.357Z,,,,2,-0.0088741920055285,-0.0058246074740588,,0.04,true,hl,5813.595000047702,response,1.2362557973341337,1.0636399549918638,-0.863918169046197,-1.2548266183352603,0.9833395285520832,-1.0114098855043925,high,low,,ISIC_4136663.JPG,,ISIC_0033886.JPG,28,27,false,0.28000000000000014,hl,keypress(j),0,true,646043.4000000954,646043.2000000477,640212.974,640219.600000143,640229.605,646057.854,1,40,25,
sequence,flow.Sequence,8_24,2023-11-30T19:43:57.358Z,,,,,,,,,,,5813.595000047702,completion,,,,,,,high,low,,,,,,,false,,,,,true,646043.5,646043.2000000477,640212.974,640219.600000143,640229.605,646057.854,1,40,,
trial,html.Screen,8_25_0,2023-11-30T19:44:00.813Z,,,,2,-0.0164027439304477,0.0082910758715273,,0.04,true,hh,3441.246000143001,response,0.9833548049624848,1.0136399549918638,-0.863918169046197,0.9129629471000654,0.9833395285520832,-1.0114098855043925,high,high,,ISIC_7381224.JPG,,ISIC_0000848.JPG,28,27,false,0.1,hh,keypress(i),0,true,649499.2999999523,649499.100000143,646040.958,646043.600000143,646057.854,649514.371,1,40,26,
sequence,flow.Sequence,8_25,2023-11-30T19:44:00.814Z,,,,,,,,,,,3441.246000143001,completion,,,,,,,high,high,,,,,,,false,,,,,true,649499.4000000954,649499.100000143,646040.958,646043.600000143,646057.854,649514.371,1,40,,
trial,html.Screen,8_26_0,2023-11-30T19:44:05.062Z,,,,2,0.0220026381002083,-0.0170756452911772,,0.04,false,hl,4233.128999999957,response,0.7883321712536753,1.0136399549918638,-0.863918169046197,-1.0011430756825364,0.9833395285520832,-1.0114098855043925,high,low,,ISIC_5347806.JPG,,ISIC_9828853.JPG,28,27,false,0.28000000000000014,hh,keypress(i),0,true,653747.7999999523,653747.5,649497.592,649499.5,649514.371,653755.941,1,40,27,
sequence,flow.Sequence,8_26,2023-11-30T19:44:05.062Z,,,,,,,,,,,4233.128999999957,completion,,,,,,,high,low,,,,,,,false,,,,,true,653748.100000143,653747.5,649497.592,649499.5,649514.371,653755.941,1,40,,
trial,html.Screen,8_27_0,2023-11-30T19:44:09.982Z,,,,2,-0.0374659946425444,-0.0086043094957617,,0.04,false,hh,4911.759000047692,response,0.7553497600333596,0.8006475591768702,-0.863918169046197,1.0400427384571451,0.9833395285520832,-1.0614098855043925,high,high,,ISIC_0033051.JPG,,ISIC_0561634.JPG,28,52,false,0.1,lh,keypress(e),0,true,658667.9000000954,658667.7000000477,653739.262,653748.2000000477,653755.941,658682.341,1,40,28,
sequence,flow.Sequence,8_27,2023-11-30T19:44:09.983Z,,,,,,,,,,,4911.759000047692,completion,,,,,,,high,high,,,,,,,false,,,,,true,658668.4000000954,658667.7000000477,653739.262,653748.2000000477,653755.941,658682.341,1,40,,
trial,html.Screen,8_28_0,2023-11-30T19:44:14.093Z,,,,2,0.0119001144851157,-0.0063430114540141,,0.04,true,hh,4096.658999999985,response,0.7653567704423454,0.8506475591768703,-0.863918169046197,1.0008177728634988,0.9265028427786053,-1.0614098855043925,high,high,,ISIC_0003822.JPG,,ISIC_0013898.JPG,28,46,false,0.1,hh,keypress(i),0,true,662779.100000143,662779,658665.435,658668.600000143,658682.341,662790.415,1,40,29,
sequence,flow.Sequence,8_28,2023-11-30T19:44:14.093Z,,,,,,,,,,,4096.658999999985,completion,,,,,,,high,high,,,,,,,false,,,,,true,662779.2000000477,662779,658665.435,658668.5,658682.341,662790.415,1,40,,
trial,html.Screen,8_29_0,2023-11-30T19:44:30.086Z,,,,2,0.0220026381002083,-0.0170756452911772,,0.04,,,16014.218999999925,timeout,0.8186357808635779,0.8506475591768703,-0.863918169046197,0.8496269540027764,0.9265028427786053,-1.0614098855043925,high,high,,ISIC_5347806.JPG,,ISIC_4535099.JPG,28,46,false,0.1,,,0,true,678772.2000000477,678771.9000000954,662773.547,662779.2000000477,662790.415,678804.634,1,40,30,
sequence,flow.Sequence,8_29,2023-11-30T19:44:30.087Z,,,,,,,,,,,15981.48500009533,completion,,,,,,,high,high,,,,,,,false,,,,,true,678772.600000143,678771.9000000954,662773.547,662779.2000000477,662790.415,678804.634,1,40,,
trial,html.Screen,8_30_0,2023-11-30T19:44:32.846Z,,,,2,-0.0088741920055285,-0.0058246074740588,,0.04,true,ll,2726.7660000954056,response,-0.9294281370493894,0.8506475591768703,-0.863918169046197,-1.1327283202367815,0.9265028427786053,-1.0614098855043925,low,low,,ISIC_4136663.JPG,,ISIC_0072953.JPG,28,30,false,0.1,ll,keypress(f),0,true,681531.600000143,681531.4000000954,678788.176,678772.7000000477,678804.634,681543.308,1,40,31,
sequence,flow.Sequence,8_30,2023-11-30T19:44:32.846Z,,,,,,,,,,,2726.7660000954056,completion,,,,,,,low,low,,,,,,,false,,,,,true,681531.7999999523,681531.4000000954,678788.176,678772.7000000477,678804.634,681543.308,1,40,,
trial,html.Screen,8_31_0,2023-11-30T19:44:34.974Z,,,,2,0.0119001144851157,-0.0063430114540141,,0.04,true,ll,2116.4919999523554,response,-0.8606942773025547,0.8506475591768703,-0.863918169046197,-1.137378432027211,0.9265028427786053,-1.0614098855043925,low,low,,ISIC_0003822.JPG,,ISIC_0064113.JPG,28,30,false,0.1,ll,keypress(f),0,true,683660.100000143,683659.7999999523,681526.609,681532,681543.308,683664.129,1,40,32,
sequence,flow.Sequence,8_31,2023-11-30T19:44:34.975Z,,,,,,,,,,,2116.4919999523554,completion,,,,,,,low,low,,,,,,,false,,,,,true,683660.4000000954,683659.7999999523,681526.609,681531.9000000954,681543.308,683664.129,1,40,,
trial,html.Screen,8_32_0,2023-11-30T19:44:40.320Z,,,,2,0.0286056110007553,0.036125199756515,,0.04,false,lh,5339.77100009541,response,-1.004142980655507,0.8506475591768703,-1.0850533761319963,0.7749773174967559,0.9265028427786053,-1.0850533761319963,low,high,,ISIC_6535558.JPG,,ISIC_3936223.JPG,28,25,false,0.2400000000000001,ll,keypress(f),0,true,689004.100000143,689003.9000000954,683647.507,683660.600000143,683664.129,689007.863,1,40,33,
sequence,flow.Sequence,8_32,2023-11-30T19:44:40.320Z,,,,,,,,,,,5339.77100009541,completion,,,,,,,low,high,,,,,,,false,,,,,true,689004.4000000954,689003.9000000954,683647.507,683660.600000143,683664.129,689007.863,1,40,,
trial,html.Screen,8_33_0,2023-11-30T19:44:42.743Z,,,,2,0.0009714874637896,-0.0174815595031679,,0.04,true,ll,2419.136999999988,response,-1.048482877784125,0.8506475591768703,-1.0850533761319963,-1.0716857765902368,0.9765028427786053,-1.0850533761319963,low,low,,ISIC_9848743.JPG,,ISIC_0063961.JPG,28,32,false,0.1,ll,keypress(f),0,true,691427.100000143,691427,688991.225,689004.600000143,689007.863,691429.183,1,40,34,
sequence,flow.Sequence,8_33,2023-11-30T19:44:42.743Z,,,,,,,,,,,2419.136999999988,completion,,,,,,,low,low,,,,,,,false,,,,,true,691427.2999999523,691427,688991.225,689004.5,689007.863,691429.183,1,40,,
trial,html.Screen,8_34_0,2023-11-30T19:44:46.847Z,,,,2,0.0283578106329894,-0.0088840758711548,,0.04,false,hl,4102.116999952355,response,0.6116142998577564,0.8506475591768703,-1.0100843271871809,-0.958564243697126,0.9765028427786053,-1.0850533761319963,high,low,,ISIC_0060707.JPG,,ISIC_3203344.JPG,28,26,false,0.2500000000000001,hh,keypress(i),0,true,695531.4000000954,695531.2999999523,691412.488,691427.2999999523,691429.183,695537.143,1,40,35,
sequence,flow.Sequence,8_34,2023-11-30T19:44:46.847Z,,,,,,,,,,,4102.116999952355,completion,,,,,,,high,low,,,,,,,false,,,,,true,695531.5,695531.2999999523,691412.488,691427.2999999523,691429.183,695537.143,1,40,,
trial,html.Screen,8_35_0,2023-11-30T19:44:49.471Z,,,,2,-0.0109416414475118,-0.005246498750811,,0.04,false,hl,2618.1569999522762,response,0.6054216347801914,0.8006475591768702,-1.0100843271871809,-1.235209389257644,0.9765028427786053,-1.1350533761319963,high,low,,ISIC_0064279.JPG,,ISIC_0014722.JPG,28,26,false,0.2400000000000001,ll,keypress(f),0,true,698155.4000000954,698155.2999999523,695520.618,695531.600000143,695537.143,698158.944,1,40,36,
sequence,flow.Sequence,8_35,2023-11-30T19:44:49.471Z,,,,,,,,,,,2618.1569999522762,completion,,,,,,,high,low,,,,,,,false,,,,,true,698155.5,698155.2999999523,695520.618,695531.600000143,695537.143,698158.944,1,40,,
trial,html.Screen,8_36_0,2023-11-30T19:44:54.455Z,,,,2,-0.039520186367207,-0.0377961575607372,,0.04,false,lh,4979.95600009535,response,-0.9244148283103414,0.8506475591768703,-1.0100843271871809,0.9712966348713286,0.9765028427786053,-1.1350533761319963,low,high,,ISIC_6356149.JPG,,ISIC_7927525.JPG,28,25,false,0.22000000000000008,hl,keypress(j),0,true,703139.100000143,703138.9000000954,698142.455,698155.600000143,698158.944,703152.054,1,40,37,
sequence,flow.Sequence,8_36,2023-11-30T19:44:54.455Z,,,,,,,,,,,4979.95600009535,completion,,,,,,,low,high,,,,,,,false,,,,,true,703139.2999999523,703138.9000000954,698142.455,698155.600000143,698158.944,703152.054,1,40,,
trial,html.Screen,8_37_0,2023-11-30T19:44:58.184Z,,,,2,-0.001445457736793,-0.0165307427449982,,0.04,true,hl,3715.64600004768,response,0.8034318937720549,0.8506475591768703,-1.060084327187181,-1.0024917298189338,1.0265028427786054,-1.1350533761319963,high,low,,ISIC_0027350.JPG,,ISIC_0032766.JPG,28,25,false,0.2600000000000001,hl,keypress(j),0,true,706867.9000000954,706867.7000000477,703135.427,703139.2999999523,703152.054,706875.914,1,40,38,
sequence,flow.Sequence,8_37,2023-11-30T19:44:58.184Z,,,,,,,,,,,3715.64600004768,completion,,,,,,,high,low,,,,,,,false,,,,,true,706868.2000000477,706867.7000000477,703135.427,703139.2999999523,703152.054,706875.914,1,40,,
trial,html.Screen,8_38_0,2023-11-30T19:45:02.255Z,,,,2,-0.0074667911845194,0.018500200317654,,0.04,true,hl,4063.0860000000102,response,0.8034318937720549,0.8506475591768703,-1.060084327187181,-1.0024917298189338,1.0265028427786054,-1.0850533761319963,high,low,,ISIC_0058723.JPG,,ISIC_0032766.JPG,28,26,false,0.2500000000000001,hl,keypress(j),0,true,710939.2000000477,710939,706859.188,706868.2999999523,706875.914,710950.633,1,40,39,
sequence,flow.Sequence,8_38,2023-11-30T19:45:02.255Z,,,,,,,,,,,4063.0860000000102,completion,,,,,,,high,low,,,,,,,false,,,,,true,710939.2999999523,710939,706859.188,706868.2999999523,706875.914,710950.633,1,40,,
trial,html.Screen,8_39_0,2023-11-30T19:45:06.039Z,,,,2,0,-0.0102871556606504,,0.04,true,ll,3772.7670000953367,response,-1.0581711446393522,0.8006475591768702,-1.060084327187181,-1.1376053597134304,1.0265028427786054,-1.0850533761319963,low,low,,ISIC_1805163.JPG,,ISIC_0014987.JPG,28,41,false,0.1,ll,keypress(f),0,true,714723.5,714723.4000000954,710933.974,710939.4000000954,710950.633,714741.819,1,40,40,
sequence,flow.Sequence,8_39,2023-11-30T19:45:06.039Z,,,,,,,,,,,3772.7670000953367,completion,,,,,,,low,low,,,,,,,false,,,,,true,714723.7999999523,714723.4000000954,710933.974,710939.4000000954,710950.633,714741.819,1,40,,
stair_loop,flow.Loop,8,2023-11-30T19:45:06.040Z,,,,,,,,,,,211476.88400009536,completion,,,,,,,,,,,,,,,false,,,,,true,714723.9000000954,714723.4000000954,503229.944,503243.2999999523,503246.516,714741.819,1,40,,
exp_instructions,html.Screen,9,2023-11-30T19:45:19.119Z,,,,,,,,,,,13060.781000143033,response,,,,,,,,,,,,,,,,,continue,keypress(Space),,,727803,727802.600000143,714707.838,714724,714741.819,727816.599,,,,
trial,html.Screen,10_0_0,2023-11-30T19:45:24.567Z,,,,1,0.0220026381002083,-0.0170756452911772,,0.04,false,hl,5434.301000095322,response,0.7088606387153258,0.9126948977121181,-0.9563093862134918,-0.948610930521224,0.9642375170879964,-1.0516464203436793,high,low,,ISIC_5347806.JPG,9,ISIC_0026293.JPG,28,26,false,0.2600000000000001,lh,keypress(e),0,false,733251,733250.9000000954,727799.806,727803.100000143,727816.599,733260.515,5,600,1,
break,html.Screen,10_0_1,2023-11-30T19:45:24.567Z,,,,,,,,,,,NaN,,,,,,,,high,low,,,,,,,false,,,,,false,733251.7000000477,733251.5,,733251.2000000477,,733260.515,5,600,,
break_continue,html.Screen,10_0_2,2023-11-30T19:45:24.568Z,,,,,,,,,,,NaN,,,,,,,,high,low,,,,,,,false,,,,,false,733252,733251.9000000954,,733251.7000000477,,733260.515,5,600,,
sequence,flow.Sequence,10_0,2023-11-30T19:45:24.568Z,,,,,,,,,,,5435.301000095322,completion,,,,,,,high,low,,,,,,,false,,,,,false,733252.2000000477,733251.9000000954,727799.806,727803.100000143,727816.599,733260.515,5,600,,
trial,html.Screen,10_1_0,2023-11-30T19:45:27.231Z,,,,1,0.0118382036798625,0.0300588245877227,,0.04,true,ll,2654.2849999523023,response,-1.0470212693307346,0.9126948977121181,-0.9563093862134918,-1.097091139433204,0.9642375170879964,-1.0516464203436793,low,low,,ISIC_4748605.JPG,10,ISIC_0068234.JPG,28,33,false,0.1,ll,keypress(f),0,false,735914.7999999523,735914.7999999523,733243.79,733252.2000000477,733260.515,735932.798,5,600,2,
break,html.Screen,10_1_1,2023-11-30T19:45:27.231Z,,,,,,,,,,,NaN,,,,,,,,low,low,,,,,,,false,,,,,false,735915.2999999523,735915.100000143,,735915,,735932.798,5,600,,
break_continue,html.Screen,10_1_2,2023-11-30T19:45:27.231Z,,,,,,,,,,,NaN,,,,,,,,low,low,,,,,,,false,,,,,false,735915.4000000954,735915.4000000954,,735915.2999999523,,735932.798,5,600,,
sequence,flow.Sequence,10_1,2023-11-30T19:45:27.231Z,,,,,,,,,,,2654.8850000953535,completion,,,,,,,low,low,,,,,,,false,,,,,false,735915.5,735915.4000000954,733243.79,733252.2000000477,733260.515,735932.798,5,600,,
trial,html.Screen,10_2_0,2023-11-30T19:45:31.103Z,,,,1,-0.0241900387072296,0.0339955304424736,,0.04,false,hl,3853.902000047732,response,0.6904571159175875,0.9126948977121181,-0.9563093862134918,-0.8338159233479188,0.9642375170879964,-1.0516464203436793,high,low,,ISIC_0010789.JPG,10,ISIC_6381981.JPG,28,26,false,0.2600000000000001,hh,keypress(i),0,false,739786.7999999523,739786.7000000477,735898.959,735915.5,735932.798,739789.875,5,600,3,
break,html.Screen,10_2_1,2023-11-30T19:45:31.103Z,,,,,,,,,,,NaN,,,,,,,,high,low,,,,,,,false,,,,,false,739787.2000000477,739787.100000143,,739786.9000000954,,739789.875,5,600,,
break_continue,html.Screen,10_2_2,2023-11-30T19:45:31.103Z,,,,,,,,,,,NaN,,,,,,,,high,low,,,,,,,false,,,,,false,739787.2999999523,739787.2000000477,,739787.2000000477,,739789.875,5,600,,
sequence,flow.Sequence,10_2,2023-11-30T19:45:31.103Z,,,,,,,,,,,3854.402000047732,completion,,,,,,,high,low,,,,,,,false,,,,,false,739787.4000000954,739787.2000000477,735898.959,735915.5,735932.798,739789.875,5,600,,
trial,html.Screen,10_3_0,2023-11-30T19:45:34.183Z,,,,1,0.0258224118104549,-0.0029364553353019,,0.04,true,hh,3077.0250000953674,response,0.8618587928964498,0.9126948977121181,-0.9563093862134918,0.9138141165916164,0.9642375170879964,-1.0516464203436793,high,high,,ISIC_8325226.JPG,9,ISIC_0004564.JPG,28,38,false,0.1,hh,keypress(i),0,false,742867.100000143,742866.9000000954,739773.173,739787.4000000954,739789.875,742879.252,5,600,4,
break,html.Screen,10_3_1,2023-11-30T19:45:34.183Z,,,,,,,,,,,NaN,,,,,,,,high,high,,,,,,,false,,,,,false,742867.5,742867.5,,742867.2000000477,,742879.252,5,600,,
break_continue,html.Screen,10_3_2,2023-11-30T19:45:34.183Z,,,,,,,,,,,NaN,,,,,,,,high,high,,,,,,,false,,,,,false,742867.7000000477,742867.7000000477,,742867.600000143,,742879.252,5,600,,
sequence,flow.Sequence,10_3,2023-11-30T19:45:34.183Z,,,,,,,,,,,3077.8250000476837,completion,,,,,,,high,high,,,,,,,false,,,,,false,742867.7999999523,742867.7000000477,739773.173,739787.4000000954,739789.875,742879.252,5,600,,
trial,html.Screen,10_4_0,2023-11-30T19:45:37.656Z,,,,1,-0.0388334549081915,0.0303399972963369,,0.04,true,ll,3459.648000095389,response,-0.9657289110900686,0.9126948977121181,-0.9563093862134918,-0.9643331448263084,0.9642375170879964,-1.0516464203436793,low,low,,ISIC_4961708.JPG,10,ISIC_0063447.JPG,28,33,false,0.1,ll,keypress(f),0,false,746339.100000143,746338.9000000954,742862.512,742867.7999999523,742879.252,746352.664,5,600,5,
break,html.Screen,10_4_1,2023-11-30T19:45:37.657Z,,,,,,,,,,,NaN,,,,,,,,low,low,,,,,,,false,,,,,false,746339.600000143,746339.4000000954,,746339.2999999523,,746352.664,5,600,,
break_continue,html.Screen,10_4_2,2023-11-30T19:45:37.657Z,,,,,,,,,,,NaN,,,,,,,,low,low,,,,,,,false,,,,,false,746339.7999999523,746339.7000000477,,746339.600000143,,746352.664,5,600,,
sequence,flow.Sequence,10_4,2023-11-30T19:45:37.657Z,,,,,,,,,,,3460.448000047705,completion,,,,,,,low,low,,,,,,,false,,,,,false,746339.9000000954,746339.7000000477,742862.512,742867.7999999523,742879.252,746352.664,5,600,,
trial,html.Screen,10_5_0,2023-11-30T19:45:43.264Z,,,,1,0.0286056110007553,0.036125199756515,,0.04,false,hh,5594.036000047694,response,1.0040510013663018,0.9126948977121181,-0.9563093862134918,0.9707475308236284,0.9642375170879964,-1.0516464203436793,high,high,,ISIC_6535558.JPG,9,ISIC_0026911.JPG,28,38,false,0.1,hl,keypress(j),0,false,751946.7999999523,751946.7000000477,746335.936,746339.9000000954,746352.664,751963.579,5,600,6,
break,html.Screen,10_5_1,2023-11-30T19:45:43.264Z,,,,,,,,,,,NaN,,,,,,,,high,high,,,,,,,false,,,,,false,751947.2000000477,751947.100000143,,751946.9000000954,,751963.579,5,600,,
break_continue,html.Screen,10_5_2,2023-11-30T19:45:43.265Z,,,,,,,,,,,NaN,,,,,,,,high,high,,,,,,,false,,,,,false,751947.4000000954,751947.2999999523,,751947.2000000477,,751963.579,5,600,,
sequence,flow.Sequence,10_5,2023-11-30T19:45:43.265Z,,,,,,,,,,,5594.6359999523265,completion,,,,,,,high,high,,,,,,,false,,,,,false,751947.5,751947.2999999523,746335.936,746339.9000000954,746352.664,751963.579,5,600,,
trial,html.Screen,10_6_0,2023-11-30T19:45:50.328Z,,,,1,0.0257631352671967,0.0202837002774028,,0.04,true,lh,7047.121000047657,response,-0.7856143618373893,0.9126948977121181,-0.9563093862134918,1.0273608829432213,0.9642375170879964,-1.0516464203436793,low,high,,ISIC_0032797.JPG,10,ISIC_9303849.JPG,28,28,false,0.20000000000000007,lh,keypress(e),0,false,759010.7999999523,759010.7000000477,751946.864,751947.5,751963.579,759027.286,5,600,7,
break,html.Screen,10_6_1,2023-11-30T19:45:50.328Z,,,,,,,,,,,NaN,,,,,,,,low,high,,,,,,,false,,,,,false,759011.2999999523,759011.2000000477,,759011,,759027.286,5,600,,
break_continue,html.Screen,10_6_2,2023-11-30T19:45:50.329Z,,,,,,,,,,,NaN,,,,,,,,low,high,,,,,,,false,,,,,false,759011.5,759011.4000000954,,759011.2999999523,,759027.286,5,600,,
sequence,flow.Sequence,10_6,2023-11-30T19:45:50.329Z,,,,,,,,,,,7047.82100009534,completion,,,,,,,low,high,,,,,,,false,,,,,false,759011.600000143,759011.4000000954,751946.864,751947.5,751963.579,759027.286,5,600,,
trial,html.Screen,10_7_0,2023-11-30T19:45:55.608Z,,,,1,0.0118382036798625,0.0300588245877227,,0.04,false,hl,5263.41400004772,response,0.653428169925849,0.9126948977121181,-0.9563093862134918,-1.1440026895944202,0.9642375170879964,-1.0516464203436793,high,low,,ISIC_4748605.JPG,10,ISIC_0031214.JPG,28,26,false,0.2600000000000001,hh,keypress(i),0,false,764290.9000000954,764290.7000000477,759010.56,759011.600000143,759027.286,764304.242,5,600,8,
break,html.Screen,10_7_1,2023-11-30T19:45:55.608Z,,,,,,,,,,,NaN,,,,,,,,high,low,,,,,,,false,,,,,false,764291.2000000477,764291.100000143,,764290.9000000954,,764304.242,5,600,,
break_continue,html.Screen,10_7_2,2023-11-30T19:45:55.609Z,,,,,,,,,,,NaN,,,,,,,,high,low,,,,,,,false,,,,,false,764291.5,764291.2999999523,,764291.2000000477,,764304.242,5,600,,
sequence,flow.Sequence,10_7,2023-11-30T19:45:55.609Z,,,,,,,,,,,5264.013999952353,completion,,,,,,,high,low,,,,,,,false,,,,,false,764291.600000143,764291.2999999523,759010.56,759011.600000143,759027.286,764304.242,5,600,,
trial,html.Screen,10_8_0,2023-11-30T19:46:00.280Z,,,,1,-0.0109416414475118,-0.005246498750811,,0.04,false,ll,4658.758000000031,response,-1.0437879361189135,0.9126948977121181,-0.9563093862134918,-1.0467954238943018,0.9642375170879964,-1.0516464203436793,low,low,,ISIC_0064279.JPG,9,ISIC_0011626.JPG,28,33,false,0.1,hl,keypress(j),0,false,768963,768963,764287.538,764291.7000000477,764304.242,768979.973,5,600,9,
break,html.Screen,10_8_1,2023-11-30T19:46:00.281Z,,,,,,,,,,,NaN,,,,,,,,low,low,,,,,,,false,,,,,false,768963.600000143,768963.4000000954,,768963.2000000477,,768979.973,5,600,,
break_continue,html.Screen,10_8_2,2023-11-30T19:46:00.281Z,,,,,,,,,,,NaN,,,,,,,,low,low,,,,,,,false,,,,,false,768963.7999999523,768963.7000000477,,768963.7000000477,,768979.973,5,600,,
sequence,flow.Sequence,10_8,2023-11-30T19:46:00.281Z,,,,,,,,,,,4659.458000047714,completion,,,,,,,low,low,,,,,,,false,,,,,false,768964,768963.7000000477,764287.538,764291.600000143,764304.242,768979.973,5,600,,
trial,html.Screen,10_9_0,2023-11-30T19:46:04.912Z,,,,1,0.0283578106329894,-0.0088840758711548,,0.04,true,lh,4615.127000143053,response,-0.8350129142228142,0.9126948977121181,-0.9563093862134918,0.8172547818270586,0.9642375170879964,-1.0516464203436793,low,high,,ISIC_0060707.JPG,9,ISIC_0301568.JPG,28,28,false,0.20000000000000007,lh,keypress(e),0,false,773595.100000143,773595.100000143,768963.27,768964,768979.973,773605.647,5,600,10,
break,html.Screen,10_9_1,2023-11-30T19:46:04.913Z,,,,,,,,,,,NaN,,,,,,,,low,high,,,,,,,false,,,,,false,773595.5,773595.5,,773595.2999999523,,773605.647,5,600,,
break_continue,html.Screen,10_9_2,2023-11-30T19:46:04.913Z,,,,,,,,,,,NaN,,,,,,,,low,high,,,,,,,false,,,,,false,773595.7000000477,773595.600000143,,773595.5,,773605.647,5,600,,
sequence,flow.Sequence,10_9,2023-11-30T19:46:04.913Z,,,,,,,,,,,4615.627000143053,completion,,,,,,,low,high,,,,,,,false,,,,,false,773595.7000000477,773595.600000143,768963.27,768964,768979.973,773605.647,5,600,,
trial,html.Screen,10_10_0,2023-11-30T19:46:11.969Z,,,,1,0.0200295718112167,0.0155559071275806,,0.04,true,hl,7045.5530000476865,response,0.6761556401281956,0.9126948977121181,-0.9563093862134918,-0.9655386457143784,0.9642375170879964,-1.0516464203436793,high,low,,ISIC_0061343.JPG,9,ISIC_8268025.JPG,28,26,false,0.2600000000000001,hl,keypress(j),0,false,780651.2999999523,780651.2000000477,773588.947,773595.7999999523,773605.647,780652.69,5,600,11,
break,html.Screen,10_10_1,2023-11-30T19:46:11.969Z,,,,,,,,,,,NaN,,,,,,,,high,low,,,,,,,false,,,,,false,780651.600000143,780651.600000143,,780651.4000000954,,780652.69,5,600,,
break_continue,html.Screen,10_10_2,2023-11-30T19:46:11.969Z,,,,,,,,,,,NaN,,,,,,,,high,low,,,,,,,false,,,,,false,780651.9000000954,780651.7999999523,,780651.7000000477,,780652.69,5,600,,
sequence,flow.Sequence,10_10,2023-11-30T19:46:11.969Z,,,,,,,,,,,7046.152999952319,completion,,,,,,,high,low,,,,,,,false,,,,,false,780651.9000000954,780651.7999999523,773588.947,773595.7000000477,773605.647,780652.69,5,600,,
trial,html.Screen,10_11_0,2023-11-30T19:46:19.657Z,,,,1,-0.0241900387072296,0.0339955304424736,,0.04,false,hl,7687.310000000056,response,0.7088606387153258,0.9126948977121181,-0.9563093862134918,-0.948610930521224,0.9642375170879964,-1.0516464203436793,high,low,,ISIC_0010789.JPG,9,ISIC_0026293.JPG,28,26,false,0.2600000000000001,hh,keypress(i),0,false,788340.2999999523,788340,780635.952,780652,780652.69,788351.06,5,600,12,
break,html.Screen,10_11_1,2023-11-30T19:46:19.658Z,,,,,,,,,,,NaN,,,,,,,,high,low,,,,,,,false,,,,,false,788340.7999999523,788340.7000000477,,788340.5,,788351.06,5,600,,
break_continue,html.Screen,10_11_2,2023-11-30T19:46:19.658Z,,,,,,,,,,,NaN,,,,,,,,high,low,,,,,,,false,,,,,false,788340.9000000954,788340.9000000954,,788340.7999999523,,788351.06,5,600,,
sequence,flow.Sequence,10_11,2023-11-30T19:46:19.658Z,,,,,,,,,,,7688.210000095423,completion,,,,,,,high,low,,,,,,,false,,,,,false,788341,788340.9000000954,780635.952,780652,780652.69,788351.06,5,600,,
trial,html.Screen,10_12_0,2023-11-30T19:46:22.457Z,,,,1,-0.0065172941585523,0.0118857043117315,,0.04,true,hh,2788.5400001429953,response,0.8791357280466414,0.9126948977121181,-0.9563093862134918,0.9124690562312904,0.9642375170879964,-1.0516464203436793,high,high,,ISIC_6119202.JPG,9,ISIC_4544879.JPG,28,38,false,0.1,hh,keypress(i),0,false,791139.7999999523,791139.600000143,788334.277,788341.100000143,788351.06,791156.554,5,600,13,
break,html.Screen,10_12_1,2023-11-30T19:46:22.458Z,,,,,,,,,,,NaN,,,,,,,,high,high,,,,,,,false,,,,,false,791140.2999999523,791140.2000000477,,791140,,791156.554,5,600,,
break_continue,html.Screen,10_12_2,2023-11-30T19:46:22.458Z,,,,,,,,,,,NaN,,,,,,,,high,high,,,,,,,false,,,,,false,791140.7000000477,791140.600000143,,791140.4000000954,,791156.554,5,600,,
sequence,flow.Sequence,10_12,2023-11-30T19:46:22.458Z,,,,,,,,,,,2789.5400001429953,completion,,,,,,,high,high,,,,,,,false,,,,,false,791140.9000000954,791140.600000143,788334.277,788341,788351.06,791156.554,5,600,,
trial,html.Screen,10_13_0,2023-11-30T19:46:28.104Z,,,,1,0.0009714874637896,-0.0174815595031679,,0.04,false,ll,5630.346000095364,response,-0.9836672814341636,0.9126948977121181,-0.9563093862134918,-1.0629122718286683,0.9642375170879964,-1.0516464203436793,low,low,,ISIC_9848743.JPG,8,ISIC_0062161.JPG,28,33,false,0.1,hl,keypress(j),0,false,796787,796786.9000000954,791140.031,791141,791156.554,796800.852,5,600,14,
break,html.Screen,10_13_1,2023-11-30T19:46:28.104Z,,,,,,,,,,,NaN,,,,,,,,low,low,,,,,,,false,,,,,false,796787.2999999523,796787.2999999523,,796787.100000143,,796800.852,5,600,,
break_continue,html.Screen,10_13_2,2023-11-30T19:46:28.105Z,,,,,,,,,,,NaN,,,,,,,,low,low,,,,,,,false,,,,,false,796787.5,796787.5,,796787.4000000954,,796800.852,5,600,,
sequence,flow.Sequence,10_13,2023-11-30T19:46:28.105Z,,,,,,,,,,,5630.945999999996,completion,,,,,,,low,low,,,,,,,false,,,,,false,796787.600000143,796787.5,791140.031,791141,791156.554,796800.852,5,600,,
trial,html.Screen,10_14_0,2023-11-30T19:46:33.753Z,,,,1,-0.0109416414475118,-0.005246498750811,,0.04,false,lh,5634.447999952361,response,-1.0926414044454305,0.9126948977121181,-0.9563093862134918,0.7741624649032207,0.9642375170879964,-1.0516464203436793,low,high,,ISIC_0064279.JPG,9,ISIC_2355513.JPG,28,28,false,0.20000000000000007,hh,keypress(i),0,false,802435.5,802435.2999999523,796784.095,796787.600000143,796800.852,802445.097,5,600,15,
break,html.Screen,10_14_1,2023-11-30T19:46:33.753Z,,,,,,,,,,,NaN,,,,,,,,low,high,,,,,,,false,,,,,false,802436.100000143,802435.9000000954,,802435.7000000477,,802445.097,5,600,,
break_continue,html.Screen,10_14_2,2023-11-30T19:46:33.754Z,,,,,,,,,,,NaN,,,,,,,,low,high,,,,,,,false,,,,,false,802436.5,802436.2999999523,,802436.2000000477,,802445.097,5,600,,
sequence,flow.Sequence,10_14,2023-11-30T19:46:33.754Z,,,,,,,,,,,5635.447999952361,completion,,,,,,,low,high,,,,,,,false,,,,,false,802436.600000143,802436.2999999523,796784.095,796787.600000143,796800.852,802445.097,5,600,,
trial,html.Screen,10_15_0,2023-11-30T19:46:36.736Z,,,,1,0.0286056110007553,0.036125199756515,,0.04,true,hl,2973.603000047733,response,0.7882758084023446,0.9126948977121181,-0.9563093862134918,-0.8296405881378283,0.9642375170879964,-1.0516464203436793,high,low,,ISIC_6535558.JPG,9,ISIC_0065882.JPG,28,26,false,0.2600000000000001,hl,keypress(j),0,false,805418.7999999523,805418.7000000477,802428.383,802436.7000000477,802445.097,805434.218,5,600,16,
break,html.Screen,10_15_1,2023-11-30T19:46:36.736Z,,,,,,,,,,,NaN,,,,,,,,high,low,,,,,,,false,,,,,false,805419.2999999523,805419.100000143,,805419,,805434.218,5,600,,
break_continue,html.Screen,10_15_2,2023-11-30T19:46:36.737Z,,,,,,,,,,,NaN,,,,,,,,high,low,,,,,,,false,,,,,false,805419.600000143,805419.4000000954,,805419.2999999523,,805434.218,5,600,,
sequence,flow.Sequence,10_15,2023-11-30T19:46:36.737Z,,,,,,,,,,,2974.303000095417,completion,,,,,,,high,low,,,,,,,false,,,,,false,805419.7000000477,805419.4000000954,802428.383,802436.7000000477,802445.097,805434.218,5,600,,
trial,html.Screen,10_16_0,2023-11-30T19:46:41.835Z,,,,1,0.0258224118104549,-0.0029364553353019,,0.04,false,hl,5081.682000095374,response,0.8472024037189965,0.9126948977121181,-0.9563093862134918,-0.986370061404882,0.9642375170879964,-1.0516464203436793,high,low,,ISIC_8325226.JPG,10,ISIC_0054355.JPG,28,26,false,0.2600000000000001,lh,keypress(e),0,false,810516.2000000477,810515.9000000954,805417.685,805419.7000000477,805434.218,810527.548,5,600,17,
break,html.Screen,10_16_1,2023-11-30T19:46:41.836Z,,,,,,,,,,,NaN,,,,,,,,high,low,,,,,,,false,,,,,false,810517.100000143,810516.9000000954,,810516.4000000954,,810527.548,5,600,,
break_continue,html.Screen,10_16_2,2023-11-30T19:46:41.836Z,,,,,,,,,,,NaN,,,,,,,,high,low,,,,,,,false,,,,,false,810517.7000000477,810517.4000000954,,810517.2000000477,,810527.548,5,600,,
sequence,flow.Sequence,10_16,2023-11-30T19:46:41.837Z,,,,,,,,,,,5083.182000095374,completion,,,,,,,high,low,,,,,,,false,,,,,false,810517.9000000954,810517.4000000954,805417.685,805419.7000000477,805434.218,810527.548,5,600,,
trial,html.Screen,10_17_0,2023-11-30T19:46:48.218Z,,,,1,-0.0065172941585523,0.0118857043117315,,0.04,false,ll,6371.751999952365,response,-0.9912923619519602,0.9126948977121181,-0.9563093862134918,-1.1419452407123123,0.9642375170879964,-1.0516464203436793,low,low,,ISIC_6119202.JPG,9,ISIC_0064863.JPG,28,33,false,0.1,hl,keypress(j),0,false,816899.5,816899.2999999523,810510.9,810518,810527.548,816906.533,5,600,18,
break,html.Screen,10_17_1,2023-11-30T19:46:48.219Z,,,,,,,,,,,NaN,,,,,,,,low,low,,,,,,,false,,,,,false,816899.9000000954,816899.7999999523,,816899.600000143,,816906.533,5,600,,
break_continue,html.Screen,10_17_2,2023-11-30T19:46:48.219Z,,,,,,,,,,,NaN,,,,,,,,low,low,,,,,,,false,,,,,false,816900.2999999523,816900.2000000477,,816900,,816906.533,5,600,,
sequence,flow.Sequence,10_17,2023-11-30T19:46:48.219Z,,,,,,,,,,,6372.652000047732,completion,,,,,,,low,low,,,,,,,false,,,,,false,816900.4000000954,816900.2000000477,810510.9,810518,810527.548,816906.533,5,600,,
trial,html.Screen,10_18_0,2023-11-30T19:46:54.642Z,,,,1,-0.0199950873045219,-0.0172506388509166,,0.04,false,ll,6416.466999999946,response,-0.9619672413799648,0.9126948977121181,-0.9563093862134918,-1.000847348662667,0.9642375170879964,-1.0516464203436793,low,low,,ISIC_0029906.JPG,9,ISIC_0067205.JPG,28,33,false,0.1,hl,keypress(j),0,false,823323.2000000477,823323,816890.052,816900.4000000954,816906.533,823335.733,5,600,19,
break,html.Screen,10_18_1,2023-11-30T19:46:54.642Z,,,,,,,,,,,NaN,,,,,,,,low,low,,,,,,,false,,,,,false,823323.600000143,823323.5,,823323.2999999523,,823335.733,5,600,,
break_continue,html.Screen,10_18_2,2023-11-30T19:46:54.643Z,,,,,,,,,,,NaN,,,,,,,,low,low,,,,,,,false,,,,,false,823324,823323.7999999523,,823323.7000000477,,823335.733,5,600,,
sequence,flow.Sequence,10_18,2023-11-30T19:46:54.643Z,,,,,,,,,,,6417.266999952262,completion,,,,,,,low,low,,,,,,,false,,,,,false,823324,823323.7999999523,816890.052,816900.4000000954,816906.533,823335.733,5,600,,
trial,html.Screen,10_19_0,2023-11-30T19:46:57.594Z,,,,1,-0.0088741920055285,-0.0058246074740588,,0.04,true,hh,2939.566999952309,response,0.8775389671837809,0.9126948977121181,-0.9563093862134918,0.97697295261856,0.9642375170879964,-1.0516464203436793,high,high,,ISIC_4136663.JPG,10,ISIC_0071957.JPG,28,38,false,0.1,hh,keypress(i),0,false,826275.5,826275.2999999523,823319.172,823324.100000143,823335.733,826291.43,5,600,20,
break,html.Screen,10_19_1,2023-11-30T19:46:57.595Z,,,,,,,,,,,NaN,,,,,,,,high,high,,,,,,,false,,,,,false,826276,826275.9000000954,,826275.7000000477,,826291.43,5,600,,
break_continue,html.Screen,10_19_2,2023-11-30T19:46:57.595Z,,,,,,,,,,,NaN,,,,,,,,high,high,,,,,,,false,,,,,false,826276.4000000954,826276.2000000477,,826276.100000143,,826291.43,5,600,,
sequence,flow.Sequence,10_19,2023-11-30T19:46:57.595Z,,,,,,,,,,,2940.4670000476763,completion,,,,,,,high,high,,,,,,,false,,,,,false,826276.5,826276.2000000477,823319.172,823324,823335.733,826291.43,5,600,,
trial,html.Screen,10_20_0,2023-11-30T19:47:02.490Z,,,,1,0.0258224118104549,-0.0029364553353019,,0.04,false,hl,4879.470000095316,response,0.8472024037189965,0.9126948977121181,-0.9563093862134918,-0.986370061404882,0.9642375170879964,-1.0516464203436793,high,low,,ISIC_8325226.JPG,9,ISIC_0054355.JPG,28,26,false,0.2600000000000001,lh,keypress(e),0,false,831171,831170.9000000954,826274.961,826276.7000000477,826291.43,831184.457,5,600,21,
break,html.Screen,10_20_1,2023-11-30T19:47:02.490Z,,,,,,,,,,,NaN,,,,,,,,high,low,,,,,,,false,,,,,false,831171.4000000954,831171.2000000477,,831171.100000143,,831184.457,5,600,,
break_continue,html.Screen,10_20_2,2023-11-30T19:47:02.490Z,,,,,,,,,,,NaN,,,,,,,,high,low,,,,,,,false,,,,,false,831171.5,831171.4000000954,,831171.4000000954,,831184.457,5,600,,
sequence,flow.Sequence,10_20,2023-11-30T19:47:02.490Z,,,,,,,,,,,4879.970000095316,completion,,,,,,,high,low,,,,,,,false,,,,,false,831171.7000000477,831171.4000000954,826274.961,826276.7000000477,826291.43,831184.457,5,600,,
trial,html.Screen,10_21_0,2023-11-30T19:47:09.401Z,,,,1,0.0308384937406319,-0.0038396364323947,,0.04,false,hl,6898.243000047631,response,0.8926515927689261,0.9126948977121181,-0.9563093862134918,-0.7935960767768927,0.9642375170879964,-1.0516464203436793,high,low,,ISIC_0029825.JPG,9,ISIC_8901371.JPG,28,26,false,0.2600000000000001,ll,keypress(f),0,false,838082.7999999523,838082.7000000477,831167.715,831171.7000000477,831184.457,838097.741,5,600,22,
break,html.Screen,10_21_1,2023-11-30T19:47:09.402Z,,,,,,,,,,,NaN,,,,,,,,high,low,,,,,,,false,,,,,false,838083.2000000477,838083.100000143,,838082.9000000954,,838097.741,5,600,,
break_continue,html.Screen,10_21_2,2023-11-30T19:47:09.402Z,,,,,,,,,,,NaN,,,,,,,,high,low,,,,,,,false,,,,,false,838083.2999999523,838083.2000000477,,838083.2000000477,,838097.741,5,600,,
sequence,flow.Sequence,10_21,2023-11-30T19:47:09.402Z,,,,,,,,,,,6898.743000047631,completion,,,,,,,high,low,,,,,,,false,,,,,false,838083.4000000954,838083.2000000477,831167.715,831171.7000000477,831184.457,838097.741,5,600,,
trial,html.Screen,10_22_0,2023-11-30T19:47:14.866Z,,,,1,-0.0388334549081915,0.0303399972963369,,0.04,false,hh,5449.258999999962,response,0.8571747957352402,0.9126948977121181,-0.9563093862134918,0.9896604996768869,0.9642375170879964,-1.0516464203436793,high,high,,ISIC_4961708.JPG,9,ISIC_5363229.JPG,28,38,false,0.1,hl,keypress(j),0,false,843547,843547,838081.062,838083.5,838097.741,843558.638,5,600,23,
break,html.Screen,10_22_1,2023-11-30T19:47:14.866Z,,,,,,,,,,,NaN,,,,,,,,high,high,,,,,,,false,,,,,false,843547.2999999523,843547.2999999523,,843547.2000000477,,843558.638,5,600,,
break_continue,html.Screen,10_22_2,2023-11-30T19:47:14.866Z,,,,,,,,,,,NaN,,,,,,,,high,high,,,,,,,false,,,,,false,843547.600000143,843547.5,,843547.5,,843558.638,5,600,,
sequence,flow.Sequence,10_22,2023-11-30T19:47:14.866Z,,,,,,,,,,,5449.758999999962,completion,,,,,,,high,high,,,,,,,false,,,,,false,843547.600000143,843547.5,838081.062,838083.5,838097.741,843558.638,5,600,,
trial,html.Screen,10_23_0,2023-11-30T19:47:20.706Z,,,,1,0.0258224118104549,-0.0029364553353019,,0.04,true,ll,5828.462000143016,response,-1.0437879361189135,0.9126948977121181,-0.9563093862134918,-1.0467954238943018,0.9642375170879964,-1.0516464203436793,low,low,,ISIC_8325226.JPG,9,ISIC_0011626.JPG,28,33,false,0.1,ll,keypress(f),0,false,849387.2000000477,849387.100000143,843541.908,843547.7000000477,843558.638,849403.335,5,600,24,
break,html.Screen,10_23_1,2023-11-30T19:47:20.706Z,,,,,,,,,,,NaN,,,,,,,,low,low,,,,,,,false,,,,,false,849387.5,849387.5,,849387.2999999523,,849403.335,5,600,,
break_continue,html.Screen,10_23_2,2023-11-30T19:47:20.706Z,,,,,,,,,,,NaN,,,,,,,,low,low,,,,,,,false,,,,,false,849387.7999999523,849387.7000000477,,849387.600000143,,849403.335,5,600,,
sequence,flow.Sequence,10_23,2023-11-30T19:47:20.707Z,,,,,,,,,,,5829.062000047648,completion,,,,,,,low,low,,,,,,,false,,,,,false,849387.7999999523,849387.7000000477,843541.908,843547.7000000477,843558.638,849403.335,5,600,,
trial,html.Screen,10_24_0,2023-11-30T19:47:24.706Z,,,,1,-0.0065172941585523,0.0118857043117315,,0.04,false,ll,3983.9649999523535,response,-0.9575090175925351,0.9126948977121181,-0.9563093862134918,-1.0307816252475666,0.9642375170879964,-1.0516464203436793,low,low,,ISIC_6119202.JPG,9,ISIC_1369273.JPG,28,33,false,0.1,hh,keypress(i),0,false,853387.5,853387.2999999523,849386.383,849387.9000000954,849403.335,853394.2,5,600,25,
break,html.Screen,10_24_1,2023-11-30T19:47:24.707Z,,,,,,,,,,,NaN,,,,,,,,low,low,,,,,,,false,,,,,false,853388,853388,,853387.7000000477,,853394.2,5,600,,
break_continue,html.Screen,10_24_2,2023-11-30T19:47:24.707Z,,,,,,,,,,,NaN,,,,,,,,low,low,,,,,,,false,,,,,false,853388.5,853388.2999999523,,853388.2000000477,,853394.2,5,600,,
sequence,flow.Sequence,10_24,2023-11-30T19:47:24.707Z,,,,,,,,,,,3984.9649999523535,completion,,,,,,,low,low,,,,,,,false,,,,,false,853388.7000000477,853388.2999999523,849386.383,849387.9000000954,849403.335,853394.2,5,600,,
trial,html.Screen,10_25_0,2023-11-30T19:47:30.842Z,,,,1,0.0009714874637896,-0.0174815595031679,,0.04,false,hl,6128.900000143098,response,0.8513427412482127,0.9126948977121181,-0.9563093862134918,-0.9295303568095064,0.9642375170879964,-1.0516464203436793,high,low,,ISIC_9848743.JPG,9,ISIC_0034164.JPG,28,26,false,0.2600000000000001,hh,keypress(i),0,false,859523.2000000477,859523.100000143,853377.68,853388.7999999523,853394.2,859539.535,5,600,26,
break,html.Screen,10_25_1,2023-11-30T19:47:30.842Z,,,,,,,,,,,NaN,,,,,,,,high,low,,,,,,,false,,,,,false,859523.5,859523.4000000954,,859523.2000000477,,859539.535,5,600,,
break_continue,html.Screen,10_25_2,2023-11-30T19:47:30.842Z,,,,,,,,,,,NaN,,,,,,,,high,low,,,,,,,false,,,,,false,859523.600000143,859523.600000143,,859523.5,,859539.535,5,600,,
sequence,flow.Sequence,10_25,2023-11-30T19:47:30.842Z,,,,,,,,,,,6129.400000143098,completion,,,,,,,high,low,,,,,,,false,,,,,false,859523.7000000477,859523.600000143,853377.68,853388.7999999523,853394.2,859539.535,5,600,,
trial,html.Screen,10_26_0,2023-11-30T19:47:36.555Z,,,,1,0.0009714874637896,-0.0174815595031679,,0.04,true,hh,5696.365000095335,response,0.8526775318290718,0.9126948977121181,-0.9563093862134918,0.9398012765219632,0.9642375170879964,-1.0516464203436793,high,high,,ISIC_9848743.JPG,9,ISIC_2647198.JPG,28,38,false,0.1,hh,keypress(i),0,false,865236.100000143,865235.9000000954,859522.898,859523.7999999523,859539.535,865250.578,5,600,27,
break,html.Screen,10_26_1,2023-11-30T19:47:36.556Z,,,,,,,,,,,NaN,,,,,,,,high,high,,,,,,,false,,,,,false,865237.100000143,865236.7999999523,,865236.4000000954,,865250.578,5,600,,
break_continue,html.Screen,10_26_2,2023-11-30T19:47:36.556Z,,,,,,,,,,,NaN,,,,,,,,high,high,,,,,,,false,,,,,false,865237.7000000477,865237.4000000954,,865237.2000000477,,865250.578,5,600,,
sequence,flow.Sequence,10_26,2023-11-30T19:47:36.557Z,,,,,,,,,,,5697.865000095335,completion,,,,,,,high,high,,,,,,,false,,,,,false,865237.9000000954,865237.4000000954,859522.898,859523.7999999523,859539.535,865250.578,5,600,,
trial,html.Screen,10_27_0,2023-11-30T19:47:39.187Z,,,,1,0.0258224118104549,-0.0029364553353019,,0.04,true,hh,2616.221999952337,response,0.8171109532905281,0.9126948977121181,-0.9563093862134918,0.8757752877102069,0.9642375170879964,-1.0516464203436793,high,high,,ISIC_8325226.JPG,9,ISIC_0283506.JPG,28,38,false,0.1,hh,keypress(i),0,false,867866.7999999523,867866.7999999523,865233.965,865238.100000143,865250.578,867872.315,5,600,28,
break,html.Screen,10_27_1,2023-11-30T19:47:39.187Z,,,,,,,,,,,NaN,,,,,,,,high,high,,,,,,,false,,,,,false,867867.2999999523,867867.100000143,,867867,,867872.315,5,600,,
break_continue,html.Screen,10_27_2,2023-11-30T19:47:39.188Z,,,,,,,,,,,NaN,,,,,,,,high,high,,,,,,,false,,,,,false,867867.600000143,867867.4000000954,,867867.2999999523,,867872.315,5,600,,
sequence,flow.Sequence,10_27,2023-11-30T19:47:39.188Z,,,,,,,,,,,2616.822000095388,completion,,,,,,,high,high,,,,,,,false,,,,,false,867867.7000000477,867867.4000000954,865233.965,865238,865250.578,867872.315,5,600,,
trial,html.Screen,10_28_0,2023-11-30T19:47:44.140Z,,,,1,0.0283578106329894,-0.0088840758711548,,0.04,true,ll,4947.685000000056,response,-0.9430679164922772,0.9126948977121181,-0.9563093862134918,-1.124157865127501,0.9642375170879964,-1.0516464203436793,low,low,,ISIC_0060707.JPG,10,ISIC_0062111.JPG,28,33,false,0.1,ll,keypress(f),0,false,872820.2999999523,872820,867855.777,867867.7999999523,867872.315,872832.022,5,600,29,
break,html.Screen,10_28_1,2023-11-30T19:47:44.141Z,,,,,,,,,,,NaN,,,,,,,,low,low,,,,,,,false,,,,,false,872820.9000000954,872820.7999999523,,872820.5,,872832.022,5,600,,
break_continue,html.Screen,10_28_2,2023-11-30T19:47:44.142Z,,,,,,,,,,,NaN,,,,,,,,low,low,,,,,,,false,,,,,false,872821.4000000954,872821.2000000477,,872821.100000143,,872832.022,5,600,,
sequence,flow.Sequence,10_28,2023-11-30T19:47:44.142Z,,,,,,,,,,,4948.88500004774,completion,,,,,,,low,low,,,,,,,false,,,,,false,872821.600000143,872821.2000000477,867855.777,867867.7000000477,867872.315,872832.022,5,600,,
trial,html.Screen,10_29_0,2023-11-30T19:47:48.892Z,,,,1,-0.0198696495649504,0.0387952353063878,,0.04,false,hl,4739.578000143054,response,0.6928402368686908,0.9126948977121181,-0.9563093862134918,-0.8182069330979422,0.9642375170879964,-1.0516464203436793,high,low,,ISIC_6735970.JPG,8,ISIC_0046615.JPG,28,26,false,0.2600000000000001,ll,keypress(f),0,false,877571.7999999523,877571.600000143,872815.448,872821.7999999523,872832.022,877574.583,5,600,30,
break,html.Screen,10_29_1,2023-11-30T19:47:48.893Z,,,,,,,,,,,NaN,,,,,,,,high,low,,,,,,,false,,,,,false,877572.4000000954,877572.2999999523,,877572,,877574.583,5,600,,
break_continue,html.Screen,10_29_2,2023-11-30T19:47:48.893Z,,,,,,,,,,,NaN,,,,,,,,high,low,,,,,,,false,,,,,false,877572.9000000954,877572.7999999523,,877572.600000143,,877574.583,5,600,,
sequence,flow.Sequence,10_29,2023-11-30T19:47:48.893Z,,,,,,,,,,,4740.777999952319,completion,,,,,,,high,low,,,,,,,false,,,,,false,877573.100000143,877572.7999999523,872815.448,872821.7000000477,872832.022,877574.583,5,600,,
trial,html.Screen,10_30_0,2023-11-30T19:47:56.755Z,,,,1,0.0200295718112167,0.0155559071275806,,0.04,false,hh,7860.6170000477,response,0.8664556873113695,0.9126948977121181,-0.9563093862134918,0.9753511680199736,0.9642375170879964,-1.0516464203436793,high,high,,ISIC_0061343.JPG,10,ISIC_0340453.JPG,28,38,false,0.1,ll,keypress(f),0,false,885435.2000000477,885435.2000000477,877558.083,877573.2999999523,877574.583,885439.83,5,600,31,
break,html.Screen,10_30_1,2023-11-30T19:47:56.756Z,,,,,,,,,,,NaN,,,,,,,,high,high,,,,,,,false,,,,,false,885435.5,885435.5,,885435.2999999523,,885439.83,5,600,,
break_continue,html.Screen,10_30_2,2023-11-30T19:47:56.756Z,,,,,,,,,,,NaN,,,,,,,,high,high,,,,,,,false,,,,,false,885435.7000000477,885435.7000000477,,885435.600000143,,885439.83,5,600,,
sequence,flow.Sequence,10_30,2023-11-30T19:47:56.756Z,,,,,,,,,,,7861.1170000477,completion,,,,,,,high,high,,,,,,,false,,,,,false,885435.9000000954,885435.7000000477,877558.083,877573.2999999523,877574.583,885439.83,5,600,,
trial,html.Screen,10_31_0,2023-11-30T19:48:00.291Z,,,,1,0.0009714874637896,-0.0174815595031679,,0.04,true,hh,3531.0700000954093,response,0.8402120256990608,0.9126948977121181,-0.9563093862134918,0.8954736909537534,0.9642375170879964,-1.0516464203436793,high,high,,ISIC_9848743.JPG,9,ISIC_0580054.JPG,28,38,false,0.1,hh,keypress(i),0,false,888971,888970.9000000954,885423.109,885436,885439.83,888980.06,5,600,32,
break,html.Screen,10_31_1,2023-11-30T19:48:00.292Z,,,,,,,,,,,NaN,,,,,,,,high,high,,,,,,,false,,,,,false,888971.2999999523,888971.2999999523,,888971.100000143,,888980.06,5,600,,
break_continue,html.Screen,10_31_2,2023-11-30T19:48:00.292Z,,,,,,,,,,,NaN,,,,,,,,high,high,,,,,,,false,,,,,false,888971.5,888971.5,,888971.4000000954,,888980.06,5,600,,
sequence,flow.Sequence,10_31,2023-11-30T19:48:00.292Z,,,,,,,,,,,3531.670000000042,completion,,,,,,,high,high,,,,,,,false,,,,,false,888971.7000000477,888971.5,885423.109,885435.9000000954,885439.83,888980.06,5,600,,
trial,html.Screen,10_32_0,2023-11-30T19:48:05.708Z,,,,1,-0.0241900387072296,0.0339955304424736,,0.04,false,lh,5407.23999995226,response,-1.0116417541846066,0.9126948977121181,-0.9563093862134918,1.033442916947398,0.9642375170879964,-1.0516464203436793,low,high,,ISIC_0010789.JPG,9,ISIC_0031389.JPG,28,28,false,0.20000000000000007,ll,keypress(f),0,false,894387.4000000954,894387.2999999523,888963.364,888971.7000000477,888980.06,894390.598,5,600,33,
break,html.Screen,10_32_1,2023-11-30T19:48:05.708Z,,,,,,,,,,,NaN,,,,,,,,low,high,,,,,,,false,,,,,false,894388.100000143,894387.9000000954,,894387.7000000477,,894390.598,5,600,,
break_continue,html.Screen,10_32_2,2023-11-30T19:48:05.709Z,,,,,,,,,,,NaN,,,,,,,,low,high,,,,,,,false,,,,,false,894388.5,894388.2000000477,,894388.100000143,,894390.598,5,600,,
sequence,flow.Sequence,10_32,2023-11-30T19:48:05.709Z,,,,,,,,,,,5408.140000047628,completion,,,,,,,low,high,,,,,,,false,,,,,false,894388.600000143,894388.2000000477,888963.364,888971.7000000477,888980.06,894390.598,5,600,,
trial,html.Screen,10_33_0,2023-11-30T19:48:10.939Z,,,,1,-0.001445457736793,-0.0165307427449982,,0.04,false,hh,5228.302000095369,response,0.9345244335403022,0.9126948977121181,-0.9563093862134918,0.9139577511829252,0.9642375170879964,-1.0516464203436793,high,high,,ISIC_0027350.JPG,9,ISIC_5783440.JPG,28,38,false,0.1,lh,keypress(e),0,false,899619,899618.9000000954,894373.931,894388.7000000477,894390.598,899634.102,5,600,34,
break,html.Screen,10_33_1,2023-11-30T19:48:10.939Z,,,,,,,,,,,NaN,,,,,,,,high,high,,,,,,,false,,,,,false,899619.2999999523,899619.2999999523,,899619.100000143,,899634.102,5,600,,
break_continue,html.Screen,10_33_2,2023-11-30T19:48:10.940Z,,,,,,,,,,,NaN,,,,,,,,high,high,,,,,,,false,,,,,false,899619.5,899619.4000000954,,899619.4000000954,,899634.102,5,600,,
sequence,flow.Sequence,10_33,2023-11-30T19:48:10.940Z,,,,,,,,,,,5228.802000095369,completion,,,,,,,high,high,,,,,,,false,,,,,false,899619.5,899619.4000000954,894373.931,894388.7000000477,894390.598,899634.102,5,600,,
trial,html.Screen,10_34_0,2023-11-30T19:48:15.955Z,,,,1,0.0044063257337227,0.0172548282859886,,0.04,true,ll,5000.898000000045,response,-0.9237335170200494,0.9126948977121181,-0.9563093862134918,-1.123796693704591,0.9642375170879964,-1.0516464203436793,low,low,,ISIC_7413786.JPG,10,ISIC_0029652.JPG,28,33,false,0.1,ll,keypress(f),0,false,904635.2000000477,904635,899617.668,899619.600000143,899634.102,904643.931,5,600,35,
break,html.Screen,10_34_1,2023-11-30T19:48:15.956Z,,,,,,,,,,,NaN,,,,,,,,low,low,,,,,,,false,,,,,false,904635.5,904635.5,,904635.2999999523,,904643.931,5,600,,
break_continue,html.Screen,10_34_2,2023-11-30T19:48:15.956Z,,,,,,,,,,,NaN,,,,,,,,low,low,,,,,,,false,,,,,false,904635.7000000477,904635.600000143,,904635.5,,904643.931,5,600,,
sequence,flow.Sequence,10_34,2023-11-30T19:48:15.956Z,,,,,,,,,,,5001.498000143096,completion,,,,,,,low,low,,,,,,,false,,,,,false,904635.7999999523,904635.600000143,899617.668,899619.600000143,899634.102,904643.931,5,600,,
trial,html.Screen,10_35_0,2023-11-30T19:48:19.083Z,,,,1,-0.0088741920055285,-0.0058246074740588,,0.04,true,hh,3119.169000143069,response,0.8153135636447707,0.9126948977121181,-0.9563093862134918,0.9269022323245946,0.9642375170879964,-1.0516464203436793,high,high,,ISIC_4136663.JPG,9,ISIC_5239607.JPG,28,38,false,0.1,hh,keypress(i),0,false,907763.2999999523,907763.100000143,904627.23,904635.9000000954,904643.931,907766.605,5,600,36,
break,html.Screen,10_35_1,2023-11-30T19:48:19.084Z,,,,,,,,,,,NaN,,,,,,,,high,high,,,,,,,false,,,,,false,907763.7999999523,907763.7000000477,,907763.5,,907766.605,5,600,,
break_continue,html.Screen,10_35_2,2023-11-30T19:48:19.084Z,,,,,,,,,,,NaN,,,,,,,,high,high,,,,,,,false,,,,,false,907764.2000000477,907764.100000143,,907764,,907766.605,5,600,,
sequence,flow.Sequence,10_35,2023-11-30T19:48:19.085Z,,,,,,,,,,,3120.169000143069,completion,,,,,,,high,high,,,,,,,false,,,,,false,907764.4000000954,907764.100000143,904627.23,904635.9000000954,904643.931,907766.605,5,600,,
trial,html.Screen,10_36_0,2023-11-30T19:48:22.076Z,,,,1,0.0009714874637896,-0.0174815595031679,,0.04,false,ll,2989.194999952335,response,-0.9575090175925351,0.9126948977121181,-0.9563093862134918,-1.0307816252475666,0.9642375170879964,-1.0516464203436793,low,low,,ISIC_9848743.JPG,8,ISIC_1369273.JPG,28,33,false,0.1,hh,keypress(i),0,false,910756.100000143,910755.7999999523,907749.931,907764.5,907766.605,910772.494,5,600,37,
break,html.Screen,10_36_1,2023-11-30T19:48:22.077Z,,,,,,,,,,,NaN,,,,,,,,low,low,,,,,,,false,,,,,false,910757,910756.7999999523,,910756.4000000954,,910772.494,5,600,,
break_continue,html.Screen,10_36_2,2023-11-30T19:48:22.078Z,,,,,,,,,,,NaN,,,,,,,,low,low,,,,,,,false,,,,,false,910757.7000000477,910757.2999999523,,910757.2000000477,,910772.494,5,600,,
sequence,flow.Sequence,10_36,2023-11-30T19:48:22.078Z,,,,,,,,,,,2990.694999952335,completion,,,,,,,low,low,,,,,,,false,,,,,false,910757.9000000954,910757.2999999523,907749.931,907764.5,907766.605,910772.494,5,600,,
trial,html.Screen,10_37_0,2023-11-30T19:48:25.379Z,,,,1,0.0044063257337227,0.0172548282859886,,0.04,true,ll,3286.506000000052,response,-0.9159664042920548,0.9126948977121181,-0.9563093862134918,-0.96519839238634,0.9642375170879964,-1.0516464203436793,low,low,,ISIC_7413786.JPG,9,ISIC_0053617.JPG,28,33,false,0.1,ll,keypress(f),0,false,914059.2000000477,914059,910755.845,910758,910772.494,914062.172,5,600,38,
break,html.Screen,10_37_1,2023-11-30T19:48:25.380Z,,,,,,,,,,,NaN,,,,,,,,low,low,,,,,,,false,,,,,false,914059.5,914059.4000000954,,914059.2000000477,,914062.172,5,600,,
break_continue,html.Screen,10_37_2,2023-11-30T19:48:25.380Z,,,,,,,,,,,NaN,,,,,,,,low,low,,,,,,,false,,,,,false,914059.7999999523,914059.600000143,,914059.600000143,,914062.172,5,600,,
sequence,flow.Sequence,10_37,2023-11-30T19:48:25.380Z,,,,,,,,,,,3287.1060001431033,completion,,,,,,,low,low,,,,,,,false,,,,,false,914059.9000000954,914059.600000143,910755.845,910758,910772.494,914062.172,5,600,,
trial,html.Screen,10_38_0,2023-11-30T19:48:28.443Z,,,,1,-0.0065172941585523,0.0118857043117315,,0.04,false,lh,3060.8279999999795,response,-0.7872534775441857,0.9126948977121181,-0.9563093862134918,0.8441107693833454,0.9642375170879964,-1.0516464203436793,low,high,,ISIC_6119202.JPG,8,ISIC_0028788.JPG,28,28,false,0.20000000000000007,hh,keypress(i),0,false,917123.100000143,917123,914045.564,914059.9000000954,914062.172,917134.86,5,600,39,
break,html.Screen,10_38_1,2023-11-30T19:48:28.444Z,,,,,,,,,,,NaN,,,,,,,,low,high,,,,,,,false,,,,,false,917123.5,917123.5,,917123.2000000477,,917134.86,5,600,,
