sender,sender_type,sender_id,timestamp,meta,,age,blockNo,c1,c2,condition,control_tolerance,correct,correctResponse,duration,ended_on,f1,f1_high,f1_low,f2,f2_high,f2_low,feature_level1,feature_level2,gender,img_left,img_reveal,img_right,n_control_images,n_target_images,practice,range_tolerance,response,response_action,selection_duration,staircase,time_commit,time_end,time_render,time_run,time_show,time_switch,total_blocks,total_trials,trialNo,url
informed_consent,html.Screen,0,2023-11-20T19:29:31.606Z,"{""labjs_version"":""20.2.4"",""labjs_build"":{""flavor"":""development"",""commit"":""f5b4a49f956347addd546a832a3327688c2c0fef""},""location"":""https://labjs.felixhenninger.com/api/labjs_preview/index.html"",""userAgent"":""Mozilla/5.0 (Windows NT 10.0; Win64; x64) AppleWebKit/537.36 (KHTML, like Gecko) Chrome/119.0.0.0 Safari/537.36"",""platform"":""Win32"",""language"":""en-US"",""locale"":""en-US"",""timeZone"":""America/Chicago"",""timezoneOffset"":360,""screen_width"":1920,""screen_height"":1080,""scroll_width"":945,""scroll_height"":918,""window_innerWidth"":945,""window_innerHeight"":966,""devicePixelRatio"":1}",,,,,,,,,,21897.819000023843,response,,,,,,,,,,,,,,,,,consent,click button,,,22868.5,22855.100000023842,940.591,955.8999999761581,957.281,22857.306,,,,{}
Demography form,html.Form,1,2023-11-20T19:29:39.785Z,,,19,,,,,,,,8190.294000023841,form submission,,,,,,,,,male,,,,,,,,,,,,31047.80000001192,31047.600000023842,22840.691,22869.19999998808,22857.306,31057.428,,,,
Welcome,html.Screen,2,2023-11-20T19:30:04.585Z,,,,,,,"[""asym"",""col""]",,,,24789.77199998808,response,,,,,,,,,,,,,,,,,continue,click button,,,55847.80000001192,55847.19999998808,31040.696,31047.899999976158,31057.428,55857.446,,,,
demo_instructions,html.Screen,3,2023-11-20T19:30:11.793Z,,,,,,,,,,,7197.654000023838,response,,,,,,,,,,,,,,,,,continue,click button,,,63055.69999998808,63055.10000002384,55840.765,55847.89999997616,55857.446,63074.035,,,,
trial,html.Screen,4_0_0,2023-11-20T19:30:18.474Z,,,,0,-1.238264833797662,-1.176099940770289,,,true,hh,6662.4649999999965,response,1.2714351764931109,1.2,-1.2,1.0785174776187512,1.2,-1.2,high,high,,ISIC_0032861.JPG,,ISIC_2454898.JPG,,25,true,0.15000000000000002,hh,keypress(i),100,false,69736.69999998808,69736.5,63057.423,63055.80000001192,63074.035,69757.406,1,16,1,
sequence,flow.Sequence,4_0,2023-11-20T19:30:18.482Z,,,,,,,,,,,6662.4649999999965,completion,,,,,,,high,high,,,,,,,true,,,,,false,69743.89999997616,69736.5,63057.423,63055.80000001192,63074.035,69757.406,1,16,,
trial,html.Screen,4_1_0,2023-11-20T19:30:25.656Z,,,,0,-1.238264833797662,-1.176099940770289,,,true,hh,7161.093999999997,response,1.2200968917423711,1.2,-1.2,1.3183466064109373,1.2,-1.2,high,high,,ISIC_0032861.JPG,,ISIC_3624318.JPG,,25,true,0.15000000000000002,hh,keypress(i),100,false,76918.69999998808,76918.5,69740.762,69743.89999997616,69757.406,76940.826,1,16,2,
sequence,flow.Sequence,4_1,2023-11-20T19:30:25.657Z,,,,,,,,,,,7161.093999999997,completion,,,,,,,high,high,,,,,,,true,,,,,false,76919,76918.5,69740.762,69743.89999997616,69757.406,76940.826,1,16,,
trial,html.Screen,4_2_0,2023-11-20T19:30:29.187Z,,,,0,-1.2289750544294995,-1.3003764624334877,,,true,hh,3508.47400001192,response,1.1638334638021437,1.2,-1.2,1.0846635401396965,1.2,-1.2,high,high,,ISIC_0054167.JPG,,ISIC_4718313.JPG,,25,true,0.15000000000000002,hh,keypress(i),100,false,80449.60000002384,80449.30000001192,76924.114,76919.19999998808,76940.826,80474.157,1,16,3,
sequence,flow.Sequence,4_2,2023-11-20T19:30:29.188Z,,,,,,,,,,,3508.47400001192,completion,,,,,,,high,high,,,,,,,true,,,,,false,80450.19999998808,80449.30000001192,76924.114,76919.10000002384,76940.826,80474.157,1,16,,
trial,html.Screen,4_3_0,2023-11-20T19:30:32.005Z,,,,0,-1.1671212908494544,-1.1286681796701683,,,true,hh,2792.5429999880726,response,1.1642596483638106,1.2,-1.2,1.091507924157762,1.2,-1.2,high,high,,ISIC_0065022.JPG,,ISIC_0765584.JPG,,25,true,0.15000000000000002,hh,keypress(i),100,false,83266.89999997616,83266.69999998808,80457.486,80450.39999997616,80474.157,83290.782,1,16,4,
sequence,flow.Sequence,4_3,2023-11-20T19:30:32.005Z,,,,,,,,,,,2792.5429999880726,completion,,,,,,,high,high,,,,,,,true,,,,,false,83267.39999997616,83266.69999998808,80457.486,80450.39999997616,80474.157,83290.782,1,16,,
trial,html.Screen,4_4_0,2023-11-20T19:30:36.962Z,,,,0,1.0581281450494728,1.133169116569424,,,true,ll,4933.617999976152,response,-1.2289750544294995,1.2,-1.2,-1.3003764624334877,1.2,-1.2,low,low,,ISIC_5490352.JPG,,ISIC_0054167.JPG,,27,true,0.12,ll,keypress(f),100,false,88224.69999998808,88224.39999997616,83274.145,83267.5,83290.782,88240.903,1,16,5,
sequence,flow.Sequence,4_4,2023-11-20T19:30:36.963Z,,,,,,,,,,,4933.617999976152,completion,,,,,,,low,low,,,,,,,true,,,,,false,88225,88224.39999997616,83274.145,83267.5,83290.782,88240.903,1,16,,
trial,html.Screen,4_5_0,2023-11-20T19:30:40.492Z,,,,0,1.0581281450494728,1.133169116569424,,,true,ll,3513.2969999880734,response,-1.2974483548597415,1.2,-1.2,-1.2071506593281005,1.2,-1.2,low,low,,ISIC_5490352.JPG,,ISIC_0011007.JPG,,41,true,0.15000000000000002,ll,keypress(f),100,false,91754.39999997616,91754.19999998808,88224.101,88225.10000002384,88240.903,91774.277,1,16,6,
sequence,flow.Sequence,4_5,2023-11-20T19:30:40.492Z,,,,,,,,,,,3513.2969999880734,completion,,,,,,,low,low,,,,,,,true,,,,,false,91754.69999998808,91754.19999998808,88224.101,88225.10000002384,88240.903,91774.277,1,16,,
trial,html.Screen,4_6_0,2023-11-20T19:30:46.982Z,,,,0,1.212030980680325,1.139863018685685,,,true,ll,6469.622999976156,response,-1.094624209823328,1.2,-1.2,-1.0544499428769605,1.2,-1.2,low,low,,ISIC_0008510.JPG,,ISIC_0055526.JPG,,41,true,0.15000000000000002,ll,keypress(f),100,false,98244,98243.89999997616,91757.475,91754.80000001192,91774.277,98274.235,1,16,7,
sequence,flow.Sequence,4_6,2023-11-20T19:30:46.982Z,,,,,,,,,,,6469.622999976156,completion,,,,,,,low,low,,,,,,,true,,,,,false,98244.19999998808,98243.89999997616,91757.475,91754.80000001192,91774.277,98274.235,1,16,,
trial,html.Screen,4_7_0,2023-11-20T19:30:50.446Z,,,,0,1.053007132776416,1.341217082060068,,,true,ll,3433.4649999880785,response,-1.152619213055059,1.2,-1.2,-1.2957497771092716,1.2,-1.2,low,low,,ISIC_0024208.JPG,,ISIC_0061915.JPG,,41,true,0.15000000000000002,ll,keypress(f),100,false,101707.89999997616,101707.69999998808,98257.625,98244.30000001192,98274.235,101740.78,1,16,8,
sequence,flow.Sequence,4_7,2023-11-20T19:30:50.446Z,,,,,,,,,,,3433.4649999880785,completion,,,,,,,low,low,,,,,,,true,,,,,false,101708.10000002384,101707.69999998808,98257.625,98244.30000001192,98274.235,101740.78,1,16,,
trial,html.Screen,4_8_0,2023-11-20T19:30:56.934Z,,,,0,0.849847885203758,-0.973447384095442,,,true,lh,6454.91999998808,response,-1.0700930503975157,1.2,-1.2,0.923753102263735,1.2,-1.2,low,high,,ISIC_9612228.JPG,,ISIC_0000022.JPG,,26,true,0.3300000000000002,lh,keypress(e),100,false,108195.89999997616,108195.69999998808,101707.487,101708.19999998808,101740.78,108224.275,1,16,9,
sequence,flow.Sequence,4_8,2023-11-20T19:30:56.934Z,,,,,,,,,,,6454.91999998808,completion,,,,,,,low,high,,,,,,,true,,,,,false,108196.10000002384,108195.69999998808,101707.487,101708.19999998808,101740.78,108224.275,1,16,,
trial,html.Screen,4_9_0,2023-11-20T19:30:59.706Z,,,,0,1.00615481805876,-0.8428903771195875,,,true,lh,2743.924999988085,response,-0.9670240379618178,1.2,-1.2,1.1806404773220665,1.2,-1.2,low,high,,ISIC_0069970.JPG,,ISIC_0002288.JPG,,33,true,0.3600000000000002,lh,keypress(e),100,false,110968.39999997616,110968.19999998808,108207.478,108196.10000002384,108224.275,110990.789,1,16,10,
sequence,flow.Sequence,4_9,2023-11-20T19:30:59.706Z,,,,,,,,,,,2743.924999988085,completion,,,,,,,low,high,,,,,,,true,,,,,false,110968.60000002384,110968.19999998808,108207.478,108196.10000002384,108224.275,110990.789,1,16,,
trial,html.Screen,4_10_0,2023-11-20T19:31:03.888Z,,,,0,1.3559315773956395,-0.924768326187701,,,true,lh,4159.610999976154,response,-1.055319394932912,1.2,-1.2,1.409116680310466,1.2,-1.2,low,high,,ISIC_5101111.JPG,,ISIC_6398669.JPG,,33,true,0.3600000000000002,lh,keypress(e),100,false,115150.60000002384,115150.39999997616,110974.118,110968.69999998808,110990.789,115174.127,1,16,11,
sequence,flow.Sequence,4_10,2023-11-20T19:31:03.889Z,,,,,,,,,,,4159.610999976154,completion,,,,,,,low,high,,,,,,,true,,,,,false,115150.80000001192,115150.39999997616,110974.118,110968.69999998808,110990.789,115174.127,1,16,,
trial,html.Screen,4_11_0,2023-11-20T19:31:06.647Z,,,,0,0.9385447468573198,-1.2289860846064424,,,true,lh,2735.373000000007,response,-0.887838744955182,1.2,-1.2,1.3716210719758812,1.2,-1.2,low,high,,ISIC_0032780.JPG,,ISIC_1488727.JPG,,33,true,0.3600000000000002,lh,keypress(e),100,false,117909.69999998808,117909.5,115157.483,115150.89999997616,115174.127,117940.812,1,16,12,
sequence,flow.Sequence,4_11,2023-11-20T19:31:06.648Z,,,,,,,,,,,2735.373000000007,completion,,,,,,,low,high,,,,,,,true,,,,,false,117910,117909.5,115157.483,115150.89999997616,115174.127,117940.812,1,16,,
trial,html.Screen,4_12_0,2023-11-20T19:31:10.618Z,,,,0,-1.296989496412063,1.1425074323097002,,,true,hl,3939.8879999880737,response,0.8479396253253069,1.2,-1.2,-1.011054319516718,1.2,-1.2,high,low,,ISIC_6356803.JPG,,ISIC_0063521.JPG,,29,true,0.3600000000000002,hl,keypress(j),100,false,121880.80000001192,121880.69999998808,117924.168,117910.19999998808,117940.812,121907.573,1,16,13,
sequence,flow.Sequence,4_12,2023-11-20T19:31:10.619Z,,,,,,,,,,,3939.8879999880737,completion,,,,,,,high,low,,,,,,,true,,,,,false,121881,121880.69999998808,117924.168,117910.10000002384,117940.812,121907.573,1,16,,
trial,html.Screen,4_13_0,2023-11-20T19:31:12.882Z,,,,0,-0.9566823908868002,0.9602125665128364,,,true,hl,2237.027000023838,response,0.8479396253253069,1.2,-1.2,-1.011054319516718,1.2,-1.2,high,low,,ISIC_0056784.JPG,,ISIC_0063521.JPG,,29,true,0.3600000000000002,hl,keypress(j),100,false,124144.69999998808,124144.60000002384,121890.828,121881.10000002384,121907.573,124174.225,1,16,14,
sequence,flow.Sequence,4_13,2023-11-20T19:31:12.883Z,,,,,,,,,,,2237.027000023838,completion,,,,,,,high,low,,,,,,,true,,,,,false,124144.80000001192,124144.60000002384,121890.828,121881.10000002384,121907.573,124174.225,1,16,,
trial,html.Screen,4_14_0,2023-11-20T19:31:15.565Z,,,,0,-1.052305774554686,1.3940181224717798,,,true,hl,2653.1749999761523,response,0.8479396253253069,1.2,-1.2,-1.011054319516718,1.2,-1.2,high,low,,ISIC_4175400.JPG,,ISIC_0063521.JPG,,29,true,0.3600000000000002,hl,keypress(j),100,false,126827.5,126827.39999997616,124157.495,124144.89999997616,124174.225,126857.485,1,16,15,
sequence,flow.Sequence,4_14,2023-11-20T19:31:15.565Z,,,,,,,,,,,2653.1749999761523,completion,,,,,,,high,low,,,,,,,true,,,,,false,126827.69999998808,126827.39999997616,124157.495,124144.89999997616,124174.225,126857.485,1,16,,
trial,html.Screen,4_15_0,2023-11-20T19:31:20.119Z,,,,0,-1.296989496412063,1.1425074323097002,,,true,hl,4524.115000023841,response,1.1224745971429997,1.2,-1.2,-0.8423270217438888,1.2,-1.2,high,low,,ISIC_6356803.JPG,,ISIC_0057032.JPG,,29,true,0.3600000000000002,hl,keypress(j),100,false,131381.80000001192,131381.60000002384,126840.842,126827.80000001192,126857.485,131407.642,1,16,16,
sequence,flow.Sequence,4_15,2023-11-20T19:31:20.120Z,,,,,,,,,,,4524.115000023841,completion,,,,,,,high,low,,,,,,,true,,,,,false,131382,131381.60000002384,126840.842,126827.80000001192,126857.485,131407.642,1,16,,
demonstration_loop,flow.Loop,4,2023-11-20T19:31:20.120Z,,,,,,,,,,,68307.56500002384,completion,,,,,,,,,,,,,,,true,,,,,false,131382,131381.60000002384,63057.423,63055.80000001192,63074.035,131407.642,1,16,,
practice_instructions,html.Screen,5,2023-11-20T19:31:26.488Z,,,,,,,,,,,6335.458000023849,response,,,,,,,,,,,,,,,,,continue,click button,,,137750.69999998808,137743.10000002384,131390.851,131382,131407.642,137790.812,,,,
trial,html.Screen,6_0_0,2023-11-20T19:31:34.409Z,,,,1,1.4748095371445096,-0.9579010801034902,,,false,lh,7873.7880000238365,response,-0.9225524349657857,1.2,-1.2,0.929746784178986,1.2,-1.2,low,high,,ISIC_0033216.JPG,,ISIC_0011077.JPG,,26,true,0.3300000000000002,ll,keypress(f),0,false,145671.80000001192,145664.60000002384,137757.495,137750.80000001192,137790.812,145690.828,1,40,1,
sequence,flow.Sequence,6_0,2023-11-20T19:31:34.410Z,,,,,,,,,,,7873.7880000238365,completion,,,,,,,low,high,,,,,,,true,,,,,false,145671.89999997616,145664.60000002384,137757.495,137750.80000001192,137790.812,145690.828,1,40,,
trial,html.Screen,6_1_0,2023-11-20T19:31:40.577Z,,,,1,1.1235224875125256,-0.8641223012137988,,,false,lh,6148.5719999761495,response,-0.9046170303418553,1.2,-1.2,1.0063426986460375,1.2,-1.2,low,high,,ISIC_0033901.JPG,,ISIC_0055759.JPG,,33,true,0.3600000000000002,ll,keypress(f),0,false,151839.5,151839.39999997616,145657.543,145672,145690.828,151858.502,1,40,2,
sequence,flow.Sequence,6_1,2023-11-20T19:31:40.577Z,,,,,,,,,,,6148.5719999761495,completion,,,,,,,low,high,,,,,,,true,,,,,false,151839.60000002384,151839.39999997616,145657.543,145672,145690.828,151858.502,1,40,,
trial,html.Screen,6_2_0,2023-11-20T19:31:47.626Z,,,,1,-1.0961318727760048,1.2134960228256146,,,false,hl,7029.997999999992,response,0.9039158082670506,1.2,-1.2,-1.0517562064343149,1.2,-1.2,high,low,,ISIC_9768421.JPG,,ISIC_0015411.JPG,,29,true,0.3600000000000002,hh,keypress(i),0,false,158888.80000001192,158888.5,151824.075,151839.69999998808,151858.502,158908.127,1,40,3,
sequence,flow.Sequence,6_2,2023-11-20T19:31:47.627Z,,,,,,,,,,,7029.997999999992,completion,,,,,,,high,low,,,,,,,true,,,,,false,158889.19999998808,158888.5,151824.075,151839.69999998808,151858.502,158908.127,1,40,,
trial,html.Screen,6_3_0,2023-11-20T19:31:54.586Z,,,,1,-1.1783311757907324,-1.266840220031473,,,false,hh,6940.072999988071,response,1.353276440232689,1.2,-1.2,1.2252147363060195,1.2,-1.2,high,high,,ISIC_8241457.JPG,,ISIC_0031417.JPG,,127,true,0.3300000000000002,hl,keypress(j),0,false,165848.30000001192,165848.19999998808,158874.028,158889.39999997616,158908.127,165857.561,1,40,4,
sequence,flow.Sequence,6_3,2023-11-20T19:31:54.586Z,,,,,,,,,,,6940.072999988071,completion,,,,,,,high,high,,,,,,,true,,,,,false,165848.60000002384,165848.19999998808,158874.028,158889.30000001192,158908.127,165857.561,1,40,,
trial,html.Screen,6_4_0,2023-11-20T19:32:00.770Z,,,,1,1.053007132776416,1.341217082060068,,,false,ll,6174.539000023855,response,-1.238264833797662,1.2,-1.2,-1.176099940770289,1.2,-1.2,low,low,,ISIC_0024208.JPG,,ISIC_0032861.JPG,,27,true,0.12,lh,keypress(e),0,false,172032.39999997616,172032.10000002384,165840.73,165848.89999997616,165857.561,172090.856,1,40,5,
sequence,flow.Sequence,6_4,2023-11-20T19:32:00.770Z,,,,,,,,,,,6174.539000023855,completion,,,,,,,low,low,,,,,,,true,,,,,false,172032.80000001192,172032.10000002384,165840.73,165848.80000001192,165857.561,172090.856,1,40,,
trial,html.Screen,6_5_0,2023-11-20T19:32:08.315Z,,,,1,1.3515962101204746,-0.8414583575292955,,,false,lh,7485.843999988079,response,-0.8787496315223856,1.2,-1.2,1.3680901203013998,1.2,-1.2,low,high,,ISIC_0274382.JPG,,ISIC_0023811.JPG,,26,true,0.3300000000000002,hl,keypress(j),0,false,179577,179576.69999998808,172024.057,172032.89999997616,172090.856,179590.854,1,40,6,
sequence,flow.Sequence,6_5,2023-11-20T19:32:08.316Z,,,,,,,,,,,7485.843999988079,completion,,,,,,,low,high,,,,,,,true,,,,,false,179577.39999997616,179576.69999998808,172024.057,172032.89999997616,172090.856,179590.854,1,40,,
trial,html.Screen,6_6_0,2023-11-20T19:32:22.299Z,,,,1,1.4748095371445096,-0.9579010801034902,,,false,lh,13969.545999976166,response,-0.9873794329144926,1.2,-1.2,0.9500689037516484,1.2,-1.2,low,high,,ISIC_0033216.JPG,,ISIC_0013498.JPG,,33,true,0.3600000000000002,ll,keypress(f),0,false,193560.60000002384,193560.39999997616,179574.191,179577.5,179590.854,193574.293,1,40,7,
sequence,flow.Sequence,6_6,2023-11-20T19:32:22.299Z,,,,,,,,,,,13969.545999976166,completion,,,,,,,low,high,,,,,,,true,,,,,false,193560.89999997616,193560.39999997616,179574.191,179577.5,179590.854,193574.293,1,40,,
trial,html.Screen,6_7_0,2023-11-20T19:32:31.322Z,,,,1,1.3045229691102764,1.1781544075681951,,,true,ll,9009.307000023837,response,-1.3784914045861107,1.2,-1.2,-0.9153969930664472,1.2,-1.2,low,low,,ISIC_6148533.JPG,,ISIC_0063369.JPG,,249,true,0.3600000000000002,ll,keypress(f),0,false,202583.80000001192,202583.60000002384,193557.148,193561.10000002384,193574.293,202590.885,1,40,8,
sequence,flow.Sequence,6_7,2023-11-20T19:32:31.322Z,,,,,,,,,,,9009.307000023837,completion,,,,,,,low,low,,,,,,,true,,,,,false,202583.89999997616,202583.60000002384,193557.148,193561,193574.293,202590.885,1,40,,
trial,html.Screen,6_8_0,2023-11-20T19:32:34.171Z,,,,1,1.3471772753257971,1.055978100098093,,,true,ll,2841.4150000119116,response,-1.2015106101917423,1.2,-1.2,-1.3393124611420348,1.2,-1.2,low,low,,ISIC_2077116.JPG,,ISIC_0072496.JPG,,41,true,0.15000000000000002,ll,keypress(f),0,false,205432.60000002384,205432.30000001192,202573.902,202584,202590.885,205440.897,1,40,9,
sequence,flow.Sequence,6_8,2023-11-20T19:32:34.171Z,,,,,,,,,,,2841.4150000119116,completion,,,,,,,low,low,,,,,,,true,,,,,false,205432.89999997616,205432.30000001192,202573.902,202584,202590.885,205440.897,1,40,,
trial,html.Screen,6_9_0,2023-11-20T19:32:40.098Z,,,,1,-1.2435042401134029,-1.2939710463315144,,,true,hh,5918.903000011924,response,1.0581281450494728,1.2,-1.2,1.133169116569424,1.2,-1.2,high,high,,ISIC_0056119.JPG,,ISIC_5490352.JPG,,25,true,0.15000000000000002,hh,keypress(i),0,false,211360.10000002384,211359.80000001192,205424.338,205433.10000002384,205440.897,211374.243,1,40,10,
sequence,flow.Sequence,6_9,2023-11-20T19:32:40.099Z,,,,,,,,,,,5918.903000011924,completion,,,,,,,high,high,,,,,,,true,,,,,false,211360.39999997616,211359.80000001192,205424.338,205433.10000002384,205440.897,211374.243,1,40,,
trial,html.Screen,6_10_0,2023-11-20T19:32:43.626Z,,,,1,-1.1392234684115472,-1.3198277407683998,,,true,hh,3513.0570000119333,response,1.0581281450494728,1.2,-1.2,1.133169116569424,1.2,-1.2,high,high,,ISIC_0071875.JPG,,ISIC_5490352.JPG,,25,true,0.15000000000000002,hh,keypress(i),0,false,214887.39999997616,214887.30000001192,211357.507,211360.5,211374.243,214907.579,1,40,11,
sequence,flow.Sequence,6_10,2023-11-20T19:32:43.626Z,,,,,,,,,,,3513.0570000119333,completion,,,,,,,high,high,,,,,,,true,,,,,false,214887.39999997616,214887.30000001192,211357.507,211360.5,211374.243,214907.579,1,40,,
trial,html.Screen,6_11_0,2023-11-20T19:32:48.987Z,,,,1,0.8479396253253069,-1.011054319516718,,,true,lh,5340.921000000002,response,-1.082730232773217,1.2,-1.2,0.8833175387485132,1.2,-1.2,low,high,,ISIC_0063521.JPG,,ISIC_0011933.JPG,,26,true,0.3300000000000002,lh,keypress(e),0,false,220248.69999998808,220248.5,214874.135,214887.5,214907.579,220274.267,1,40,12,
sequence,flow.Sequence,6_11,2023-11-20T19:32:48.987Z,,,,,,,,,,,5340.921000000002,completion,,,,,,,low,high,,,,,,,true,,,,,false,220249.10000002384,220248.5,214874.135,214887.5,214907.579,220274.267,1,40,,
trial,html.Screen,6_12_0,2023-11-20T19:32:53.826Z,,,,1,0.9087169856594104,-0.8835647084207277,,,true,lh,4813.833000023849,response,-1.0700930503975157,1.2,-1.2,0.923753102263735,1.2,-1.2,low,high,,ISIC_0000349.JPG,,ISIC_0000022.JPG,,33,true,0.3600000000000002,lh,keypress(e),0,false,225088.19999998808,225088.10000002384,220240.717,220249.19999998808,220274.267,225090.918,1,40,13,
sequence,flow.Sequence,6_12,2023-11-20T19:32:53.827Z,,,,,,,,,,,4813.833000023849,completion,,,,,,,low,high,,,,,,,true,,,,,false,225088.5,225088.10000002384,220240.717,220249.19999998808,220274.267,225090.918,1,40,,
trial,html.Screen,6_13_0,2023-11-20T19:33:01.419Z,,,,1,1.2200968917423711,1.3183466064109373,,,true,ll,7589.682000023837,response,-0.8984767404401109,1.2,-1.2,-1.0289479104867394,1.2,-1.2,low,low,,ISIC_3624318.JPG,,ISIC_0011458.JPG,,249,true,0.3600000000000002,ll,keypress(f),0,false,232680.89999997616,232680.60000002384,225074.111,225088.60000002384,225090.918,232707.621,1,40,14,
sequence,flow.Sequence,6_13,2023-11-20T19:33:01.419Z,,,,,,,,,,,7589.682000023837,completion,,,,,,,low,low,,,,,,,true,,,,,false,232681.19999998808,232680.60000002384,225074.111,225088.60000002384,225090.918,232707.621,1,40,,
trial,html.Screen,6_14_0,2023-11-20T19:33:09.555Z,,,,1,1.11329866545753,-1.2155631217348757,,,true,lh,8108.578999988065,response,-1.1547137855907486,1.2,-1.2,1.0185275168641534,1.2,-1.2,low,high,,ISIC_0032610.JPG,,ISIC_7604870.JPG,,26,true,0.3300000000000002,lh,keypress(e),0,false,240816.39999997616,240816.19999998808,232674.153,232681.39999997616,232707.621,240824.286,1,40,15,
sequence,flow.Sequence,6_14,2023-11-20T19:33:09.555Z,,,,,,,,,,,8108.578999988065,completion,,,,,,,low,high,,,,,,,true,,,,,false,240816.80000001192,240816.19999998808,232674.153,232681.39999997616,232707.621,240824.286,1,40,,
trial,html.Screen,6_15_0,2023-11-20T19:33:11.579Z,,,,1,-1.0961318727760048,1.2134960228256146,,,true,hl,2016.1139999761654,response,1.064425982109969,1.2,-1.2,-0.958564243697126,1.2,-1.2,high,low,,ISIC_9768421.JPG,,ISIC_3203344.JPG,,29,true,0.3600000000000002,hl,keypress(j),0,false,242840.60000002384,242840.39999997616,240807.441,240816.89999997616,240824.286,242874.302,1,40,16,
sequence,flow.Sequence,6_15,2023-11-20T19:33:11.579Z,,,,,,,,,,,2016.1139999761654,completion,,,,,,,high,low,,,,,,,true,,,,,false,242840.89999997616,242840.39999997616,240807.441,240816.89999997616,240824.286,242874.302,1,40,,
trial,html.Screen,6_16_0,2023-11-20T19:33:15.019Z,,,,1,-1.1592423187534993,1.067128884093211,,,true,hl,3405.698000000004,response,0.8534691366511764,1.2,-1.2,-1.276663727068437,1.2,-1.2,high,low,,ISIC_6854940.JPG,,ISIC_0056788.JPG,,29,true,0.3600000000000002,hl,keypress(j),0,false,246280.19999998808,246280,242841.039,242841,242874.302,246290.933,1,40,17,
sequence,flow.Sequence,6_16,2023-11-20T19:33:15.019Z,,,,,,,,,,,3405.698000000004,completion,,,,,,,high,low,,,,,,,true,,,,,false,246280.5,246280,242841.039,242841,242874.302,246290.933,1,40,,
trial,html.Screen,6_17_0,2023-11-20T19:33:21.962Z,,,,1,1.2200968917423711,1.3183466064109373,,,true,ll,6932.667000023852,response,-0.8826164980777871,1.2,-1.2,-1.1601445610079184,1.2,-1.2,low,low,,ISIC_3624318.JPG,,ISIC_0055169.JPG,,211,true,0.3300000000000002,ll,keypress(f),0,false,253223.80000001192,253223.60000002384,246274.444,246280.60000002384,246290.933,253257.616,1,40,18,
sequence,flow.Sequence,6_17,2023-11-20T19:33:21.962Z,,,,,,,,,,,6932.667000023852,completion,,,,,,,low,low,,,,,,,true,,,,,false,253223.89999997616,253223.60000002384,246274.444,246280.60000002384,246290.933,253257.616,1,40,,
trial,html.Screen,6_18_0,2023-11-20T19:33:27.506Z,,,,1,-1.1547137855907486,1.0185275168641534,,,true,hl,5509.984000023833,response,1.3515962101204746,1.2,-1.2,-0.8414583575292955,1.2,-1.2,high,low,,ISIC_7604870.JPG,,ISIC_0274382.JPG,,29,true,0.3600000000000002,hl,keypress(j),0,false,258767.69999998808,258767.60000002384,253207.637,253223.89999997616,253257.616,258774.312,1,40,19,
sequence,flow.Sequence,6_18,2023-11-20T19:33:27.506Z,,,,,,,,,,,5509.984000023833,completion,,,,,,,high,low,,,,,,,true,,,,,false,258767.89999997616,258767.60000002384,253207.637,253223.89999997616,253257.616,258774.312,1,40,,
trial,html.Screen,6_19_0,2023-11-20T19:33:36.499Z,,,,1,0.9445114955578736,-1.0054210059625863,,,true,lh,8985.687999999995,response,-1.0264463986917702,1.2,-1.2,1.171271535505083,1.2,-1.2,low,high,,ISIC_0033807.JPG,,ISIC_7889838.JPG,,26,true,0.3300000000000002,lh,keypress(e),0,false,267760.10000002384,267760,258757.62,258767.89999997616,258774.312,267774.334,1,40,20,
sequence,flow.Sequence,6_19,2023-11-20T19:33:36.499Z,,,,,,,,,,,8985.687999999995,completion,,,,,,,low,high,,,,,,,true,,,,,false,267760.39999997616,267760,258757.62,258767.89999997616,258774.312,267774.334,1,40,,
trial,html.Screen,6_20_0,2023-11-20T19:33:41.010Z,,,,1,-1.2043484010107477,1.2178113180138233,,,true,hl,4497.1660000000265,response,0.8494721812820843,1.2,-1.2,-1.3435429139974266,1.2,-1.2,high,low,,ISIC_0011917.JPG,,ISIC_0033585.JPG,,29,true,0.3600000000000002,hl,keypress(j),0,false,272271.5,272271.5,267757.312,267760.60000002384,267774.334,272274.329,1,40,21,
sequence,flow.Sequence,6_20,2023-11-20T19:33:41.010Z,,,,,,,,,,,4497.1660000000265,completion,,,,,,,high,low,,,,,,,true,,,,,false,272271.6999999881,272271.5,267757.312,267760.5,267774.334,272274.329,1,40,,
trial,html.Screen,6_21_0,2023-11-20T19:33:48.162Z,,,,1,1.1363600109870835,1.295816345369928,,,true,ll,7149.070999976131,response,-0.9903724314532812,1.2,-1.2,-1.2764699562020247,1.2,-1.2,low,low,,ISIC_0026141.JPG,,ISIC_0034218.JPG,,211,true,0.3300000000000002,ll,keypress(f),0,false,279423.5,279423.39999997616,272257.591,272271.8000000119,272274.329,279441.795,1,40,22,
sequence,flow.Sequence,6_21,2023-11-20T19:33:48.162Z,,,,,,,,,,,7149.070999976131,completion,,,,,,,low,low,,,,,,,true,,,,,false,279423.60000002384,279423.39999997616,272257.591,272271.6999999881,272274.329,279441.795,1,40,,
trial,html.Screen,6_22_0,2023-11-20T19:33:51.979Z,,,,1,1.073296525451802,1.3454282740421717,,,true,ll,3798.505000011937,response,-1.3271122559811526,1.2,-1.2,-1.292001792497521,1.2,-1.2,low,low,,ISIC_5787312.JPG,,ISIC_0065181.JPG,,41,true,0.15000000000000002,ll,keypress(f),0,false,283240.60000002384,283240.3000000119,279407.647,279423.60000002384,279441.795,283257.731,1,40,23,
sequence,flow.Sequence,6_22,2023-11-20T19:33:51.979Z,,,,,,,,,,,3798.505000011937,completion,,,,,,,low,low,,,,,,,true,,,,,false,283241,283240.3000000119,279407.647,279423.60000002384,279441.795,283257.731,1,40,,
trial,html.Screen,6_23_0,2023-11-20T19:33:57.867Z,,,,1,-1.2435042401134029,-1.2939710463315144,,,true,hh,5870.168999976129,response,1.1727618800748076,1.2,-1.2,1.0636787813411093,1.2,-1.2,high,high,,ISIC_0056119.JPG,,ISIC_9690371.JPG,,25,true,0.15000000000000002,hh,keypress(i),0,false,289128.1999999881,289127.89999997616,283241.023,283241.1999999881,283257.731,289141.044,1,40,24,
sequence,flow.Sequence,6_23,2023-11-20T19:33:57.867Z,,,,,,,,,,,5870.168999976129,completion,,,,,,,high,high,,,,,,,true,,,,,false,289128.39999997616,289127.89999997616,283241.023,283241.10000002384,283257.731,289141.044,1,40,,
trial,html.Screen,6_24_0,2023-11-20T19:34:08.059Z,,,,1,-1.2435042401134029,-1.2939710463315144,,,true,hh,10179.456000000006,response,1.073296525451802,1.2,-1.2,1.3454282740421717,1.2,-1.2,high,high,,ISIC_0056119.JPG,,ISIC_5787312.JPG,,25,true,0.15000000000000002,hh,keypress(i),0,false,299320.6999999881,299320.5,289124.279,289128.5,289141.044,299324.416,1,40,25,
sequence,flow.Sequence,6_24,2023-11-20T19:34:08.060Z,,,,,,,,,,,10179.456000000006,completion,,,,,,,high,high,,,,,,,true,,,,,false,299321.10000002384,299320.5,289124.279,289128.5,289141.044,299324.416,1,40,,
trial,html.Screen,6_25_0,2023-11-20T19:34:15.915Z,,,,1,1.1655508270784471,1.1162776063248168,,,true,ll,7851.7839999880525,response,-1.238264833797662,1.2,-1.2,-1.176099940770289,1.2,-1.2,low,low,,ISIC_5509946.JPG,,ISIC_0032861.JPG,,27,true,0.12,ll,keypress(f),0,false,307176.39999997616,307176.1999999881,299307.362,299321.1999999881,299324.416,307191.099,1,40,26,
sequence,flow.Sequence,6_25,2023-11-20T19:34:15.915Z,,,,,,,,,,,7851.7839999880525,completion,,,,,,,low,low,,,,,,,true,,,,,false,307176.8000000119,307176.1999999881,299307.362,299321.10000002384,299324.416,307191.099,1,40,,
trial,html.Screen,6_26_0,2023-11-20T19:34:19.570Z,,,,1,-1.1715181192107684,-1.2251845559044463,,,true,hh,3640.4010000000126,response,1.3045229691102764,1.2,-1.2,1.1781544075681951,1.2,-1.2,high,high,,ISIC_0011957.JPG,,ISIC_6148533.JPG,,25,true,0.15000000000000002,hh,keypress(i),0,false,310831.60000002384,310831.5,307174.209,307177,307191.099,310857.709,1,40,27,
sequence,flow.Sequence,6_26,2023-11-20T19:34:19.570Z,,,,,,,,,,,3640.4010000000126,completion,,,,,,,high,high,,,,,,,true,,,,,false,310831.6999999881,310831.5,307174.209,307176.89999997616,307191.099,310857.709,1,40,,
trial,html.Screen,6_27_0,2023-11-20T19:34:23.274Z,,,,1,-1.0822170028935367,1.1654796154432183,,,true,hl,3677.7910000000265,response,1.3515962101204746,1.2,-1.2,-0.8414583575292955,1.2,-1.2,high,low,,ISIC_7288818.JPG,,ISIC_0274382.JPG,,29,true,0.3600000000000002,hl,keypress(j),0,false,314535.60000002384,314535.5,310824.267,310831.8000000119,310857.709,314541.038,1,40,28,
sequence,flow.Sequence,6_27,2023-11-20T19:34:23.274Z,,,,,,,,,,,3677.7910000000265,completion,,,,,,,high,low,,,,,,,true,,,,,false,314535.8000000119,314535.5,310824.267,310831.8000000119,310857.709,314541.038,1,40,,
trial,html.Screen,6_28_0,2023-11-20T19:34:27.235Z,,,,1,-1.2232482867978696,-1.2451219760556858,,,true,hh,3954.7620000119205,response,1.2965630265970134,1.2,-1.2,0.8791441061179197,1.2,-1.2,high,high,,ISIC_0030889.JPG,,ISIC_0004455.JPG,,127,true,0.3300000000000002,hh,keypress(i),0,false,318496,318495.8000000119,314524.413,314535.89999997616,314541.038,318524.386,1,40,29,
sequence,flow.Sequence,6_28,2023-11-20T19:34:27.235Z,,,,,,,,,,,3954.7620000119205,completion,,,,,,,high,high,,,,,,,true,,,,,false,318496.1999999881,318495.8000000119,314524.413,314535.89999997616,314541.038,318524.386,1,40,,
trial,html.Screen,6_29_0,2023-11-20T19:34:29.986Z,,,,1,-1.055319394932912,1.409116680310466,,,true,hl,2723.2140000238433,response,1.3515962101204746,1.2,-1.2,-0.8414583575292955,1.2,-1.2,high,low,,ISIC_6398669.JPG,,ISIC_0274382.JPG,,29,true,0.3600000000000002,hl,keypress(j),0,false,321247.8000000119,321247.60000002384,318490.956,318496.3000000119,318524.386,321257.706,1,40,30,
sequence,flow.Sequence,6_29,2023-11-20T19:34:29.987Z,,,,,,,,,,,2723.2140000238433,completion,,,,,,,high,low,,,,,,,true,,,,,false,321247.89999997616,321247.60000002384,318490.956,318496.3000000119,318524.386,321257.706,1,40,,
trial,html.Screen,6_30_0,2023-11-20T19:34:32.106Z,,,,1,-1.0264463986917702,1.171271535505083,,,true,hl,2109.9939999880735,response,1.411763789273233,1.2,-1.2,-1.0057734478347988,1.2,-1.2,high,low,,ISIC_7889838.JPG,,ISIC_0027235.JPG,,29,true,0.3600000000000002,hl,keypress(j),0,false,323367.6999999881,323367.6999999881,321241.005,321248,321257.706,323391.038,1,40,31,
sequence,flow.Sequence,6_30,2023-11-20T19:34:32.107Z,,,,,,,,,,,2109.9939999880735,completion,,,,,,,high,low,,,,,,,true,,,,,false,323367.89999997616,323367.6999999881,321241.005,321248,321257.706,323391.038,1,40,,
trial,html.Screen,6_31_0,2023-11-20T19:34:33.538Z,,,,1,-1.155796217969438,1.1646564121743912,,,true,hl,1408.5620000238414,response,1.4748095371445096,1.2,-1.2,-0.9579010801034902,1.2,-1.2,high,low,,ISIC_2685523.JPG,,ISIC_0033216.JPG,,29,true,0.3600000000000002,hl,keypress(j),0,false,324799.8000000119,324799.60000002384,323357.686,323368,323391.038,324824.402,1,40,32,
sequence,flow.Sequence,6_31,2023-11-20T19:34:33.539Z,,,,,,,,,,,1408.5620000238414,completion,,,,,,,high,low,,,,,,,true,,,,,false,324799.89999997616,324799.60000002384,323357.686,323367.89999997616,323391.038,324824.402,1,40,,
trial,html.Screen,6_32_0,2023-11-20T19:34:35.131Z,,,,1,1.1890109863264902,-0.8867825318561365,,,true,lh,1567.69800002384,response,-1.2704198237183777,1.2,-1.2,1.138121072015301,1.2,-1.2,low,high,,ISIC_0072576.JPG,,ISIC_0501843.JPG,,26,true,0.3300000000000002,lh,keypress(e),0,false,326392.3000000119,326392.10000002384,324791.072,324800.10000002384,324824.402,326407.797,1,40,33,
sequence,flow.Sequence,6_32,2023-11-20T19:34:35.131Z,,,,,,,,,,,1567.69800002384,completion,,,,,,,low,high,,,,,,,true,,,,,false,326392.6999999881,326392.10000002384,324791.072,324800,324824.402,326407.797,1,40,,
trial,html.Screen,6_33_0,2023-11-20T19:34:37.156Z,,,,1,1.0959058628476686,1.2921331918483707,,,true,ll,2009.0030000119004,response,-0.9478344010828824,1.2,-1.2,-1.1218541416084558,1.2,-1.2,low,low,,ISIC_5920470.JPG,,ISIC_8252406.JPG,,249,true,0.3600000000000002,ll,keypress(f),0,false,328417,328416.8000000119,326391.272,326392.8000000119,326407.797,328457.741,1,40,34,
sequence,flow.Sequence,6_33,2023-11-20T19:34:37.156Z,,,,,,,,,,,2009.0030000119004,completion,,,,,,,low,low,,,,,,,true,,,,,false,328417.5,328416.8000000119,326391.272,326392.8000000119,326407.797,328457.741,1,40,,
trial,html.Screen,6_34_0,2023-11-20T19:34:38.482Z,,,,1,-0.8709576717420565,1.2795156779072283,,,true,hl,1285.6589999761782,response,1.0143509683988825,1.2,-1.2,-1.0281980567462463,1.2,-1.2,high,low,,ISIC_1925632.JPG,,ISIC_0062031.JPG,,29,true,0.3600000000000002,hl,keypress(j),0,false,329743.5,329743.39999997616,328407.813,328417.60000002384,328457.741,329757.944,1,40,35,
sequence,flow.Sequence,6_34,2023-11-20T19:34:38.482Z,,,,,,,,,,,1285.6589999761782,completion,,,,,,,high,low,,,,,,,true,,,,,false,329743.8000000119,329743.39999997616,328407.813,328417.60000002384,328457.741,329757.944,1,40,,
trial,html.Screen,6_35_0,2023-11-20T19:34:41.034Z,,,,1,-1.2435042401134029,-1.2939710463315144,,,true,hh,2537.656000023824,response,1.211212746138903,1.2,-1.2,0.9514368385965256,1.2,-1.2,high,high,,ISIC_0056119.JPG,,ISIC_0198331.JPG,,127,true,0.3300000000000002,hh,keypress(i),0,false,332295.8000000119,332295.60000002384,329741.141,329743.8000000119,329757.944,332307.731,1,40,36,
sequence,flow.Sequence,6_35,2023-11-20T19:34:41.035Z,,,,,,,,,,,2537.656000023824,completion,,,,,,,high,high,,,,,,,true,,,,,false,332295.89999997616,332295.60000002384,329741.141,329743.8000000119,329757.944,332307.731,1,40,,
trial,html.Screen,6_36_0,2023-11-20T19:34:43.682Z,,,,1,-1.2872758518949912,-1.313723254903214,,,true,hh,2635.869000023813,response,1.053007132776416,1.2,-1.2,1.341217082060068,1.2,-1.2,high,high,,ISIC_0064376.JPG,,ISIC_0024208.JPG,,25,true,0.15000000000000002,hh,keypress(i),0,false,334943.6999999881,334943.60000002384,332291.128,332295.89999997616,332307.731,334957.994,1,40,37,
sequence,flow.Sequence,6_36,2023-11-20T19:34:43.682Z,,,,,,,,,,,2635.869000023813,completion,,,,,,,high,high,,,,,,,true,,,,,false,334943.8000000119,334943.60000002384,332291.128,332295.89999997616,332307.731,334957.994,1,40,,
trial,html.Screen,6_37_0,2023-11-20T19:34:48.418Z,,,,1,1.0878102877901663,1.3154097543539391,,,true,ll,4721.405999976152,response,-1.1715181192107684,1.2,-1.2,-1.2251845559044463,1.2,-1.2,low,low,,ISIC_1413242.JPG,,ISIC_0011957.JPG,,27,true,0.12,ll,keypress(f),0,false,339679.39999997616,339679.39999997616,334941.034,334943.89999997616,334957.994,339691.182,1,40,38,
sequence,flow.Sequence,6_37,2023-11-20T19:34:48.418Z,,,,,,,,,,,4721.405999976152,completion,,,,,,,low,low,,,,,,,true,,,,,false,339679.60000002384,339679.39999997616,334941.034,334943.89999997616,334957.994,339691.182,1,40,,
trial,html.Screen,6_38_0,2023-11-20T19:34:52.482Z,,,,1,-1.238264833797662,-1.176099940770289,,,true,hh,4052.4180000238703,response,1.204229955025689,1.2,-1.2,1.0874249761617445,1.2,-1.2,high,high,,ISIC_0032861.JPG,,ISIC_0056930.JPG,,25,true,0.15000000000000002,hh,keypress(i),0,false,343743.8000000119,343743.60000002384,339674.394,339679.6999999881,339691.182,343774.436,1,40,39,
sequence,flow.Sequence,6_38,2023-11-20T19:34:52.483Z,,,,,,,,,,,4052.4180000238703,completion,,,,,,,high,high,,,,,,,true,,,,,false,343744,343743.60000002384,339674.394,339679.6999999881,339691.182,343774.436,1,40,,
trial,html.Screen,6_39_0,2023-11-20T19:34:57.331Z,,,,1,0.8644465729542988,-0.8679598285079457,,,true,lh,4817.864000011934,response,-1.2043484010107477,1.2,-1.2,1.2178113180138233,1.2,-1.2,low,high,,ISIC_6718969.JPG,,ISIC_0011917.JPG,,26,true,0.3300000000000002,lh,keypress(e),0,false,348592.5,348592.3000000119,343740.924,343744.10000002384,343774.436,348607.779,1,40,40,
sequence,flow.Sequence,6_39,2023-11-20T19:34:57.332Z,,,,,,,,,,,4817.864000011934,completion,,,,,,,low,high,,,,,,,true,,,,,false,348592.89999997616,348592.3000000119,343740.924,343744,343774.436,348607.779,1,40,,
practice_loop,flow.Loop,6,2023-11-20T19:34:57.332Z,,,,,,,,,,,210801.48800001192,completion,,,,,,,,,,,,,,,true,,,,,false,348593.1999999881,348592.3000000119,137757.495,137750.80000001192,137790.812,348607.779,1,40,,
stair_instructions,html.Screen,7,2023-11-20T19:34:59.922Z,,,,,,,,,,,2575.3210000238614,response,,,,,,,,,,,,,,,,,continue,click button,,,351183.60000002384,351183.10000002384,348591.004,348593.39999997616,348607.779,351207.792,,,,
trial,html.Screen,8_0_0,2023-11-20T19:35:09.717Z,,,,2,0.0327772618698018,-0.0056908372048728,,0.04,true,hl,9769.907999988063,response,1.3411487193830047,1.2,-1.2,-1.198640448317381,1.2,-1.2,high,low,,ISIC_7897925.JPG,,ISIC_3093026.JPG,28,29,false,0.3600000000000002,hl,keypress(j),0,true,360977.89999997616,360977.6999999881,351191.15,351183.6999999881,351207.792,360991.128,1,40,1,
sequence,flow.Sequence,8_0,2023-11-20T19:35:09.717Z,,,,,,,,,,,9769.907999988063,completion,,,,,,,high,low,,,,,,,false,,,,,true,360978.1999999881,360977.6999999881,351191.15,351183.6999999881,351207.792,360991.128,1,40,,
trial,html.Screen,8_1_0,2023-11-20T19:35:14.505Z,,,,2,0.0365981355399771,0.0162670920008846,,0.04,true,hh,4774.571999988053,response,1.2254777618346506,1.15,-1.15,1.0356416330964822,1.15,-1.15,high,high,,ISIC_0982855.JPG,,ISIC_1054090.JPG,28,26,false,0.14,hh,keypress(i),0,true,365765.8000000119,365765.6999999881,360974.518,360978.3000000119,360991.128,365774.458,1,40,2,
sequence,flow.Sequence,8_1,2023-11-20T19:35:14.505Z,,,,,,,,,,,4774.571999988053,completion,,,,,,,high,high,,,,,,,false,,,,,true,365765.89999997616,365765.6999999881,360974.518,360978.3000000119,360991.128,365774.458,1,40,,
trial,html.Screen,8_2_0,2023-11-20T19:35:21.835Z,,,,2,-0.0158987717472563,-0.0292472192292015,,0.04,false,lh,7321.741999988095,response,-1.0264463986917702,1.0805596974655665,-1.15,1.171271535505083,1.15,-1.15,low,high,,ISIC_1366765.JPG,,ISIC_7889838.JPG,28,25,false,0.28000000000000014,ll,keypress(f),0,true,373096.39999997616,373096.1999999881,365757.887,365766,365774.458,373107.794,1,40,3,
sequence,flow.Sequence,8_2,2023-11-20T19:35:21.836Z,,,,,,,,,,,7321.741999988095,completion,,,,,,,low,high,,,,,,,false,,,,,true,373096.6999999881,373096.1999999881,365757.887,365766,365774.458,373107.794,1,40,,
trial,html.Screen,8_3_0,2023-11-20T19:35:27.020Z,,,,2,-0.0023664502831079,-0.0252784582169994,,0.04,false,hh,5172.905999988085,response,1.0066944863194518,1.0805596974655665,-1.15,1.2755557894401093,1.15,-1.15,high,high,,ISIC_4156010.JPG,,ISIC_3885041.JPG,28,29,false,0.13,hl,keypress(j),0,true,378281,378280.6999999881,373090.866,373096.8000000119,373107.794,378291.214,1,40,4,
sequence,flow.Sequence,8_3,2023-11-20T19:35:27.020Z,,,,,,,,,,,5172.905999988085,completion,,,,,,,high,high,,,,,,,false,,,,,true,378281.39999997616,378280.6999999881,373090.866,373096.8000000119,373107.794,378291.214,1,40,,
trial,html.Screen,8_4_0,2023-11-20T19:35:34.452Z,,,,2,-0.0377791839943904,0.0227626648172468,,0.04,false,lh,7421.386000023864,response,-1.1592423187534993,1.0805596974655665,-1.15,1.067128884093211,1.15,-1.15,low,high,,ISIC_7167479.JPG,,ISIC_6854940.JPG,28,25,false,0.28000000000000014,hh,keypress(i),0,true,385712.8000000119,385712.60000002384,378274.383,378281.60000002384,378291.214,385724.46,1,40,5,
sequence,flow.Sequence,8_4,2023-11-20T19:35:34.452Z,,,,,,,,,,,7421.386000023864,completion,,,,,,,low,high,,,,,,,false,,,,,true,385713.10000002384,385712.60000002384,378274.383,378281.5,378291.214,385724.46,1,40,,
trial,html.Screen,8_5_0,2023-11-20T19:35:42.755Z,,,,2,-0.0050679133050021,-0.0174815595031679,,0.04,false,ll,8291.14000002382,response,-1.238264833797662,1.0805596974655665,-1.15,-1.176099940770289,1.15,-1.15,low,low,,ISIC_9848743.JPG,,ISIC_0032861.JPG,28,25,false,0.11,hl,keypress(j),0,true,394015.6999999881,394015.60000002384,385707.566,385713.1999999881,385724.46,394024.484,1,40,6,
sequence,flow.Sequence,8_5,2023-11-20T19:35:42.755Z,,,,,,,,,,,8291.14000002382,completion,,,,,,,low,low,,,,,,,false,,,,,true,394016,394015.60000002384,385707.566,385713.1999999881,385724.46,394024.484,1,40,,
trial,html.Screen,8_6_0,2023-11-20T19:35:48.037Z,,,,2,0.0367218428225813,-0.0026956749740767,,0.04,true,ll,5273.016000000003,response,-1.042500842905652,1.0805596974655665,-1.15,-1.083053464502593,1.15,-1.0999999999999999,low,low,,ISIC_7212271.JPG,,ISIC_0071135.JPG,28,27,false,0.11,ll,keypress(f),0,true,399297.6999999881,399297.5,394007.665,394016,394024.484,399307.927,1,40,7,
sequence,flow.Sequence,8_6,2023-11-20T19:35:48.037Z,,,,,,,,,,,5273.016000000003,completion,,,,,,,low,low,,,,,,,false,,,,,true,399298.1999999881,399297.5,394007.665,394016,394024.484,399307.927,1,40,,
trial,html.Screen,8_7_0,2023-11-20T19:35:55.035Z,,,,2,-0.0060918352854008,0.029032683404407,,0.04,true,hh,6987.673000023817,response,1.1642596483638106,1.0805596974655665,-1.15,1.091507924157762,1.15,-1.0999999999999999,high,high,,ISIC_8436194.JPG,,ISIC_0765584.JPG,28,29,false,0.13,hh,keypress(i),0,true,406295.60000002384,406295.60000002384,399291.257,399298.5,399307.927,406307.815,1,40,8,
sequence,flow.Sequence,8_7,2023-11-20T19:35:55.035Z,,,,,,,,,,,6987.673000023817,completion,,,,,,,high,high,,,,,,,false,,,,,true,406295.8000000119,406295.60000002384,399291.257,399298.39999997616,399307.927,406307.815,1,40,,
trial,html.Screen,8_8_0,2023-11-20T19:36:02.235Z,,,,2,-0.0023664502831079,-0.0252784582169994,,0.04,true,ll,7187.985000011919,response,-1.042500842905652,1.0305596974655664,-1.15,-1.083053464502593,1.0999999999999999,-1.0999999999999999,low,low,,ISIC_4156010.JPG,,ISIC_0071135.JPG,28,27,false,0.11,ll,keypress(f),0,true,413496,413495.8000000119,406291.109,406295.89999997616,406307.815,413507.873,1,40,9,
sequence,flow.Sequence,8_8,2023-11-20T19:36:02.235Z,,,,,,,,,,,7187.985000011919,completion,,,,,,,low,low,,,,,,,false,,,,,true,413496.10000002384,413495.8000000119,406291.109,406295.89999997616,406307.815,413507.873,1,40,,
trial,html.Screen,8_9_0,2023-11-20T19:36:06.340Z,,,,2,-0.0060918352854008,0.029032683404407,,0.04,true,hl,4092.9270000118995,response,0.9385447468573198,1.0305596974655664,-1.033053464502593,-1.2289860846064424,1.0999999999999999,-1.033053464502593,high,low,,ISIC_8436194.JPG,,ISIC_0032780.JPG,28,25,false,0.22000000000000008,hl,keypress(j),0,true,417601.1999999881,417600.8000000119,413490.955,413496.1999999881,413507.873,417607.845,1,40,10,
sequence,flow.Sequence,8_9,2023-11-20T19:36:06.341Z,,,,,,,,,,,4092.9270000118995,completion,,,,,,,high,low,,,,,,,false,,,,,true,417601.60000002384,417600.8000000119,413490.955,413496.1999999881,413507.873,417607.845,1,40,,
trial,html.Screen,8_10_0,2023-11-20T19:36:12.868Z,,,,2,-0.0060918352854008,0.029032683404407,,0.04,false,ll,6520.655000000028,response,-0.9478344010828824,1.0305596974655664,-1.033053464502593,-1.1218541416084558,1.0999999999999999,-1.033053464502593,low,low,,ISIC_8436194.JPG,,ISIC_8252406.JPG,28,37,false,0.1,lh,keypress(e),0,true,424128.8000000119,424128.5,417591.19,417601.8000000119,417607.845,424157.869,1,40,11,
sequence,flow.Sequence,8_10,2023-11-20T19:36:12.868Z,,,,,,,,,,,6520.655000000028,completion,,,,,,,low,low,,,,,,,false,,,,,true,424129.3000000119,424128.5,417591.19,417601.6999999881,417607.845,424157.869,1,40,,
trial,html.Screen,8_11_0,2023-11-20T19:36:21.835Z,,,,2,0.010035581303589,-0.0100711721396864,,0.04,false,hl,8938.130999999994,response,0.9445114955578736,1.0305596974655664,-1.033053464502593,-1.0054210059625863,1.0999999999999999,-1.083053464502593,high,low,,ISIC_0030592.JPG,,ISIC_0033807.JPG,28,28,false,0.2500000000000001,ll,keypress(f),0,true,433096.1999999881,433096,424124.56,424129.5,424157.869,433107.916,1,40,12,
sequence,flow.Sequence,8_11,2023-11-20T19:36:21.835Z,,,,,,,,,,,8938.130999999994,completion,,,,,,,high,low,,,,,,,false,,,,,true,433096.5,433096,424124.56,424129.5,424157.869,433107.916,1,40,,
trial,html.Screen,8_12_0,2023-11-20T19:36:29.275Z,,,,2,-0.0350697500805515,-0.0166617848231997,,0.04,false,hh,7427.983999976132,response,1.1510001454240106,1.0805596974655665,-1.033053464502593,1.132540312667795,1.0999999999999999,-1.083053464502593,high,high,,ISIC_0024423.JPG,,ISIC_0009959.JPG,28,31,false,0.13,ll,keypress(f),0,true,440536,440535.89999997616,433090.885,433096.6999999881,433107.916,440541.189,1,40,13,
sequence,flow.Sequence,8_12,2023-11-20T19:36:29.275Z,,,,,,,,,,,7427.983999976132,completion,,,,,,,high,high,,,,,,,false,,,,,true,440536.1999999881,440535.89999997616,433090.885,433096.60000002384,433107.916,440541.189,1,40,,
trial,html.Screen,8_13_0,2023-11-20T19:36:34.908Z,,,,2,-0.0350697500805515,-0.0166617848231997,,0.04,true,hh,5627.810999999987,response,1.1513073368404492,1.1305596974655665,-1.033053464502593,1.0485268550965705,1.15,-1.083053464502593,high,high,,ISIC_0024423.JPG,,ISIC_0030666.JPG,28,27,false,0.13,hh,keypress(i),0,true,446169.39999997616,446169,440524.545,440536.1999999881,440541.189,446174.543,1,40,14,
sequence,flow.Sequence,8_13,2023-11-20T19:36:34.909Z,,,,,,,,,,,5627.810999999987,completion,,,,,,,high,high,,,,,,,false,,,,,true,446170,446169,440524.545,440536.1999999881,440541.189,446174.543,1,40,,
trial,html.Screen,8_14_0,2023-11-20T19:36:41.659Z,,,,2,0.0367218428225813,-0.0026956749740767,,0.04,false,lh,6745.656999988074,response,-1.0700930503975157,1.1305596974655665,-1.033053464502593,0.923753102263735,1.15,-1.083053464502593,low,high,,ISIC_7212271.JPG,,ISIC_0000022.JPG,28,25,false,0.2300000000000001,ll,keypress(f),0,true,452920.3000000119,452920.1999999881,446157.817,446170.1999999881,446174.543,452924.582,1,40,15,
sequence,flow.Sequence,8_14,2023-11-20T19:36:41.659Z,,,,,,,,,,,6745.656999988074,completion,,,,,,,low,high,,,,,,,false,,,,,true,452920.5,452920.1999999881,446157.817,446170.1999999881,446174.543,452924.582,1,40,,
trial,html.Screen,8_15_0,2023-11-20T19:36:45.475Z,,,,2,-0.0118555311043871,-0.0087774532070196,,0.04,true,ll,3811.718000011926,response,-0.9293599144917216,1.1305596974655665,-0.983053464502593,-1.045616100036335,1.15,-1.083053464502593,low,low,,ISIC_6488658.JPG,,ISIC_0011031.JPG,28,39,false,0.1,ll,keypress(f),0,true,456736.39999997616,456736.3000000119,452907.766,452920.60000002384,452924.582,456741.246,1,40,16,
sequence,flow.Sequence,8_15,2023-11-20T19:36:45.476Z,,,,,,,,,,,3811.718000011926,completion,,,,,,,low,low,,,,,,,false,,,,,true,456736.6999999881,456736.3000000119,452907.766,452920.60000002384,452924.582,456741.246,1,40,,
trial,html.Screen,8_16_0,2023-11-20T19:36:51.283Z,,,,2,0.0361875505619981,-0.0291457404567876,,0.04,true,ll,5802.6539999761735,response,-0.9738365957110542,1.1305596974655665,-0.983053464502593,-0.9145475604754156,1.15,-0.9374880072640284,low,low,,ISIC_0027480.JPG,,ISIC_3435596.JPG,28,50,false,0.1,ll,keypress(f),0,true,462544.10000002384,462543.89999997616,456724.448,456736.8000000119,456741.246,462557.95,1,40,17,
sequence,flow.Sequence,8_16,2023-11-20T19:36:51.283Z,,,,,,,,,,,5802.6539999761735,completion,,,,,,,low,low,,,,,,,false,,,,,true,462544.39999997616,462543.89999997616,456724.448,456736.8000000119,456741.246,462557.95,1,40,,
trial,html.Screen,8_17_0,2023-11-20T19:36:57.923Z,,,,2,0.0367218428225813,-0.0026956749740767,,0.04,false,ll,6626.049999999988,response,-0.8800173162815772,1.1305596974655665,-0.8941920780932349,-0.912069987718464,1.15,-0.9374880072640284,low,low,,ISIC_7212271.JPG,,ISIC_0030852.JPG,28,48,false,0.1,hl,keypress(j),0,true,469184.1999999881,469184,462541.194,462544.5,462557.95,469191.235,1,40,18,
sequence,flow.Sequence,8_17,2023-11-20T19:36:57.923Z,,,,,,,,,,,6626.049999999988,completion,,,,,,,low,low,,,,,,,false,,,,,true,469184.39999997616,469184,462541.194,462544.39999997616,462557.95,469191.235,1,40,,
trial,html.Screen,8_18_0,2023-11-20T19:37:03.787Z,,,,2,0.0367218428225813,-0.0026956749740767,,0.04,true,lh,5856.565000011935,response,-0.7622326985614671,1.1305596974655665,-0.9441920780932349,1.1077754321509423,1.15,-0.8633087740969398,low,high,,ISIC_7212271.JPG,,ISIC_4548995.JPG,28,26,false,0.20000000000000007,lh,keypress(e),0,true,475047.89999997616,475047.8000000119,469174.522,469184.39999997616,469191.235,475057.944,1,40,19,
sequence,flow.Sequence,8_18,2023-11-20T19:37:03.787Z,,,,,,,,,,,5856.565000011935,completion,,,,,,,low,high,,,,,,,false,,,,,true,475048.1999999881,475047.8000000119,469174.522,469184.39999997616,469191.235,475057.944,1,40,,
trial,html.Screen,8_19_0,2023-11-20T19:37:08.811Z,,,,2,0.0327772618698018,-0.0056908372048728,,0.04,false,hh,5013.755999988061,response,1.1168199061753437,1.1305596974655665,-0.9441920780932349,1.212287319329914,1.15,-0.8633087740969398,high,high,,ISIC_7897925.JPG,,ISIC_5919355.JPG,28,27,false,0.13,hl,keypress(j),0,true,480071.8000000119,480071.6999999881,475041.215,475048.3000000119,475057.944,480074.609,1,40,20,
sequence,flow.Sequence,8_19,2023-11-20T19:37:08.811Z,,,,,,,,,,,5013.755999988061,completion,,,,,,,high,high,,,,,,,false,,,,,true,480071.89999997616,480071.6999999881,475041.215,475048.3000000119,475057.944,480074.609,1,40,,
trial,html.Screen,8_20_0,2023-11-20T19:37:20.323Z,,,,2,0.0189295602385628,0.0128812415435153,,0.04,false,lh,11509.090999988082,response,-0.9566823908868002,1.062297669163143,-0.9441920780932349,0.9602125665128364,1.15,-0.8633087740969398,low,high,,ISIC_0010372.JPG,,ISIC_0056784.JPG,28,26,false,0.20000000000000007,ll,keypress(f),0,true,491583.89999997616,491583.6999999881,480057.812,480072,480074.609,491591.292,1,40,21,
sequence,flow.Sequence,8_20,2023-11-20T19:37:20.323Z,,,,,,,,,,,11509.090999988082,completion,,,,,,,low,high,,,,,,,false,,,,,true,491584.10000002384,491583.6999999881,480057.812,480072,480074.609,491591.292,1,40,,
trial,html.Screen,8_21_0,2023-11-20T19:37:24.980Z,,,,2,-0.0050679133050021,-0.0174815595031679,,0.04,true,lh,4649.407999988063,response,-0.7622326985614671,1.062297669163143,-0.8941920780932349,1.1077754321509423,1.15,-0.8633087740969398,low,high,,ISIC_9848743.JPG,,ISIC_4548995.JPG,28,29,false,0.20000000000000007,lh,keypress(e),0,true,496241,496240.6999999881,491574.221,491584.10000002384,491591.292,496258.093,1,40,22,
sequence,flow.Sequence,8_21,2023-11-20T19:37:24.981Z,,,,,,,,,,,4649.407999988063,completion,,,,,,,low,high,,,,,,,false,,,,,true,496241.39999997616,496240.6999999881,491574.221,491584.10000002384,491591.292,496258.093,1,40,,
trial,html.Screen,8_22_0,2023-11-20T19:37:31.875Z,,,,2,-0.00126575685933,-0.0325046559638838,,0.04,true,hl,6877.707000011927,response,1.1343164084491792,1.062297669163143,-0.8941920780932349,-0.7599392888539781,1.15,-0.8633087740969398,high,low,,ISIC_5682259.JPG,,ISIC_0032265.JPG,28,26,false,0.17000000000000004,hl,keypress(j),0,true,503135.89999997616,503135.8000000119,496241.277,496241.6999999881,496258.093,503141.314,1,40,23,
sequence,flow.Sequence,8_22,2023-11-20T19:37:31.875Z,,,,,,,,,,,6877.707000011927,completion,,,,,,,high,low,,,,,,,false,,,,,true,503136,503135.8000000119,496241.277,496241.60000002384,496258.093,503141.314,1,40,,
trial,html.Screen,8_23_0,2023-11-20T19:37:41.148Z,,,,2,-0.012810673904807,0.00400964452501,,0.04,false,hl,9267.185999999987,response,0.9394943755829636,1.062297669163143,-0.8941920780932349,-0.7928025019302636,1.15,-0.8633087740969398,high,low,,ISIC_0064656.JPG,,ISIC_0071550.JPG,28,26,false,0.17000000000000004,lh,keypress(e),0,true,512408.8000000119,512408.5,503124.575,503136.10000002384,503141.314,512424.618,1,40,24,
sequence,flow.Sequence,8_23,2023-11-20T19:37:41.148Z,,,,,,,,,,,9267.185999999987,completion,,,,,,,high,low,,,,,,,false,,,,,true,512409.1999999881,512408.5,503124.575,503136.10000002384,503141.314,512424.618,1,40,,
trial,html.Screen,8_24_0,2023-11-20T19:37:46.619Z,,,,2,-0.0071892445601978,0.0246015408628738,,0.04,true,hh,5455.182000011904,response,1.1802887330422154,1.112297669163143,-0.8941920780932349,1.0224375154810723,1.15,-0.9133087740969399,high,high,,ISIC_0014133.JPG,,ISIC_9225640.JPG,28,28,false,0.13,hh,keypress(i),0,true,517879.89999997616,517879.8000000119,512407.658,512409.39999997616,512424.618,517891.331,1,40,25,
sequence,flow.Sequence,8_24,2023-11-20T19:37:46.619Z,,,,,,,,,,,5455.182000011904,completion,,,,,,,high,high,,,,,,,false,,,,,true,517880,517879.8000000119,512407.658,512409.3000000119,512424.618,517891.331,1,40,,
trial,html.Screen,8_25_0,2023-11-20T19:37:52.419Z,,,,2,0.0086413421586899,0.0360184993500958,,0.04,true,hl,5788.469000011915,response,1.0003671514840182,1.112297669163143,-0.8941920780932349,-0.8992716557663581,1.0513631242616437,-0.9133087740969399,high,low,,ISIC_0010767.JPG,,ISIC_0061749.JPG,28,26,false,0.21000000000000008,hl,keypress(j),0,true,523680,523679.8000000119,517874.487,517880.1999999881,517891.331,523691.312,1,40,26,
sequence,flow.Sequence,8_25,2023-11-20T19:37:52.419Z,,,,,,,,,,,5788.469000011915,completion,,,,,,,high,low,,,,,,,false,,,,,true,523680.10000002384,523679.8000000119,517874.487,517880.10000002384,517891.331,523691.312,1,40,,
trial,html.Screen,8_26_0,2023-11-20T19:37:56.211Z,,,,2,0.0189295602385628,0.0128812415435153,,0.04,false,hl,3780.587999976182,response,0.8779374983479176,1.062297669163143,-0.8941920780932349,-0.9745548032823428,1.0513631242616437,-0.9133087740969399,high,low,,ISIC_0010372.JPG,,ISIC_2991354.JPG,28,27,false,0.20000000000000007,lh,keypress(e),0,true,527472.1000000238,527471.8999999762,523674.558,523680.1999999881,523691.312,527491.347,1,40,27,
sequence,flow.Sequence,8_26,2023-11-20T19:37:56.212Z,,,,,,,,,,,3780.587999976182,completion,,,,,,,high,low,,,,,,,false,,,,,true,527472.3999999762,527471.8999999762,523674.558,523680.1999999881,523691.312,527491.347,1,40,,
trial,html.Screen,8_27_0,2023-11-20T19:38:03.236Z,,,,2,0.0199897690678184,0.0312486875504497,,0.04,true,hl,7005.352999988128,response,1.1235224875125256,1.112297669163143,-0.8941920780932349,-0.8641223012137988,1.0513631242616437,-0.9633087740969399,high,low,,ISIC_5482426.JPG,,ISIC_0033901.JPG,28,27,false,0.2400000000000001,hl,keypress(j),0,true,534497,534496.6999999881,527458.074,527472.6000000238,527491.347,534508.032,1,40,28,
sequence,flow.Sequence,8_27,2023-11-20T19:38:03.237Z,,,,,,,,,,,7005.352999988128,completion,,,,,,,high,low,,,,,,,false,,,,,true,534497.5,534496.6999999881,527458.074,527472.5,527491.347,534508.032,1,40,,
trial,html.Screen,8_28_0,2023-11-20T19:38:06.243Z,,,,2,-0.0060934073440827,-0.0279108145883031,,0.04,true,ll,2995.6679999880726,response,-0.8797187572470211,1.112297669163143,-0.8941920780932349,-0.9573640085332544,1.0513631242616437,-0.9633087740969399,low,low,,ISIC_0032604.JPG,,ISIC_0010235.JPG,28,45,false,0.1,ll,keypress(f),0,true,537503.8999999762,537503.6999999881,534491.116,534497.6999999881,534508.032,537508.016,1,40,29,
sequence,flow.Sequence,8_28,2023-11-20T19:38:06.244Z,,,,,,,,,,,2995.6679999880726,completion,,,,,,,low,low,,,,,,,false,,,,,true,537504,537503.6999999881,534491.116,534497.6999999881,534508.032,537508.016,1,40,,
trial,html.Screen,8_29_0,2023-11-20T19:38:08.436Z,,,,2,-0.0050679133050021,-0.0174815595031679,,0.04,false,lh,2187.984000000055,response,-0.9566823908868002,1.112297669163143,-0.8607431548735266,0.9602125665128364,1.0513631242616437,-0.8607431548735266,low,high,,ISIC_9848743.JPG,,ISIC_0056784.JPG,28,32,false,0.17000000000000004,ll,keypress(f),0,true,539696.1999999881,539696,537491.403,537504,537508.016,539708.035,1,40,30,
sequence,flow.Sequence,8_29,2023-11-20T19:38:08.436Z,,,,,,,,,,,2187.984000000055,completion,,,,,,,low,high,,,,,,,false,,,,,true,539696.5,539696,537491.403,537504,537508.016,539708.035,1,40,,
trial,html.Screen,8_30_0,2023-11-20T19:38:13.212Z,,,,2,0.0367218428225813,-0.0026956749740767,,0.04,false,lh,4764.1649999880465,response,-0.9212323139676136,1.112297669163143,-0.8607431548735266,0.9882196642247332,1.1013631242616437,-0.8607431548735266,low,high,,ISIC_7212271.JPG,,ISIC_0014255.JPG,28,27,false,0.18000000000000005,ll,keypress(f),0,true,544472.5,544472.1999999881,539691.545,539696.6000000238,539708.035,544474.724,1,40,31,
sequence,flow.Sequence,8_30,2023-11-20T19:38:13.212Z,,,,,,,,,,,4764.1649999880465,completion,,,,,,,low,high,,,,,,,false,,,,,true,544472.8000000119,544472.1999999881,539691.545,539696.6000000238,539708.035,544474.724,1,40,,
trial,html.Screen,8_31_0,2023-11-20T19:38:23.491Z,,,,2,0.010035581303589,-0.0100711721396864,,0.04,true,ll,10276.975999988033,response,-0.9303292478996148,1.112297669163143,-0.8889573524272069,-0.8099604275482958,1.1513631242616438,-0.8607431548735266,low,low,,ISIC_0030592.JPG,,ISIC_0068580.JPG,28,55,false,0.1,ll,keypress(f),0,true,554751.8999999762,554751.6999999881,544458.104,544473,544474.724,554758.028,1,40,32,
sequence,flow.Sequence,8_31,2023-11-20T19:38:23.492Z,,,,,,,,,,,10276.975999988033,completion,,,,,,,low,low,,,,,,,false,,,,,true,554752,554751.6999999881,544458.104,544473,544474.724,554758.028,1,40,,
trial,html.Screen,8_32_0,2023-11-20T19:38:30.844Z,,,,2,-0.0060934073440827,-0.0279108145883031,,0.04,true,ll,7345.871999976109,response,-0.8223148058609743,1.112297669163143,-0.8889573524272069,-0.8873094399918428,1.1513631242616438,-0.8607431548735266,low,low,,ISIC_0032604.JPG,,ISIC_0011356.JPG,28,55,false,0.1,ll,keypress(f),0,true,562104.1000000238,562103.8999999762,554741.11,554752.1000000238,554758.028,562108.055,1,40,33,
sequence,flow.Sequence,8_32,2023-11-20T19:38:30.844Z,,,,,,,,,,,7345.871999976109,completion,,,,,,,low,low,,,,,,,false,,,,,true,562104.3999999762,562103.8999999762,554741.11,554752.1000000238,554758.028,562108.055,1,40,,
trial,html.Screen,8_33_0,2023-11-20T19:38:38.915Z,,,,2,-0.0158987717472563,-0.0292472192292015,,0.04,false,lh,8067.444999999949,response,-0.7871162143493278,1.112297669163143,-0.7986349337700692,1.2153707004941214,1.1513631242616438,-0.7986349337700692,low,high,,ISIC_1366765.JPG,,ISIC_3439215.JPG,28,28,false,0.17000000000000004,hh,keypress(i),0,true,570175.5,570175.5,562091.256,562104.5,562108.055,570191.4,1,40,34,
sequence,flow.Sequence,8_33,2023-11-20T19:38:38.915Z,,,,,,,,,,,8067.444999999949,completion,,,,,,,low,high,,,,,,,false,,,,,true,570175.6000000238,570175.5,562091.256,562104.5,562108.055,570191.4,1,40,,
trial,html.Screen,8_34_0,2023-11-20T19:38:42.099Z,,,,2,-0.0158987717472563,-0.0292472192292015,,0.04,false,hl,3168.299999988056,response,0.9464722688210522,1.112297669163143,-0.8486349337700693,-0.7779875773283346,1.1513631242616438,-0.7986349337700692,high,low,,ISIC_1366765.JPG,,ISIC_5926550.JPG,28,26,false,0.18000000000000005,hh,keypress(i),0,true,573360,573359.6999999881,570174.441,570175.6999999881,570191.4,573374.768,1,40,35,
sequence,flow.Sequence,8_34,2023-11-20T19:38:42.100Z,,,,,,,,,,,3168.299999988056,completion,,,,,,,high,low,,,,,,,false,,,,,true,573360.1999999881,573359.6999999881,570174.441,570175.6999999881,570191.4,573374.768,1,40,,
trial,html.Screen,8_35_0,2023-11-20T19:38:47.203Z,,,,2,-0.0399381815506136,-0.0177751789152893,,0.04,false,hh,5088.832000023802,response,1.1510001454240106,1.0309214846575867,-0.8486349337700693,1.132540312667795,1.1513631242616438,-0.8486349337700693,high,high,,ISIC_3981425.JPG,,ISIC_0009959.JPG,28,30,false,0.13,hl,keypress(j),0,true,578463.6999999881,578463.6000000238,573357.99,573360.3000000119,573374.768,578474.721,1,40,36,
sequence,flow.Sequence,8_35,2023-11-20T19:38:47.203Z,,,,,,,,,,,5088.832000023802,completion,,,,,,,high,high,,,,,,,false,,,,,true,578463.8999999762,578463.6000000238,573357.99,573360.3000000119,573374.768,578474.721,1,40,,
trial,html.Screen,8_36_0,2023-11-20T19:38:54.628Z,,,,2,-0.0350697500805515,-0.0166617848231997,,0.04,false,lh,7413.379000023822,response,-0.6707413499192771,1.0309214846575867,-0.8486349337700693,1.176352590105879,1.1513631242616438,-0.8486349337700693,low,high,,ISIC_0024423.JPG,,ISIC_0567814.JPG,28,29,false,0.19000000000000006,ll,keypress(f),0,true,585888.3000000119,585888.1000000238,578457.892,578464,578474.721,585891.443,1,40,37,
sequence,flow.Sequence,8_36,2023-11-20T19:38:54.628Z,,,,,,,,,,,7413.379000023822,completion,,,,,,,low,high,,,,,,,false,,,,,true,585888.5,585888.1000000238,578457.892,578464,578474.721,585891.443,1,40,,
trial,html.Screen,8_37_0,2023-11-20T19:39:05.708Z,,,,2,0.0321039635696159,0.020496766286318,,0.04,false,hh,11076.256999988109,response,0.9537595754201148,1.0309214846575867,-0.8486349337700693,1.1342661775432377,1.1513631242616438,-0.8486349337700693,high,high,,ISIC_0058063.JPG,,ISIC_0741694.JPG,28,30,false,0.13,hl,keypress(j),0,true,596967.8999999762,596967.6999999881,585874.724,585888.6000000238,585891.443,596974.771,1,40,38,
sequence,flow.Sequence,8_37,2023-11-20T19:39:05.708Z,,,,,,,,,,,11076.256999988109,completion,,,,,,,high,high,,,,,,,false,,,,,true,596968.1000000238,596967.6999999881,585874.724,585888.6000000238,585891.443,596974.771,1,40,,
trial,html.Screen,8_38_0,2023-11-20T19:39:12.533Z,,,,2,0.0086413421586899,0.0360184993500958,,0.04,false,hl,6817.829000023892,response,0.8923602890201078,0.9809214846575867,-0.8486349337700693,-0.8351700666074688,1.1513631242616438,-0.8486349337700693,high,low,,ISIC_0010767.JPG,,ISIC_0033103.JPG,28,26,false,0.16000000000000003,hh,keypress(i),0,true,603792.8999999762,603792.6000000238,596957.873,596968.1000000238,596974.771,603808.2,1,40,39,
sequence,flow.Sequence,8_38,2023-11-20T19:39:12.533Z,,,,,,,,,,,6817.829000023892,completion,,,,,,,high,low,,,,,,,false,,,,,true,603793.6999999881,603792.6000000238,596957.873,596968.1000000238,596974.771,603808.2,1,40,,
trial,html.Screen,8_39_0,2023-11-20T19:39:17.141Z,,,,2,0.0051046740562181,-0.0178832721027728,,0.04,false,hh,4592.400000023888,response,0.8682521581029131,0.9809214846575867,-0.8486349337700693,1.187434999088787,1.1513631242616438,-0.8986349337700693,high,high,,ISIC_9545819.JPG,,ISIC_5772144.JPG,28,29,false,0.12,hl,keypress(j),0,true,608400.8000000119,608400.6000000238,603791.461,603793.8000000119,603808.2,608408.111,1,40,40,
sequence,flow.Sequence,8_39,2023-11-20T19:39:17.141Z,,,,,,,,,,,4592.400000023888,completion,,,,,,,high,high,,,,,,,false,,,,,true,608401.3000000119,608400.6000000238,603791.461,603793.6999999881,603808.2,608408.111,1,40,,
stair_loop,flow.Loop,8,2023-11-20T19:39:17.141Z,,,,,,,,,,,257192.80800002383,completion,,,,,,,,,,,,,,,false,,,,,true,608401.5,608400.6000000238,351191.15,351183.6999999881,351207.792,608408.111,1,40,,
exp_instructions,html.Screen,9,2023-11-20T19:39:30.244Z,,,,,,,,,,,13095.489000023808,response,,,,,,,,,,,,,,,,,continue,keypress(Space),,,621504.1000000238,621503.6000000238,608391.359,608401.6000000238,608408.111,621508.154,,,,
trial,html.Screen,10_0_0,2023-11-20T19:39:35.919Z,,,,1,0.0361875505619981,-0.0291457404567876,,0.04,true,hh,5670.946000023861,response,1.1638334638021437,1.0744536230367536,-0.8743787126915533,1.0846635401396965,1.1235223431962325,-0.8726598061378527,high,high,,ISIC_0027480.JPG,9,ISIC_4718313.JPG,28,25,false,0.12,hh,keypress(i),0,false,627179.3000000119,627179.1000000238,621491.065,621504.3000000119,621508.154,627191.479,5,600,1,
break,html.Screen,10_0_1,2023-11-20T19:39:35.920Z,,,,,,,,,,,NaN,,,,,,,,high,high,,,,,,,false,,,,,false,627179.8000000119,627179.6000000238,,627179.3999999762,,627191.479,5,600,,
break_continue,html.Screen,10_0_2,2023-11-20T19:39:35.920Z,,,,,,,,,,,NaN,,,,,,,,high,high,,,,,,,false,,,,,false,627180.1999999881,627180,,627179.8999999762,,627191.479,5,600,,
sequence,flow.Sequence,10_0,2023-11-20T19:39:35.920Z,,,,,,,,,,,5671.84600000002,completion,,,,,,,high,high,,,,,,,false,,,,,false,627180.3000000119,627180,621491.065,621504.3000000119,621508.154,627191.479,5,600,,
trial,html.Screen,10_1_0,2023-11-20T19:39:47.939Z,,,,1,0.0327772618698018,-0.0056908372048728,,0.04,true,ll,12008.121000023792,response,-0.8797187572470211,1.0744536230367536,-0.8743787126915533,-0.9573640085332544,1.1235223431962325,-0.8726598061378527,low,low,,ISIC_7897925.JPG,9,ISIC_0010235.JPG,28,52,false,0.1,ll,keypress(f),0,false,639199.8000000119,639199.6000000238,627174.749,627180.3999999762,627191.479,639208.208,5,600,2,
break,html.Screen,10_1_1,2023-11-20T19:39:47.940Z,,,,,,,,,,,NaN,,,,,,,,low,low,,,,,,,false,,,,,false,639200.3000000119,639200.1000000238,,639199.8000000119,,639208.208,5,600,,
break_continue,html.Screen,10_1_2,2023-11-20T19:39:47.940Z,,,,,,,,,,,NaN,,,,,,,,low,low,,,,,,,false,,,,,false,639200.6000000238,639200.6000000238,,639200.3999999762,,639208.208,5,600,,
sequence,flow.Sequence,10_1,2023-11-20T19:39:47.940Z,,,,,,,,,,,12009.121000023792,completion,,,,,,,low,low,,,,,,,false,,,,,false,639200.6999999881,639200.6000000238,627174.749,627180.3999999762,627191.479,639208.208,5,600,,
trial,html.Screen,10_2_0,2023-11-20T19:39:52.995Z,,,,1,-0.00126575685933,-0.0325046559638838,,0.04,false,ll,5047.092000011937,response,-0.9464457672695302,1.0744536230367536,-0.8743787126915533,-0.8245045690591577,1.1235223431962325,-0.8726598061378527,low,low,,ISIC_5682259.JPG,8,ISIC_0027021.JPG,28,52,false,0.1,lh,keypress(e),0,false,644255.3999999762,644255.3000000119,639191.524,639200.8999999762,639208.208,644258.139,5,600,3,
break,html.Screen,10_2_1,2023-11-20T19:39:52.995Z,,,,,,,,,,,NaN,,,,,,,,low,low,,,,,,,false,,,,,false,644255.6999999881,644255.6000000238,,644255.5,,644258.139,5,600,,
break_continue,html.Screen,10_2_2,2023-11-20T19:39:52.996Z,,,,,,,,,,,NaN,,,,,,,,low,low,,,,,,,false,,,,,false,644255.8999999762,644255.8999999762,,644255.6999999881,,644258.139,5,600,,
sequence,flow.Sequence,10_2,2023-11-20T19:39:52.996Z,,,,,,,,,,,5047.691999976174,completion,,,,,,,low,low,,,,,,,false,,,,,false,644255.8999999762,644255.8999999762,639191.524,639200.8999999762,639208.208,644258.139,5,600,,
trial,html.Screen,10_3_0,2023-11-20T19:39:57.396Z,,,,1,-0.0350697500805515,-0.0166617848231997,,0.04,false,hh,4397.760999976192,response,1.1638334638021437,1.0744536230367536,-0.8743787126915533,1.0846635401396965,1.1235223431962325,-0.8726598061378527,high,high,,ISIC_0024423.JPG,10,ISIC_4718313.JPG,28,25,false,0.12,hl,keypress(j),0,false,648656.1000000238,648655.8999999762,644241.379,644256,644258.139,648658.145,5,600,4,
break,html.Screen,10_3_1,2023-11-20T19:39:57.396Z,,,,,,,,,,,NaN,,,,,,,,high,high,,,,,,,false,,,,,false,648656.3999999762,648656.3000000119,,648656.1999999881,,648658.145,5,600,,
break_continue,html.Screen,10_3_2,2023-11-20T19:39:57.396Z,,,,,,,,,,,NaN,,,,,,,,high,high,,,,,,,false,,,,,false,648656.6000000238,648656.5,,648656.3999999762,,648658.145,5,600,,
sequence,flow.Sequence,10_3,2023-11-20T19:39:57.396Z,,,,,,,,,,,4398.3610000000335,completion,,,,,,,high,high,,,,,,,false,,,,,false,648656.6999999881,648656.5,644241.379,644256,644258.139,648658.145,5,600,,
trial,html.Screen,10_4_0,2023-11-20T19:40:02.579Z,,,,1,0.0086413421586899,0.0360184993500958,,0.04,false,hl,5181.354999999981,response,1.064425982109969,1.0744536230367536,-0.8743787126915533,-0.958564243697126,1.1235223431962325,-0.8726598061378527,high,low,,ISIC_0010767.JPG,9,ISIC_3203344.JPG,28,27,false,0.18000000000000005,hh,keypress(i),0,false,653839.6000000238,653839.5,648641.369,648656.6999999881,648658.145,653841.508,5,600,5,
break,html.Screen,10_4_1,2023-11-20T19:40:02.580Z,,,,,,,,,,,NaN,,,,,,,,high,low,,,,,,,false,,,,,false,653839.8999999762,653839.8999999762,,653839.6999999881,,653841.508,5,600,,
break_continue,html.Screen,10_4_2,2023-11-20T19:40:02.580Z,,,,,,,,,,,NaN,,,,,,,,high,low,,,,,,,false,,,,,false,653840.1000000238,653840,,653840,,653841.508,5,600,,
sequence,flow.Sequence,10_4,2023-11-20T19:40:02.580Z,,,,,,,,,,,5181.854999999981,completion,,,,,,,high,low,,,,,,,false,,,,,false,653840.1999999881,653840,648641.369,648656.6999999881,648658.145,653841.508,5,600,,
trial,html.Screen,10_5_0,2023-11-20T19:40:11.372Z,,,,1,-0.0158987717472563,-0.0292472192292015,,0.04,true,hl,8790.79200001189,response,0.9013888878932071,1.0744536230367536,-0.8743787126915533,-0.9328095253308732,1.1235223431962325,-0.8726598061378527,high,low,,ISIC_1366765.JPG,9,ISIC_0068259.JPG,28,27,false,0.18000000000000005,hl,keypress(j),0,false,662632.6000000238,662632.3000000119,653824.659,653840.1999999881,653841.508,662658.196,5,600,6,
break,html.Screen,10_5_1,2023-11-20T19:40:11.373Z,,,,,,,,,,,NaN,,,,,,,,high,low,,,,,,,false,,,,,false,662633.3999999762,662633.1999999881,,662632.8000000119,,662658.196,5,600,,
break_continue,html.Screen,10_5_2,2023-11-20T19:40:11.374Z,,,,,,,,,,,NaN,,,,,,,,high,low,,,,,,,false,,,,,false,662634,662633.8000000119,,662633.6000000238,,662658.196,5,600,,
sequence,flow.Sequence,10_5,2023-11-20T19:40:11.374Z,,,,,,,,,,,8792.29200001189,completion,,,,,,,high,low,,,,,,,false,,,,,false,662634.1999999881,662633.8000000119,653824.659,653840.1999999881,653841.508,662658.196,5,600,,
trial,html.Screen,10_6_0,2023-11-20T19:40:18.915Z,,,,1,-0.0060918352854008,0.029032683404407,,0.04,false,lh,7517.203999976162,response,-0.8035152873995188,1.0744536230367536,-0.8743787126915533,1.2407642249743125,1.1235223431962325,-0.8726598061378527,low,high,,ISIC_8436194.JPG,8,ISIC_0010671.JPG,28,26,false,0.18000000000000005,hl,keypress(j),0,false,670175.5,670175.3999999762,662624.832,662634.3000000119,662658.196,670191.549,5,600,7,
break,html.Screen,10_6_1,2023-11-20T19:40:18.916Z,,,,,,,,,,,NaN,,,,,,,,low,high,,,,,,,false,,,,,false,670175.8000000119,670175.6999999881,,670175.6000000238,,670191.549,5,600,,
break_continue,html.Screen,10_6_2,2023-11-20T19:40:18.916Z,,,,,,,,,,,NaN,,,,,,,,low,high,,,,,,,false,,,,,false,670175.8999999762,670175.8000000119,,670175.8000000119,,670191.549,5,600,,
sequence,flow.Sequence,10_6,2023-11-20T19:40:18.916Z,,,,,,,,,,,7517.604000011925,completion,,,,,,,low,high,,,,,,,false,,,,,false,670175.8999999762,670175.8000000119,662624.832,662634.3000000119,662658.196,670191.549,5,600,,
trial,html.Screen,10_7_0,2023-11-20T19:40:23.413Z,,,,1,-0.012020985739544,0.0126097407389903,,0.04,false,hl,4481.251000011922,response,1.064425982109969,1.0744536230367536,-0.8743787126915533,-0.958564243697126,1.1235223431962325,-0.8726598061378527,high,low,,ISIC_0069379.JPG,9,ISIC_3203344.JPG,28,27,false,0.18000000000000005,hh,keypress(i),0,false,674673.1000000238,674672.8000000119,670174.862,670176,670191.549,674692.963,5,600,8,
break,html.Screen,10_7_1,2023-11-20T19:40:23.414Z,,,,,,,,,,,NaN,,,,,,,,high,low,,,,,,,false,,,,,false,674674,674673.6999999881,,674673.3999999762,,674692.963,5,600,,
break_continue,html.Screen,10_7_2,2023-11-20T19:40:23.414Z,,,,,,,,,,,NaN,,,,,,,,high,low,,,,,,,false,,,,,false,674674.6000000238,674674.3999999762,,674674.1999999881,,674692.963,5,600,,
sequence,flow.Sequence,10_7,2023-11-20T19:40:23.415Z,,,,,,,,,,,4482.850999976159,completion,,,,,,,high,low,,,,,,,false,,,,,false,674674.8999999762,674674.3999999762,670174.862,670176,670191.549,674692.963,5,600,,
trial,html.Screen,10_8_0,2023-11-20T19:40:28.509Z,,,,1,-0.0166849894750452,0.0371614812368835,,0.04,true,ll,5075.637000023853,response,-0.838053327796249,1.0744536230367536,-0.8743787126915533,-0.9376491160549733,1.1235223431962325,-0.8726598061378527,low,low,,ISIC_6231450.JPG,9,ISIC_4834687.JPG,28,52,false,0.1,ll,keypress(f),0,false,679768.8000000119,679768.6000000238,674658.39,674675.1000000238,674692.963,679774.887,5,600,9,
break,html.Screen,10_8_1,2023-11-20T19:40:28.510Z,,,,,,,,,,,NaN,,,,,,,,low,low,,,,,,,false,,,,,false,679770,679769.6000000238,,679769.1999999881,,679774.887,5,600,,
break_continue,html.Screen,10_8_2,2023-11-20T19:40:28.510Z,,,,,,,,,,,NaN,,,,,,,,low,low,,,,,,,false,,,,,false,679770.6000000238,679770.3999999762,,679770.1000000238,,679774.887,5,600,,
sequence,flow.Sequence,10_8,2023-11-20T19:40:28.511Z,,,,,,,,,,,5077.436999976169,completion,,,,,,,low,low,,,,,,,false,,,,,false,679770.8999999762,679770.3999999762,674658.39,674675.1000000238,674692.963,679774.887,5,600,,
trial,html.Screen,10_9_0,2023-11-20T19:40:39.708Z,,,,1,0.0127320821962457,-0.0315308940184827,,0.04,false,ll,11192.913000011933,response,-0.8509873724468401,1.0744536230367536,-0.8743787126915533,-0.7817976328037175,1.1235223431962325,-0.8726598061378527,low,low,,ISIC_8156101.JPG,9,ISIC_0011497.JPG,28,52,false,0.1,hh,keypress(i),0,false,690967.8999999762,690967.8000000119,679758.104,679771,679774.887,690974.894,5,600,10,
break,html.Screen,10_9_1,2023-11-20T19:40:39.708Z,,,,,,,,,,,NaN,,,,,,,,low,low,,,,,,,false,,,,,false,690968.1999999881,690968.1999999881,,690968,,690974.894,5,600,,
break_continue,html.Screen,10_9_2,2023-11-20T19:40:39.708Z,,,,,,,,,,,NaN,,,,,,,,low,low,,,,,,,false,,,,,false,690968.3999999762,690968.3000000119,,690968.3000000119,,690974.894,5,600,,
sequence,flow.Sequence,10_9,2023-11-20T19:40:39.708Z,,,,,,,,,,,11193.413000011933,completion,,,,,,,low,low,,,,,,,false,,,,,false,690968.3999999762,690968.3000000119,679758.104,679771,679774.887,690974.894,5,600,,
trial,html.Screen,10_10_0,2023-11-20T19:40:44.189Z,,,,1,0.0086413421586899,0.0360184993500958,,0.04,false,hl,4473.606000000029,response,1.1235224875125256,1.0744536230367536,-0.8743787126915533,-0.8641223012137988,1.1235223431962325,-0.8726598061378527,high,low,,ISIC_0010767.JPG,9,ISIC_0033901.JPG,28,27,false,0.18000000000000005,hh,keypress(i),0,false,695448.8999999762,695448.5,690958.189,690968.5,690974.894,695458.268,5,600,11,
break,html.Screen,10_10_1,2023-11-20T19:40:44.190Z,,,,,,,,,,,NaN,,,,,,,,high,low,,,,,,,false,,,,,false,695449.6999999881,695449.5,,695449.1000000238,,695458.268,5,600,,
break_continue,html.Screen,10_10_2,2023-11-20T19:40:44.190Z,,,,,,,,,,,NaN,,,,,,,,high,low,,,,,,,false,,,,,false,695450.3000000119,695450.1000000238,,695450,,695458.268,5,600,,
sequence,flow.Sequence,10_10,2023-11-20T19:40:44.190Z,,,,,,,,,,,4475.206000023871,completion,,,,,,,high,low,,,,,,,false,,,,,false,695450.5,695450.1000000238,690958.189,690968.5,690974.894,695458.268,5,600,,
trial,html.Screen,10_11_0,2023-11-20T19:40:54.660Z,,,,1,-0.0060934073440827,-0.0279108145883031,,0.04,false,lh,10462.03200001188,response,-0.7753299102004093,1.0744536230367536,-0.8743787126915533,1.053851019509641,1.1235223431962325,-0.8726598061378527,low,high,,ISIC_0032604.JPG,10,ISIC_9511832.JPG,28,26,false,0.18000000000000005,ll,keypress(f),0,false,705920.6000000238,705920.3000000119,695441.485,695450.8000000119,695458.268,705924.957,5,600,12,
break,html.Screen,10_11_1,2023-11-20T19:40:54.661Z,,,,,,,,,,,NaN,,,,,,,,low,high,,,,,,,false,,,,,false,705921.1999999881,705921,,705920.6999999881,,705924.957,5,600,,
break_continue,html.Screen,10_11_2,2023-11-20T19:40:54.661Z,,,,,,,,,,,NaN,,,,,,,,low,high,,,,,,,false,,,,,false,705921.6000000238,705921.3999999762,,705921.3000000119,,705924.957,5,600,,
sequence,flow.Sequence,10_11,2023-11-20T19:40:54.662Z,,,,,,,,,,,10463.131999976118,completion,,,,,,,low,high,,,,,,,false,,,,,false,705921.6999999881,705921.3999999762,695441.485,695450.6999999881,695458.268,705924.957,5,600,,
trial,html.Screen,10_12_0,2023-11-20T19:41:07.260Z,,,,1,-0.012810673904807,0.00400964452501,,0.04,false,hl,12594.643000023789,response,0.9394943755829636,1.0744536230367536,-0.8743787126915533,-0.7928025019302636,1.1235223431962325,-0.8726598061378527,high,low,,ISIC_0064656.JPG,10,ISIC_0071550.JPG,28,27,false,0.18000000000000005,hh,keypress(i),0,false,718519.6000000238,718519.6000000238,705908.343,705921.6999999881,705924.957,718524.913,5,600,13,
break,html.Screen,10_12_1,2023-11-20T19:41:07.260Z,,,,,,,,,,,NaN,,,,,,,,high,low,,,,,,,false,,,,,false,718520,718519.8999999762,,718519.8000000119,,718524.913,5,600,,
break_continue,html.Screen,10_12_2,2023-11-20T19:41:07.260Z,,,,,,,,,,,NaN,,,,,,,,high,low,,,,,,,false,,,,,false,718520.1000000238,718520.1000000238,,718520.1000000238,,718524.913,5,600,,
sequence,flow.Sequence,10_12,2023-11-20T19:41:07.260Z,,,,,,,,,,,12595.143000023789,completion,,,,,,,high,low,,,,,,,false,,,,,false,718520.3000000119,718520.1000000238,705908.343,705921.6999999881,705924.957,718524.913,5,600,,
trial,html.Screen,10_13_0,2023-11-20T19:41:12.789Z,,,,1,0.0365981355399771,0.0162670920008846,,0.04,false,hl,5523.587000000058,response,1.064425982109969,1.0744536230367536,-0.8743787126915533,-0.958564243697126,1.1235223431962325,-0.8726598061378527,high,low,,ISIC_0982855.JPG,10,ISIC_3203344.JPG,28,27,false,0.18000000000000005,hh,keypress(i),0,false,724048.8000000119,724048.5,718508.184,718520.3000000119,718524.913,724058.299,5,600,14,
break,html.Screen,10_13_1,2023-11-20T19:41:12.790Z,,,,,,,,,,,NaN,,,,,,,,high,low,,,,,,,false,,,,,false,724049.6999999881,724049.5,,724049,,724058.299,5,600,,
break_continue,html.Screen,10_13_2,2023-11-20T19:41:12.790Z,,,,,,,,,,,NaN,,,,,,,,high,low,,,,,,,false,,,,,false,724050.1999999881,724050.1000000238,,724049.8999999762,,724058.299,5,600,,
sequence,flow.Sequence,10_13,2023-11-20T19:41:12.791Z,,,,,,,,,,,5525.1870000239,completion,,,,,,,high,low,,,,,,,false,,,,,false,724050.5,724050.1000000238,718508.184,718520.3000000119,718524.913,724058.299,5,600,,
trial,html.Screen,10_14_0,2023-11-20T19:41:18.684Z,,,,1,0.0086413421586899,0.0360184993500958,,0.04,false,hl,5885.301000023843,response,1.225025174430573,1.0744536230367536,-0.8743787126915533,-0.8422679054456499,1.1235223431962325,-0.8726598061378527,high,low,,ISIC_0010767.JPG,9,ISIC_7503950.JPG,28,27,false,0.18000000000000005,hh,keypress(i),0,false,729943.8000000119,729943.6000000238,724041.434,724050.6999999881,724058.299,729958.46,5,600,15,
break,html.Screen,10_14_1,2023-11-20T19:41:18.684Z,,,,,,,,,,,NaN,,,,,,,,high,low,,,,,,,false,,,,,false,729944.1000000238,729944,,729943.8000000119,,729958.46,5,600,,
break_continue,html.Screen,10_14_2,2023-11-20T19:41:18.684Z,,,,,,,,,,,NaN,,,,,,,,high,low,,,,,,,false,,,,,false,729944.3000000119,729944.1999999881,,729944.1000000238,,729958.46,5,600,,
sequence,flow.Sequence,10_14,2023-11-20T19:41:18.684Z,,,,,,,,,,,5885.90099998808,completion,,,,,,,high,low,,,,,,,false,,,,,false,729944.3000000119,729944.1999999881,724041.434,724050.6000000238,724058.299,729958.46,5,600,,
trial,html.Screen,10_15_0,2023-11-20T19:41:23.837Z,,,,1,-0.0050679133050021,-0.0174815595031679,,0.04,true,ll,5138.239999988116,response,-0.9110220836651584,1.0744536230367536,-0.8743787126915533,-0.9273440813991668,1.1235223431962325,-0.8726598061378527,low,low,,ISIC_9848743.JPG,8,ISIC_8290994.JPG,28,52,false,0.1,ll,keypress(f),0,false,735096.8999999762,735096.6999999881,729941.714,729944.3000000119,729958.46,735108.281,5,600,16,
break,html.Screen,10_15_1,2023-11-20T19:41:23.838Z,,,,,,,,,,,NaN,,,,,,,,low,low,,,,,,,false,,,,,false,735097.6999999881,735097.5,,735097.1999999881,,735108.281,5,600,,
break_continue,html.Screen,10_15_2,2023-11-20T19:41:23.838Z,,,,,,,,,,,NaN,,,,,,,,low,low,,,,,,,false,,,,,false,735098.1999999881,735098,,735097.8999999762,,735108.281,5,600,,
sequence,flow.Sequence,10_15,2023-11-20T19:41:23.838Z,,,,,,,,,,,5139.540000000037,completion,,,,,,,low,low,,,,,,,false,,,,,false,735098.3999999762,735098,729941.714,729944.3000000119,729958.46,735108.281,5,600,,
trial,html.Screen,10_16_0,2023-11-20T19:41:34.708Z,,,,1,0.0051046740562181,-0.0178832721027728,,0.04,true,ll,10859.719000000041,response,-0.8121377641994781,1.0744536230367536,-0.8743787126915533,-0.9325200951609898,1.1235223431962325,-0.8726598061378527,low,low,,ISIC_9545819.JPG,9,ISIC_9363106.JPG,28,52,false,0.1,ll,keypress(f),0,false,745968.1000000238,745968,735091.75,735098.6000000238,735108.281,745974.951,5,600,17,
break,html.Screen,10_16_1,2023-11-20T19:41:34.708Z,,,,,,,,,,,NaN,,,,,,,,low,low,,,,,,,false,,,,,false,745968.3999999762,745968.3000000119,,745968.1999999881,,745974.951,5,600,,
break_continue,html.Screen,10_16_2,2023-11-20T19:41:34.709Z,,,,,,,,,,,NaN,,,,,,,,low,low,,,,,,,false,,,,,false,745968.6999999881,745968.5,,745968.3999999762,,745974.951,5,600,,
sequence,flow.Sequence,10_16,2023-11-20T19:41:34.709Z,,,,,,,,,,,10860.219000000041,completion,,,,,,,low,low,,,,,,,false,,,,,false,745968.6999999881,745968.5,735091.75,735098.5,735108.281,745974.951,5,600,,
trial,html.Screen,10_17_0,2023-11-20T19:41:39.765Z,,,,1,0.010035581303589,-0.0100711721396864,,0.04,false,hh,5049.948999976157,response,0.9949679201447648,1.0744536230367536,-0.8743787126915533,1.0468574143792184,1.1235223431962325,-0.8726598061378527,high,high,,ISIC_0030592.JPG,9,ISIC_6640753.JPG,28,25,false,0.12,hl,keypress(j),0,false,751025.1999999881,751024.8999999762,745958.426,745968.8000000119,745974.951,751041.68,5,600,18,
break,html.Screen,10_17_1,2023-11-20T19:41:39.767Z,,,,,,,,,,,NaN,,,,,,,,high,high,,,,,,,false,,,,,false,751026.6000000238,751026.1999999881,,751025.6000000238,,751041.68,5,600,,
break_continue,html.Screen,10_17_2,2023-11-20T19:41:39.767Z,,,,,,,,,,,NaN,,,,,,,,high,high,,,,,,,false,,,,,false,751027.1000000238,751026.8999999762,,751026.6999999881,,751041.68,5,600,,
sequence,flow.Sequence,10_17,2023-11-20T19:41:39.767Z,,,,,,,,,,,5051.948999976157,completion,,,,,,,high,high,,,,,,,false,,,,,false,751027.3000000119,751026.8999999762,745958.426,745968.8000000119,745974.951,751041.68,5,600,,
trial,html.Screen,10_18_0,2023-11-20T19:41:44.348Z,,,,1,-0.012020985739544,0.0126097407389903,,0.04,true,ll,4566.019999988028,response,-0.8627799752848101,1.0744536230367536,-0.8743787126915533,-0.9479141048747124,1.1235223431962325,-0.8726598061378527,low,low,,ISIC_0069379.JPG,9,ISIC_9615486.JPG,28,52,false,0.1,ll,keypress(f),0,false,755607.6999999881,755607.6999999881,751024.943,751027.5,751041.68,755626.074,5,600,19,
break,html.Screen,10_18_1,2023-11-20T19:41:44.348Z,,,,,,,,,,,NaN,,,,,,,,low,low,,,,,,,false,,,,,false,755608.1000000238,755608,,755607.8000000119,,755626.074,5,600,,
break_continue,html.Screen,10_18_2,2023-11-20T19:41:44.348Z,,,,,,,,,,,NaN,,,,,,,,low,low,,,,,,,false,,,,,false,755608.1999999881,755608.1999999881,,755608.1000000238,,755626.074,5,600,,
sequence,flow.Sequence,10_18,2023-11-20T19:41:44.348Z,,,,,,,,,,,4566.519999988028,completion,,,,,,,low,low,,,,,,,false,,,,,false,755608.3000000119,755608.1999999881,751024.943,751027.3999999762,751041.68,755626.074,5,600,,
trial,html.Screen,10_19_0,2023-11-20T19:41:48.797Z,,,,1,-0.0050679133050021,-0.0174815595031679,,0.04,true,ll,4430.325999976136,response,-0.8052466281778704,1.0744536230367536,-0.8743787126915533,-0.8895194627589205,1.1235223431962325,-0.8726598061378527,low,low,,ISIC_9848743.JPG,9,ISIC_0025814.JPG,28,52,false,0.1,ll,keypress(f),0,false,760056.6000000238,760056.3999999762,755591.537,755608.3999999762,755626.074,760058.346,5,600,20,
break,html.Screen,10_19_1,2023-11-20T19:41:48.797Z,,,,,,,,,,,NaN,,,,,,,,low,low,,,,,,,false,,,,,false,760057.3000000119,760057.1000000238,,760056.8000000119,,760058.346,5,600,,
break_continue,html.Screen,10_19_2,2023-11-20T19:41:48.798Z,,,,,,,,,,,NaN,,,,,,,,low,low,,,,,,,false,,,,,false,760057.6999999881,760057.5,,760057.3999999762,,760058.346,5,600,,
sequence,flow.Sequence,10_19,2023-11-20T19:41:48.798Z,,,,,,,,,,,4431.425999999978,completion,,,,,,,low,low,,,,,,,false,,,,,false,760057.8000000119,760057.5,755591.537,755608.3999999762,755626.074,760058.346,5,600,,
trial,html.Screen,10_20_0,2023-11-20T19:41:53.765Z,,,,1,-0.0071892445601978,0.0246015408628738,,0.04,false,lh,4966.15399999998,response,-0.8035152873995188,1.0744536230367536,-0.8743787126915533,1.2407642249743125,1.1235223431962325,-0.8726598061378527,low,high,,ISIC_0014133.JPG,8,ISIC_0010671.JPG,28,26,false,0.18000000000000005,ll,keypress(f),0,false,765024.8000000119,765024.5,760041.653,760057.8999999762,760058.346,765041.643,5,600,21,
break,html.Screen,10_20_1,2023-11-20T19:41:53.766Z,,,,,,,,,,,NaN,,,,,,,,low,high,,,,,,,false,,,,,false,765025.6999999881,765025.3999999762,,765025.1000000238,,765041.643,5,600,,
break_continue,html.Screen,10_20_2,2023-11-20T19:41:53.766Z,,,,,,,,,,,NaN,,,,,,,,low,high,,,,,,,false,,,,,false,765026.3000000119,765026.1999999881,,765025.8999999762,,765041.643,5,600,,
sequence,flow.Sequence,10_20,2023-11-20T19:41:53.767Z,,,,,,,,,,,4967.8539999880595,completion,,,,,,,low,high,,,,,,,false,,,,,false,765026.5,765026.1999999881,760041.653,760057.8999999762,760058.346,765041.643,5,600,,
trial,html.Screen,10_21_0,2023-11-20T19:41:59.460Z,,,,1,-0.0350697500805515,-0.0166617848231997,,0.04,false,lh,5678.35699999996,response,-0.6960100190659906,1.0744536230367536,-0.8743787126915533,1.12267859423828,1.1235223431962325,-0.8726598061378527,low,high,,ISIC_0024423.JPG,10,ISIC_0062702.JPG,28,26,false,0.18000000000000005,hh,keypress(i),0,false,770720.1000000238,770720,765024.923,765026.6000000238,765041.643,770725.009,5,600,22,
break,html.Screen,10_21_1,2023-11-20T19:41:59.461Z,,,,,,,,,,,NaN,,,,,,,,low,high,,,,,,,false,,,,,false,770720.6000000238,770720.5,,770720.3000000119,,770725.009,5,600,,
break_continue,html.Screen,10_21_2,2023-11-20T19:41:59.461Z,,,,,,,,,,,NaN,,,,,,,,low,high,,,,,,,false,,,,,false,770720.8999999762,770720.8000000119,,770720.6999999881,,770725.009,5,600,,
sequence,flow.Sequence,10_21,2023-11-20T19:41:59.461Z,,,,,,,,,,,5679.157000011881,completion,,,,,,,low,high,,,,,,,false,,,,,false,770721,770720.8000000119,765024.923,765026.6000000238,765041.643,770725.009,5,600,,
trial,html.Screen,10_22_0,2023-11-20T19:42:04.517Z,,,,1,-0.0399381815506136,-0.0177751789152893,,0.04,false,hl,5051.491000000038,response,1.00615481805876,1.0744536230367536,-0.8743787126915533,-0.8428903771195875,1.1235223431962325,-0.8726598061378527,high,low,,ISIC_3981425.JPG,9,ISIC_0069970.JPG,28,27,false,0.18000000000000005,lh,keypress(e),0,false,775776.6999999881,775776.5,770708.299,770721.1000000238,770725.009,775791.746,5,600,23,
break,html.Screen,10_22_1,2023-11-20T19:42:04.518Z,,,,,,,,,,,NaN,,,,,,,,high,low,,,,,,,false,,,,,false,775777.5,775777.3999999762,,775777,,775791.746,5,600,,
break_continue,html.Screen,10_22_2,2023-11-20T19:42:04.518Z,,,,,,,,,,,NaN,,,,,,,,high,low,,,,,,,false,,,,,false,775778.1000000238,775777.8999999762,,775777.6000000238,,775791.746,5,600,,
sequence,flow.Sequence,10_22,2023-11-20T19:42:04.518Z,,,,,,,,,,,5052.890999976196,completion,,,,,,,high,low,,,,,,,false,,,,,false,775778.1999999881,775777.8999999762,770708.299,770721.1000000238,770725.009,775791.746,5,600,,
trial,html.Screen,10_23_0,2023-11-20T19:42:11.837Z,,,,1,-0.012020985739544,0.0126097407389903,,0.04,false,hh,7304.453999988036,response,1.1802887330422154,1.0744536230367536,-0.8743787126915533,1.0224375154810723,1.1235223431962325,-0.8726598061378527,high,high,,ISIC_0069379.JPG,8,ISIC_9225640.JPG,28,25,false,0.12,hl,keypress(j),0,false,783096.3000000119,783096.1999999881,775775.207,775778.3999999762,775791.746,783108.348,5,600,24,
break,html.Screen,10_23_1,2023-11-20T19:42:11.837Z,,,,,,,,,,,NaN,,,,,,,,high,high,,,,,,,false,,,,,false,783096.8999999762,783096.8000000119,,783096.5,,783108.348,5,600,,
break_continue,html.Screen,10_23_2,2023-11-20T19:42:11.838Z,,,,,,,,,,,NaN,,,,,,,,high,high,,,,,,,false,,,,,false,783097.1999999881,783097.1999999881,,783097,,783108.348,5,600,,
sequence,flow.Sequence,10_23,2023-11-20T19:42:11.838Z,,,,,,,,,,,7305.453999988036,completion,,,,,,,high,high,,,,,,,false,,,,,false,783097.3999999762,783097.1999999881,775775.207,775778.3999999762,775791.746,783108.348,5,600,,
trial,html.Screen,10_24_0,2023-11-20T19:42:20.316Z,,,,1,-0.0060934073440827,-0.0279108145883031,,0.04,true,hh,8467.452000011923,response,1.1727618800748076,1.0744536230367536,-0.8743787126915533,1.0636787813411093,1.1235223431962325,-0.8726598061378527,high,high,,ISIC_0032604.JPG,8,ISIC_9690371.JPG,28,25,false,0.12,hh,keypress(i),0,false,791576,791575.8000000119,783091.781,783097.5,783108.348,791591.688,5,600,25,
break,html.Screen,10_24_1,2023-11-20T19:42:20.317Z,,,,,,,,,,,NaN,,,,,,,,high,high,,,,,,,false,,,,,false,791576.5,791576.3000000119,,791576.1000000238,,791591.688,5,600,,
break_continue,html.Screen,10_24_2,2023-11-20T19:42:20.317Z,,,,,,,,,,,NaN,,,,,,,,high,high,,,,,,,false,,,,,false,791576.6000000238,791576.6000000238,,791576.5,,791591.688,5,600,,
sequence,flow.Sequence,10_24,2023-11-20T19:42:20.317Z,,,,,,,,,,,8468.252000023844,completion,,,,,,,high,high,,,,,,,false,,,,,false,791576.8000000119,791576.6000000238,783091.781,783097.5,783108.348,791591.688,5,600,,
trial,html.Screen,10_25_0,2023-11-20T19:42:29.932Z,,,,1,-0.0350697500805515,-0.0166617848231997,,0.04,false,hl,9600.011999988114,response,0.9394943755829636,1.0744536230367536,-0.8743787126915533,-0.7928025019302636,1.1235223431962325,-0.8726598061378527,high,low,,ISIC_0024423.JPG,10,ISIC_0071550.JPG,28,27,false,0.18000000000000005,hh,keypress(i),0,false,801191.8000000119,801191.6999999881,791574.785,791576.8000000119,791591.688,801208.593,5,600,26,
break,html.Screen,10_25_1,2023-11-20T19:42:29.932Z,,,,,,,,,,,NaN,,,,,,,,high,low,,,,,,,false,,,,,false,801192.1000000238,801192.1000000238,,801191.8999999762,,801208.593,5,600,,
break_continue,html.Screen,10_25_2,2023-11-20T19:42:29.933Z,,,,,,,,,,,NaN,,,,,,,,high,low,,,,,,,false,,,,,false,801192.3000000119,801192.3000000119,,801192.1999999881,,801208.593,5,600,,
sequence,flow.Sequence,10_25,2023-11-20T19:42:29.933Z,,,,,,,,,,,9600.612000011955,completion,,,,,,,high,low,,,,,,,false,,,,,false,801192.5,801192.3000000119,791574.785,791576.8000000119,791591.688,801208.593,5,600,,
trial,html.Screen,10_26_0,2023-11-20T19:42:41.460Z,,,,1,0.0361875505619981,-0.0291457404567876,,0.04,false,hh,11511.106999988086,response,1.1510001454240106,1.0744536230367536,-0.8743787126915533,1.132540312667795,1.1235223431962325,-0.8726598061378527,high,high,,ISIC_0027480.JPG,9,ISIC_0009959.JPG,28,25,false,0.12,lh,keypress(e),0,false,812719.8000000119,812719.6999999881,801191.368,801192.5,801208.593,812725.058,5,600,27,
break,html.Screen,10_26_1,2023-11-20T19:42:41.460Z,,,,,,,,,,,NaN,,,,,,,,high,high,,,,,,,false,,,,,false,812720.1000000238,812720.1000000238,,812719.8999999762,,812725.058,5,600,,
break_continue,html.Screen,10_26_2,2023-11-20T19:42:41.461Z,,,,,,,,,,,NaN,,,,,,,,high,high,,,,,,,false,,,,,false,812720.3999999762,812720.3000000119,,812720.1999999881,,812725.058,5,600,,
sequence,flow.Sequence,10_26,2023-11-20T19:42:41.461Z,,,,,,,,,,,11511.707000011927,completion,,,,,,,high,high,,,,,,,false,,,,,false,812720.3999999762,812720.3000000119,801191.368,801192.5,801208.593,812725.058,5,600,,
trial,html.Screen,10_27_0,2023-11-20T19:42:46.029Z,,,,1,0.0127320821962457,-0.0315308940184827,,0.04,false,lh,4563.74200001196,response,-0.7761549898346118,1.0744536230367536,-0.8743787126915533,1.0995228188562456,1.1235223431962325,-0.8726598061378527,low,high,,ISIC_8156101.JPG,8,ISIC_1835041.JPG,28,26,false,0.18000000000000005,ll,keypress(f),0,false,817289.1000000238,817288.8000000119,812708.356,812720.5,812725.058,817291.785,5,600,28,
break,html.Screen,10_27_1,2023-11-20T19:42:46.030Z,,,,,,,,,,,NaN,,,,,,,,low,high,,,,,,,false,,,,,false,817289.8999999762,817289.6999999881,,817289.3000000119,,817291.785,5,600,,
break_continue,html.Screen,10_27_2,2023-11-20T19:42:46.031Z,,,,,,,,,,,NaN,,,,,,,,low,high,,,,,,,false,,,,,false,817290.5,817290.3000000119,,817290.1000000238,,817291.785,5,600,,
sequence,flow.Sequence,10_27,2023-11-20T19:42:46.031Z,,,,,,,,,,,4565.24200001196,completion,,,,,,,low,high,,,,,,,false,,,,,false,817290.6999999881,817290.3000000119,812708.356,812720.5,812725.058,817291.785,5,600,,
trial,html.Screen,10_28_0,2023-11-20T19:42:50.069Z,,,,1,0.0361875505619981,-0.0291457404567876,,0.04,true,hh,4036.4149999880465,response,0.9949679201447648,1.0744536230367536,-0.8743787126915533,1.0468574143792184,1.1235223431962325,-0.8726598061378527,high,high,,ISIC_0027480.JPG,9,ISIC_6640753.JPG,28,25,false,0.12,hh,keypress(i),0,false,821328.3999999762,821328.1999999881,817274.914,817290.8999999762,817291.785,821341.719,5,600,29,
break,html.Screen,10_28_1,2023-11-20T19:42:50.069Z,,,,,,,,,,,NaN,,,,,,,,high,high,,,,,,,false,,,,,false,821329.1999999881,821329,,821328.6000000238,,821341.719,5,600,,
break_continue,html.Screen,10_28_2,2023-11-20T19:42:50.070Z,,,,,,,,,,,NaN,,,,,,,,high,high,,,,,,,false,,,,,false,821329.6000000238,821329.5,,821329.3000000119,,821341.719,5,600,,
sequence,flow.Sequence,10_28,2023-11-20T19:42:50.070Z,,,,,,,,,,,4037.7149999999674,completion,,,,,,,high,high,,,,,,,false,,,,,false,821329.8000000119,821329.5,817274.914,817290.8000000119,817291.785,821341.719,5,600,,
trial,html.Screen,10_29_0,2023-11-20T19:42:56.156Z,,,,1,-0.0077673378094614,-0.0021810768579373,,0.04,false,lh,6073.780999999959,response,-0.7753299102004093,1.0744536230367536,-0.8743787126915533,1.053851019509641,1.1235223431962325,-0.8726598061378527,low,high,,ISIC_0067621.JPG,9,ISIC_9511832.JPG,28,26,false,0.18000000000000005,ll,keypress(f),0,false,827415.5,827415.5,821325.038,821329.8999999762,821341.719,827425.036,5,600,30,
break,html.Screen,10_29_1,2023-11-20T19:42:56.156Z,,,,,,,,,,,NaN,,,,,,,,low,high,,,,,,,false,,,,,false,827415.8000000119,827415.8000000119,,827415.6000000238,,827425.036,5,600,,
break_continue,html.Screen,10_29_2,2023-11-20T19:42:56.156Z,,,,,,,,,,,NaN,,,,,,,,low,high,,,,,,,false,,,,,false,827416.1000000238,827416,,827415.8999999762,,827425.036,5,600,,
sequence,flow.Sequence,10_29,2023-11-20T19:42:56.156Z,,,,,,,,,,,6074.280999999959,completion,,,,,,,low,high,,,,,,,false,,,,,false,827416.1999999881,827416,821325.038,821329.8999999762,821341.719,827425.036,5,600,,
trial,html.Screen,10_30_0,2023-11-20T19:43:04.189Z,,,,1,-0.0071892445601978,0.0246015408628738,,0.04,true,hh,8023.564000023878,response,1.0885984639975343,1.0744536230367536,-0.8743787126915533,1.2042618719491294,1.1235223431962325,-0.8726598061378527,high,high,,ISIC_0014133.JPG,9,ISIC_0012740.JPG,28,25,false,0.12,hh,keypress(i),0,false,835448.8999999762,835448.6000000238,827408.531,827416.1999999881,827425.036,835458.471,5,600,31,
break,html.Screen,10_30_1,2023-11-20T19:43:04.190Z,,,,,,,,,,,NaN,,,,,,,,high,high,,,,,,,false,,,,,false,835449.6999999881,835449.5,,835449.1000000238,,835458.471,5,600,,
break_continue,html.Screen,10_30_2,2023-11-20T19:43:04.191Z,,,,,,,,,,,NaN,,,,,,,,high,high,,,,,,,false,,,,,false,835450.1999999881,835450.1000000238,,835449.8999999762,,835458.471,5,600,,
sequence,flow.Sequence,10_30,2023-11-20T19:43:04.191Z,,,,,,,,,,,8025.064000023878,completion,,,,,,,high,high,,,,,,,false,,,,,false,835450.5,835450.1000000238,827408.531,827416.1999999881,827425.036,835458.471,5,600,,
trial,html.Screen,10_31_0,2023-11-20T19:43:07.581Z,,,,1,-0.0166849894750452,0.0371614812368835,,0.04,false,hl,3382.1290000238223,response,0.9039158082670506,1.0744536230367536,-0.8743787126915533,-1.0517562064343149,1.1235223431962325,-0.8726598061378527,high,low,,ISIC_6231450.JPG,9,ISIC_0015411.JPG,28,27,false,0.18000000000000005,hh,keypress(i),0,false,838840.8999999762,838840.6000000238,835441.665,835450.6999999881,835458.471,838858.449,5,600,32,
break,html.Screen,10_31_1,2023-11-20T19:43:07.582Z,,,,,,,,,,,NaN,,,,,,,,high,low,,,,,,,false,,,,,false,838841.6999999881,838841.5,,838841.1000000238,,838858.449,5,600,,
break_continue,html.Screen,10_31_2,2023-11-20T19:43:07.583Z,,,,,,,,,,,NaN,,,,,,,,high,low,,,,,,,false,,,,,false,838842.3000000119,838842.1000000238,,838841.8000000119,,838858.449,5,600,,
sequence,flow.Sequence,10_31,2023-11-20T19:43:07.583Z,,,,,,,,,,,3383.6290000238223,completion,,,,,,,high,low,,,,,,,false,,,,,false,838842.5,838842.1000000238,835441.665,835450.6000000238,835458.471,838858.449,5,600,,
trial,html.Screen,10_32_0,2023-11-20T19:43:15.020Z,,,,1,-0.0166849894750452,0.0371614812368835,,0.04,true,hl,7421.250999988057,response,1.1890109863264902,1.0744536230367536,-0.8743787126915533,-0.8867825318561365,1.1235223431962325,-0.8726598061378527,high,low,,ISIC_6231450.JPG,9,ISIC_0072576.JPG,28,27,false,0.18000000000000005,hl,keypress(j),0,false,846279.8000000119,846279.6999999881,838825.176,838842.6000000238,838858.449,846291.971,5,600,33,
break,html.Screen,10_32_1,2023-11-20T19:43:15.021Z,,,,,,,,,,,NaN,,,,,,,,high,low,,,,,,,false,,,,,false,846280.1999999881,846280.1000000238,,846279.8999999762,,846291.971,5,600,,
break_continue,html.Screen,10_32_2,2023-11-20T19:43:15.021Z,,,,,,,,,,,NaN,,,,,,,,high,low,,,,,,,false,,,,,false,846280.3000000119,846280.3000000119,,846280.1999999881,,846291.971,5,600,,
sequence,flow.Sequence,10_32,2023-11-20T19:43:15.021Z,,,,,,,,,,,7421.851000011899,completion,,,,,,,high,low,,,,,,,false,,,,,false,846280.3999999762,846280.3000000119,838825.176,838842.5,838858.449,846291.971,5,600,,
trial,html.Screen,10_33_0,2023-11-20T19:43:18.901Z,,,,1,-0.0166849894750452,0.0371614812368835,,0.04,true,hh,3868.2289999880595,response,1.0581281450494728,1.0744536230367536,-0.8743787126915533,1.133169116569424,1.1235223431962325,-0.8726598061378527,high,high,,ISIC_6231450.JPG,10,ISIC_5490352.JPG,28,25,false,0.12,hh,keypress(i),0,false,850160.1999999881,850160.1999999881,846275.179,846280.3999999762,846291.971,850175.185,5,600,34,
break,html.Screen,10_33_1,2023-11-20T19:43:18.901Z,,,,,,,,,,,NaN,,,,,,,,high,high,,,,,,,false,,,,,false,850160.8000000119,850160.6000000238,,850160.5,,850175.185,5,600,,
break_continue,html.Screen,10_33_2,2023-11-20T19:43:18.902Z,,,,,,,,,,,NaN,,,,,,,,high,high,,,,,,,false,,,,,false,850161,850160.8999999762,,850160.8000000119,,850175.185,5,600,,
sequence,flow.Sequence,10_33,2023-11-20T19:43:18.902Z,,,,,,,,,,,3868.9289999761386,completion,,,,,,,high,high,,,,,,,false,,,,,false,850161.1000000238,850160.8999999762,846275.179,846280.3999999762,846291.971,850175.185,5,600,,
trial,html.Screen,10_34_0,2023-11-20T19:43:24.109Z,,,,1,-0.0057914759495055,0.018500200317654,,0.04,false,hh,5193.314999999944,response,1.1642596483638106,1.0744536230367536,-0.8743787126915533,1.091507924157762,1.1235223431962325,-0.8726598061378527,high,high,,ISIC_0058723.JPG,8,ISIC_0765584.JPG,28,25,false,0.12,ll,keypress(f),0,false,855368.6999999881,855368.5,850158.407,850161.1999999881,850175.185,855375.089,5,600,35,
break,html.Screen,10_34_1,2023-11-20T19:43:24.110Z,,,,,,,,,,,NaN,,,,,,,,high,high,,,,,,,false,,,,,false,855369.5,855369.3000000119,,855368.8999999762,,855375.089,5,600,,
break_continue,html.Screen,10_34_2,2023-11-20T19:43:24.111Z,,,,,,,,,,,NaN,,,,,,,,high,high,,,,,,,false,,,,,false,855370.1000000238,855369.8999999762,,855369.8000000119,,855375.089,5,600,,
sequence,flow.Sequence,10_34,2023-11-20T19:43:24.111Z,,,,,,,,,,,5194.714999976102,completion,,,,,,,high,high,,,,,,,false,,,,,false,855370.1999999881,855369.8999999762,850158.407,850161.1999999881,850175.185,855375.089,5,600,,
trial,html.Screen,10_35_0,2023-11-20T19:43:28.437Z,,,,1,-0.0166849894750452,0.0371614812368835,,0.04,true,hh,4321.5110000238055,response,1.0885984639975343,1.0744536230367536,-0.8743787126915533,1.2042618719491294,1.1235223431962325,-0.8726598061378527,high,high,,ISIC_6231450.JPG,9,ISIC_0012740.JPG,28,25,false,0.12,hh,keypress(i),0,false,859696.8000000119,859696.6000000238,855358.396,855370.5,855375.089,859708.438,5,600,36,
break,html.Screen,10_35_1,2023-11-20T19:43:28.438Z,,,,,,,,,,,NaN,,,,,,,,high,high,,,,,,,false,,,,,false,859697.6999999881,859697.5,,859697.1000000238,,859708.438,5,600,,
break_continue,html.Screen,10_35_2,2023-11-20T19:43:28.439Z,,,,,,,,,,,NaN,,,,,,,,high,high,,,,,,,false,,,,,false,859698.1999999881,859698.1000000238,,859697.8999999762,,859708.438,5,600,,
sequence,flow.Sequence,10_35,2023-11-20T19:43:28.439Z,,,,,,,,,,,4323.0110000238055,completion,,,,,,,high,high,,,,,,,false,,,,,false,859698.5,859698.1000000238,855358.396,855370.3999999762,855375.089,859708.438,5,600,,
trial,html.Screen,10_36_0,2023-11-20T19:43:33.028Z,,,,1,-0.0023664502831079,-0.0252784582169994,,0.04,false,lh,4579.362000011955,response,-0.7761549898346118,1.0744536230367536,-0.8743787126915533,1.0995228188562456,1.1235223431962325,-0.8726598061378527,low,high,,ISIC_4156010.JPG,9,ISIC_1835041.JPG,28,26,false,0.18000000000000005,ll,keypress(f),0,false,864287.8999999762,864287.8000000119,859691.769,859698.6000000238,859708.438,864291.799,5,600,37,
break,html.Screen,10_36_1,2023-11-20T19:43:33.029Z,,,,,,,,,,,NaN,,,,,,,,low,high,,,,,,,false,,,,,false,864288.1999999881,864288.1000000238,,864287.8999999762,,864291.799,5,600,,
break_continue,html.Screen,10_36_2,2023-11-20T19:43:33.029Z,,,,,,,,,,,NaN,,,,,,,,low,high,,,,,,,false,,,,,false,864288.3999999762,864288.3999999762,,864288.3000000119,,864291.799,5,600,,
sequence,flow.Sequence,10_36,2023-11-20T19:43:33.029Z,,,,,,,,,,,4579.961999976193,completion,,,,,,,low,high,,,,,,,false,,,,,false,864288.5,864288.3999999762,859691.769,859698.6000000238,859708.438,864291.799,5,600,,
trial,html.Screen,10_37_0,2023-11-20T19:43:38.349Z,,,,1,0.0361875505619981,-0.0291457404567876,,0.04,false,hl,5316.100999976159,response,1.0140243022958364,1.0744536230367536,-0.8743787126915533,-0.7084305941404812,1.1235223431962325,-0.8726598061378527,high,low,,ISIC_0027480.JPG,9,ISIC_0014946.JPG,28,27,false,0.18000000000000005,hh,keypress(i),0,false,869608.1000000238,869607.8999999762,864275.152,864288.6000000238,864291.799,869625.202,5,600,38,
break,html.Screen,10_37_1,2023-11-20T19:43:38.349Z,,,,,,,,,,,NaN,,,,,,,,high,low,,,,,,,false,,,,,false,869608.5,869608.3999999762,,869608.1999999881,,869625.202,5,600,,
break_continue,html.Screen,10_37_2,2023-11-20T19:43:38.349Z,,,,,,,,,,,NaN,,,,,,,,high,low,,,,,,,false,,,,,false,869608.6999999881,869608.6000000238,,869608.6000000238,,869625.202,5,600,,
