sender,sender_type,sender_id,timestamp,meta,blockNo,c1,c2,condition,control_tolerance,correct,correctResponse,duration,ended_on,f1,f1_high,f1_low,f2,f2_high,f2_low,feature_level1,feature_level2,img_left,img_reveal,img_right,n_control_images,n_target_images,practice,range_tolerance,response,response_action,selection_duration,staircase,time_commit,time_end,time_render,time_run,time_show,time_switch,total_blocks,total_trials,trialNo,url,age,gender
informed_consent,html.Screen,0,2024-07-08T23:44:37.991Z,"{""labjs_version"":""20.2.4"",""labjs_build"":{""flavor"":""development"",""commit"":""f5b4a49f956347addd546a832a3327688c2c0fef""},""location"":""https://labjs.felixhenninger.com/api/labjs_preview/index.html"",""userAgent"":""Mozilla/5.0 (Windows NT 10.0; Win64; x64) AppleWebKit/537.36 (KHTML, like Gecko) Chrome/126.0.0.0 Safari/537.36"",""platform"":""Win32"",""language"":""en-AU"",""locale"":""en-US"",""timeZone"":""America/Chicago"",""timezoneOffset"":300,""screen_width"":1536,""screen_height"":864,""scroll_width"":792,""scroll_height"":696,""window_innerWidth"":792,""window_innerHeight"":744,""devicePixelRatio"":1.25}",,,,,,,,1335.6,response,,,,,,,,,,,,,,,,continue,keypress(Space),,,2621.5,2620.3,1268.4,1262.8,1284.7,2623.4,,,,{},31,
Demography form,html.Form,1,2024-07-08T23:44:42.352Z,,,,,,,,,4358.4,response,,,,,,,,,,,,,,,,continue,keypress(Space),,,6982.4,6981.8,2618.9,2621.7,2623.4,6983.7,,,,,,male
Welcome,html.Screen,2,2024-07-08T23:45:10.386Z,,,,,"[""asym"",""bor""]",,,,28031.4,response,,,,,,,,,,,,,,,,continue,keypress(Space),,,35015.7,35015.1,6976.7,6982.6,6983.7,35033.8,,,,,,
demo_instructions,html.Screen,3,2024-07-08T23:45:40.868Z,,,,,,,,,30463.2,response,,,,,,,,,,,,,,,,continue,keypress(Space),,,65497.6,65497,35018.278,35015.8,35033.8,65515.914,,,,,,
trial,html.Screen,4_0_0,2024-07-08T23:45:43.468Z,,0,-1.249379266,-1.133600856,,,TRUE,hh,2581.586,response,1.250314916,1.2,-1.2,1.079659123,1.2,-1.2,high,high,ISIC_0061475.JPG,,ISIC_2466892.JPG,,26,TRUE,0.15,hh,keypress(i),100,FALSE,68097.6,68097.5,65515.914,65497.7,65515.914,68113.5,1,16,1,,,
sequence,flow.Sequence,4_0,2024-07-08T23:45:43.468Z,,,,,,,,,2581.586,completion,,,,,,,high,high,,,,,,TRUE,,,,,FALSE,68097.9,68097.5,65515.914,65497.7,65515.914,68113.5,1,16,,,,
trial,html.Screen,4_1_0,2024-07-08T23:45:45.828Z,,0,-1.224955294,-1.172301512,,,TRUE,hh,2344.6,response,1.27245846,1.2,-1.2,1.14110161,1.2,-1.2,high,high,ISIC_0055251.JPG,,ISIC_0059625.JPG,,26,TRUE,0.15,hh,keypress(i),100,FALSE,70458.3,70458.1,68097.198,68098,68113.5,70478.3,1,16,2,,,
sequence,flow.Sequence,4_1,2024-07-08T23:45:45.828Z,,,,,,,,,2344.6,completion,,,,,,,high,high,,,,,,TRUE,,,,,FALSE,70458.6,70458.1,68097.198,68097.9,68113.5,70478.3,1,16,,,,
trial,html.Screen,4_2_0,2024-07-08T23:45:48.175Z,,0,-1.224955294,-1.172301512,,,TRUE,hh,2327,response,1.121032506,1.2,-1.2,1.149864832,1.2,-1.2,high,high,ISIC_0055251.JPG,,ISIC_0032162.JPG,,26,TRUE,0.15,hh,keypress(i),100,FALSE,72805.6,72805.3,70461.962,70458.7,70478.3,72826.5,1,16,3,,,
sequence,flow.Sequence,4_2,2024-07-08T23:45:48.176Z,,,,,,,,,2327,completion,,,,,,,high,high,,,,,,TRUE,,,,,FALSE,72805.7,72805.3,70461.962,70458.6,70478.3,72826.5,1,16,,,,
trial,html.Screen,4_3_0,2024-07-08T23:45:51.798Z,,0,-1.11647295,-1.297893575,,,TRUE,hh,3601,response,1.138843016,1.2,-1.2,1.270055235,1.2,-1.2,high,high,ISIC_0034166.JPG,,ISIC_9939653.JPG,,26,TRUE,0.15,hh,keypress(i),100,FALSE,76427.7,76427.5,72810.098,72805.8,72826.5,76456.9,1,16,4,,,
sequence,flow.Sequence,4_3,2024-07-08T23:45:51.798Z,,,,,,,,,3601,completion,,,,,,,high,high,,,,,,TRUE,,,,,FALSE,76427.9,76427.5,72810.098,72805.8,72826.5,76456.9,1,16,,,,
trial,html.Screen,4_4_0,2024-07-08T23:46:00.909Z,,0,1.201239509,1.061898577,,,TRUE,ll,9082.2,response,-1.291552336,1.2,-1.2,-1.126497779,1.2,-1.2,low,low,ISIC_9876004.JPG,,ISIC_0502582.JPG,,30,TRUE,0.1,ll,keypress(f),100,FALSE,85539.4,85539.1,76440.1,76428.1,76456.9,85565.9,1,16,5,,,
sequence,flow.Sequence,4_4,2024-07-08T23:46:00.910Z,,,,,,,,,9082.2,completion,,,,,,,low,low,,,,,,TRUE,,,,,FALSE,85539.7,85539.1,76440.1,76428,76456.9,85565.9,1,16,,,,
trial,html.Screen,4_5_0,2024-07-08T23:46:03.833Z,,0,1.202408356,1.149077673,,,TRUE,ll,2896.7,response,-1.069816262,1.2,-1.2,-1.219634567,1.2,-1.2,low,low,ISIC_3566243.JPG,,ISIC_0030552.JPG,,53,TRUE,0.15,ll,keypress(f),100,FALSE,88462.8,88462.6,85549.4,85539.8,85565.9,88480.1,1,16,6,,,
sequence,flow.Sequence,4_5,2024-07-08T23:46:03.833Z,,,,,,,,,2896.7,completion,,,,,,,low,low,,,,,,TRUE,,,,,FALSE,88463.1,88462.6,85549.4,85539.8,85565.9,88480.1,1,16,,,,
trial,html.Screen,4_6_0,2024-07-08T23:46:07.090Z,,0,1.201100954,1.175149236,,,TRUE,ll,3240.1,response,-1.17215054,1.2,-1.2,-1.332467679,1.2,-1.2,low,low,ISIC_0647224.JPG,,ISIC_0000167.JPG,,53,TRUE,0.15,ll,keypress(f),100,FALSE,91720.3,91720.2,88463.732,88463.4,88480.1,91744.2,1,16,7,,,
sequence,flow.Sequence,4_6,2024-07-08T23:46:07.090Z,,,,,,,,,3240.1,completion,,,,,,,low,low,,,,,,TRUE,,,,,FALSE,91720.5,91720.2,88463.732,88463.3,88480.1,91744.2,1,16,,,,
trial,html.Screen,4_7_0,2024-07-08T23:46:08.987Z,,0,1.270644758,1.090330801,,,TRUE,ll,1872.9,response,-1.25525682,1.2,-1.2,-1.120642643,1.2,-1.2,low,low,ISIC_9425937.JPG,,ISIC_0024652.JPG,,53,TRUE,0.15,ll,keypress(f),100,FALSE,93617.2,93617.1,91727.4,91720.6,91744.2,93642.7,1,16,8,,,
sequence,flow.Sequence,4_7,2024-07-08T23:46:08.987Z,,,,,,,,,1872.9,completion,,,,,,,low,low,,,,,,TRUE,,,,,FALSE,93617.4,93617.1,91727.4,91720.5,91744.2,93642.7,1,16,,,,
trial,html.Screen,4_8_0,2024-07-08T23:46:15.492Z,,0,0.853469137,-1.039755805,,,TRUE,lh,6479.4,response,-0.780994986,1.2,-1.2,0.849386112,1.2,-1.2,low,high,ISIC_0056788.JPG,,ISIC_7450481.JPG,,27,TRUE,0.42,lh,keypress(e),100,FALSE,100122.3,100122.1,93626.066,93617.4,93642.7,100153.8,1,16,9,,,
sequence,flow.Sequence,4_8,2024-07-08T23:46:15.493Z,,,,,,,,,6479.4,completion,,,,,,,low,high,,,,,,TRUE,,,,,FALSE,100122.5,100122.1,93626.066,93617.4,93642.7,100153.8,1,16,,,,
trial,html.Screen,4_9_0,2024-07-08T23:46:20.585Z,,0,0.991282841,-0.93979211,,,TRUE,lh,5061.1,response,-0.894761108,1.2,-1.2,0.896096451,1.2,-1.2,low,high,ISIC_0000463.JPG,,ISIC_6441128.JPG,,27,TRUE,0.42,lh,keypress(e),100,FALSE,105215.1,105214.9,100137.398,100122.6,100153.8,105233,1,16,10,,,
sequence,flow.Sequence,4_9,2024-07-08T23:46:20.585Z,,,,,,,,,5061.1,completion,,,,,,,low,high,,,,,,TRUE,,,,,FALSE,105215.4,105214.9,100137.398,100122.6,100153.8,105233,1,16,,,,
trial,html.Screen,4_10_0,2024-07-08T23:46:30.284Z,,0,1.269550955,-0.964109968,,,TRUE,lh,9681,response,-0.783371001,1.2,-1.2,0.931558809,1.2,-1.2,low,high,ISIC_0025841.JPG,,ISIC_3826102.JPG,,27,TRUE,0.42,lh,keypress(e),100,FALSE,114914.1,114914,105216.4,105215.5,105233,114941.8,1,16,11,,,
sequence,flow.Sequence,4_10,2024-07-08T23:46:30.284Z,,,,,,,,,9681,completion,,,,,,,low,high,,,,,,TRUE,,,,,FALSE,114914.3,114914,105216.4,105215.5,105233,114941.8,1,16,,,,
trial,html.Screen,4_11_0,2024-07-08T23:46:33.775Z,,0,1.002626609,-1.091327591,,,TRUE,lh,3462.8,response,-0.938866085,1.2,-1.2,0.795339487,1.2,-1.2,low,high,ISIC_0033520.JPG,,ISIC_9291926.JPG,,27,TRUE,0.42,lh,keypress(e),100,FALSE,118404.8,118404.6,114925.232,114914.3,114941.8,118422.26,1,16,12,,,
sequence,flow.Sequence,4_11,2024-07-08T23:46:33.775Z,,,,,,,,,3462.8,completion,,,,,,,low,high,,,,,,TRUE,,,,,FALSE,118405.1,118404.6,114925.232,114914.3,114941.8,118422.26,1,16,,,,
trial,html.Screen,4_12_0,2024-07-08T23:46:38.673Z,,0,-0.820096201,0.793605164,,,TRUE,hl,4880.94,response,0.969611853,1.2,-1.2,-0.924414828,1.2,-1.2,high,low,ISIC_0027031.JPG,,ISIC_7927525.JPG,,26,TRUE,0.36,hl,keypress(j),100,FALSE,123303.4,123303.2,118422.26,118405.2,118422.26,123334.8,1,16,13,,,
sequence,flow.Sequence,4_12,2024-07-08T23:46:38.674Z,,,,,,,,,4880.94,completion,,,,,,,high,low,,,,,,TRUE,,,,,FALSE,123304,123303.2,118422.26,118405.2,118422.26,123334.8,1,16,,,,
trial,html.Screen,4_13_0,2024-07-08T23:46:42.665Z,,0,-0.809764442,1.005337148,,,TRUE,hl,3959.7,response,0.84874291,1.2,-1.2,-0.97782578,1.2,-1.2,high,low,ISIC_2379379.JPG,,ISIC_4554863.JPG,,33,TRUE,0.42,hl,keypress(j),100,FALSE,127294.8,127294.5,123318.166,123304.2,123334.8,127314.8,1,16,14,,,
sequence,flow.Sequence,4_13,2024-07-08T23:46:42.665Z,,,,,,,,,3959.7,completion,,,,,,,high,low,,,,,,TRUE,,,,,FALSE,127294.9,127294.5,123318.166,123304.2,123334.8,127314.8,1,16,,,,
trial,html.Screen,4_14_0,2024-07-08T23:46:47.341Z,,0,-0.783371001,0.931558809,,,TRUE,hl,4656.3,response,1.020990672,1.2,-1.2,-1.011651385,1.2,-1.2,high,low,ISIC_3826102.JPG,,ISIC_0011995.JPG,,33,TRUE,0.42,hl,keypress(j),100,FALSE,131971.3,131971.1,127298.23,127295,127314.8,131994.2,1,16,15,,,
sequence,flow.Sequence,4_14,2024-07-08T23:46:47.341Z,,,,,,,,,4656.3,completion,,,,,,,high,low,,,,,,TRUE,,,,,FALSE,131971.4,131971.1,127298.23,127295,127314.8,131994.2,1,16,,,,
trial,html.Screen,4_15_0,2024-07-08T23:46:49.667Z,,0,-0.894761108,0.896096451,,,TRUE,hl,2302.8,response,0.78779395,1.2,-1.2,-0.841503278,1.2,-1.2,high,low,ISIC_6441128.JPG,,ISIC_0067308.JPG,,33,TRUE,0.42,hl,keypress(j),100,FALSE,134297.1,134297,131977.8,131971.5,131994.2,134325.8,1,16,16,,,
sequence,flow.Sequence,4_15,2024-07-08T23:46:49.667Z,,,,,,,,,2302.8,completion,,,,,,,high,low,,,,,,TRUE,,,,,FALSE,134297.3,134297,131977.8,131971.4,131994.2,134325.8,1,16,,,,
demonstration_loop,flow.Loop,4,2024-07-08T23:46:49.667Z,,,,,,,,,68781.086,completion,,,,,,,,,,,,,,TRUE,,,,,FALSE,134297.4,134297,65515.914,65497.6,65515.914,134325.8,1,16,,,,
practice_instructions,html.Screen,5,2024-07-08T23:46:51.382Z,,,,,,,,,1684.9,response,,,,,,,,,,,,,,,,continue,keypress(Space),,,136011.6,136010.7,134309.232,134297.5,134325.8,136030.1,,,,,,
trial,html.Screen,6_0_0,2024-07-08T23:46:58.446Z,,1,0.945471323,-0.924516744,,,TRUE,lh,7039.3,response,-0.938866085,1.2,-1.2,0.795339487,1.2,-1.2,low,high,ISIC_9101055.JPG,,ISIC_9291926.JPG,,27,TRUE,0.42,lh,keypress(e),0,FALSE,143076.1,143069.4,136025.732,136011.8,136030.1,143094.3,1,40,1,,,
sequence,flow.Sequence,6_0,2024-07-08T23:46:58.446Z,,,,,,,,,7039.3,completion,,,,,,,low,high,,,,,,TRUE,,,,,FALSE,143076.2,143069.4,136025.732,136011.7,136030.1,143094.3,1,40,,,,
trial,html.Screen,6_1_0,2024-07-08T23:47:02.865Z,,1,-1.225418757,-1.174555235,,,TRUE,hh,4400.7,response,1.241406481,1.2,-1.2,1.081912822,1.2,-1.2,high,high,ISIC_0027187.JPG,,ISIC_4223155.JPG,,179,TRUE,0.36,hh,keypress(i),0,FALSE,147495.1,147495,143063.186,143076.2,143094.3,147497.1,1,40,2,,,
sequence,flow.Sequence,6_1,2024-07-08T23:47:02.865Z,,,,,,,,,4400.7,completion,,,,,,,high,high,,,,,,TRUE,,,,,FALSE,147495.4,147495,143063.186,143076.2,143094.3,147497.1,1,40,,,,
trial,html.Screen,6_2_0,2024-07-08T23:47:05.382Z,,1,-1.187702657,-1.160436757,,,TRUE,hh,2514.1,response,1.27245846,1.2,-1.2,1.14110161,1.2,-1.2,high,high,ISIC_0064589.JPG,,ISIC_0059625.JPG,,26,TRUE,0.15,hh,keypress(i),0,FALSE,150011.4,150011.2,147486.4,147495.5,147497.1,150029.9,1,40,3,,,
sequence,flow.Sequence,6_2,2024-07-08T23:47:05.382Z,,,,,,,,,2514.1,completion,,,,,,,high,high,,,,,,TRUE,,,,,FALSE,150011.6,150011.2,147486.4,147495.4,147497.1,150029.9,1,40,,,,
trial,html.Screen,6_3_0,2024-07-08T23:47:12.337Z,,1,-0.923557177,1.000808165,,,TRUE,hl,6936.2,response,0.945471323,1.2,-1.2,-0.924516744,1.2,-1.2,high,low,ISIC_8796632.JPG,,ISIC_9101055.JPG,,26,TRUE,0.36,hl,keypress(j),0,FALSE,156966.3,156966.1,150020.306,150011.6,150029.9,156968.2,1,40,4,,,
sequence,flow.Sequence,6_3,2024-07-08T23:47:12.337Z,,,,,,,,,6936.2,completion,,,,,,,high,low,,,,,,TRUE,,,,,FALSE,156966.5,156966.1,150020.306,150011.6,150029.9,156968.2,1,40,,,,
trial,html.Screen,6_4_0,2024-07-08T23:47:20.266Z,,1,0.853469137,-1.039755805,,,TRUE,lh,7927.8,response,-0.894761108,1.2,-1.2,0.896096451,1.2,-1.2,low,high,ISIC_0056788.JPG,,ISIC_6441128.JPG,,27,TRUE,0.42,lh,keypress(e),0,FALSE,164896.1,164896,156963.09,156966.6,156968.2,164914.5,1,40,5,,,
sequence,flow.Sequence,6_4,2024-07-08T23:47:20.267Z,,,,,,,,,7927.8,completion,,,,,,,low,high,,,,,,TRUE,,,,,FALSE,164896.3,164896,156963.09,156966.6,156968.2,164914.5,1,40,,,,
trial,html.Screen,6_5_0,2024-07-08T23:47:27.406Z,,1,-1.021336533,1.08852436,,,TRUE,hl,7121.2,response,1.08653334,1.2,-1.2,-1.054263531,1.2,-1.2,high,low,ISIC_5434229.JPG,,ISIC_0034006.JPG,,26,TRUE,0.36,hl,keypress(j),0,FALSE,172035.9,172035.7,164901.25,164896.3,164914.5,172037.4,1,40,6,,,
sequence,flow.Sequence,6_5,2024-07-08T23:47:27.406Z,,,,,,,,,7121.2,completion,,,,,,,high,low,,,,,,TRUE,,,,,FALSE,172036,172035.7,164901.25,164896.3,164914.5,172037.4,1,40,,,,
trial,html.Screen,6_6_0,2024-07-08T23:47:30.019Z,,1,-1.292305997,-1.222688159,,,TRUE,hh,2610.8,response,1.202408356,1.2,-1.2,1.149077673,1.2,-1.2,high,high,ISIC_0072175.JPG,,ISIC_3566243.JPG,,253,TRUE,0.42,hh,keypress(i),0,FALSE,174648.4,174648.2,172036,172036.1,172037.4,174677.268,1,40,7,,,
sequence,flow.Sequence,6_6,2024-07-08T23:47:30.019Z,,,,,,,,,2610.8,completion,,,,,,,high,high,,,,,,TRUE,,,,,FALSE,174648.5,174648.2,172036,172036,172037.4,174677.268,1,40,,,,
trial,html.Screen,6_7_0,2024-07-08T23:47:37.819Z,,1,1.474716115,-0.847048591,,,TRUE,lh,7771.532,response,-0.865516731,1.2,-1.2,0.929858042,1.2,-1.2,low,high,ISIC_0016092.JPG,,ISIC_4603706.JPG,,27,TRUE,0.42,lh,keypress(e),0,FALSE,182449.1,182448.8,174677.268,174648.6,174677.268,182468.6,1,40,8,,,
sequence,flow.Sequence,6_7,2024-07-08T23:47:37.820Z,,,,,,,,,7771.532,completion,,,,,,,low,high,,,,,,TRUE,,,,,FALSE,182449.4,182448.8,174677.268,174648.5,174677.268,182468.6,1,40,,,,
trial,html.Screen,6_8_0,2024-07-08T23:47:44.264Z,,1,-0.948927472,1.066043716,,,TRUE,hl,6424.9,response,1.011737553,1.2,-1.2,-0.850053022,1.2,-1.2,high,low,ISIC_5808758.JPG,,ISIC_2998367.JPG,,26,TRUE,0.36,hl,keypress(j),0,FALSE,188893.7,188893.5,182452.296,182449.5,182468.6,188895.7,1,40,9,,,
sequence,flow.Sequence,6_8,2024-07-08T23:47:44.264Z,,,,,,,,,6424.9,completion,,,,,,,high,low,,,,,,TRUE,,,,,FALSE,188894.1,188893.5,182452.296,182449.5,182468.6,188895.7,1,40,,,,
trial,html.Screen,6_9_0,2024-07-08T23:47:50.114Z,,1,1.121032506,1.149864832,,,TRUE,ll,5848.4,response,-1.032381876,1.2,-1.2,-0.812023959,1.2,-1.2,low,low,ISIC_0032162.JPG,,ISIC_0012055.JPG,,339,TRUE,0.42,ll,keypress(f),0,FALSE,194744.2,194744.1,188888.3,188894.1,188895.7,194745.7,1,40,10,,,
sequence,flow.Sequence,6_9,2024-07-08T23:47:50.114Z,,,,,,,,,5848.4,completion,,,,,,,low,low,,,,,,TRUE,,,,,FALSE,194744.2,194744.1,188888.3,188894.1,188895.7,194745.7,1,40,,,,
trial,html.Screen,6_10_0,2024-07-08T23:47:53.167Z,,1,-1.247270138,-1.170470471,,,TRUE,hh,3051.1,response,1.071778528,1.2,-1.2,1.126723945,1.2,-1.2,high,high,ISIC_0065774.JPG,,ISIC_9948815.JPG,,26,TRUE,0.15,hh,keypress(i),0,FALSE,197797,197796.8,194738.2,194744.2,194745.7,197798.8,1,40,11,,,
sequence,flow.Sequence,6_10,2024-07-08T23:47:53.167Z,,,,,,,,,3051.1,completion,,,,,,,high,high,,,,,,TRUE,,,,,FALSE,197797.2,197796.8,194738.2,194744.2,194745.7,197798.8,1,40,,,,
trial,html.Screen,6_11_0,2024-07-08T23:47:55.504Z,,1,-1.20713418,-1.235960269,,,TRUE,hh,2334.7,response,1.113776309,1.2,-1.2,1.15999067,1.2,-1.2,high,high,ISIC_0058174.JPG,,ISIC_5413788.JPG,,26,TRUE,0.15,hh,keypress(i),0,FALSE,200133.7,200133.5,197789.6,197797.3,197798.8,200135.5,1,40,12,,,
sequence,flow.Sequence,6_11,2024-07-08T23:47:55.504Z,,,,,,,,,2334.7,completion,,,,,,,high,high,,,,,,TRUE,,,,,FALSE,200133.8,200133.5,197789.6,197797.2,197798.8,200135.5,1,40,,,,
trial,html.Screen,6_12_0,2024-07-08T23:47:58.955Z,,1,1.087024011,1.332340671,,,TRUE,ll,3449.4,response,-1.20713418,1.2,-1.2,-1.235960269,1.2,-1.2,low,low,ISIC_0000660.JPG,,ISIC_0058174.JPG,,30,TRUE,0.1,ll,keypress(f),0,FALSE,203585,203584.9,200127.6,200134,200135.5,203604.4,1,40,13,,,
sequence,flow.Sequence,6_12,2024-07-08T23:47:58.955Z,,,,,,,,,3449.4,completion,,,,,,,low,low,,,,,,TRUE,,,,,FALSE,203585.1,203584.9,200127.6,200134,200135.5,203604.4,1,40,,,,
trial,html.Screen,6_13_0,2024-07-08T23:48:01.578Z,,1,1.071778528,1.126723945,,,TRUE,ll,2602.8,response,-1.22825614,1.2,-1.2,-1.210457199,1.2,-1.2,low,low,ISIC_9948815.JPG,,ISIC_9141817.JPG,,53,TRUE,0.15,ll,keypress(f),0,FALSE,206207.4,206207.2,203580.7,203585.2,203604.4,206227.068,1,40,14,,,
sequence,flow.Sequence,6_13,2024-07-08T23:48:01.578Z,,,,,,,,,2602.8,completion,,,,,,,low,low,,,,,,TRUE,,,,,FALSE,206207.5,206207.2,203580.7,203585.2,203604.4,206227.068,1,40,,,,
trial,html.Screen,6_14_0,2024-07-08T23:48:08.773Z,,1,-0.948927472,1.066043716,,,TRUE,hl,7175.632,response,0.879102501,1.2,-1.2,-1.093308195,1.2,-1.2,high,low,ISIC_5808758.JPG,,ISIC_0046223.JPG,,26,TRUE,0.36,hl,keypress(j),0,FALSE,213403,213402.7,206227.068,206207.5,206227.068,213422,1,40,15,,,
sequence,flow.Sequence,6_14,2024-07-08T23:48:08.774Z,,,,,,,,,7175.632,completion,,,,,,,high,low,,,,,,TRUE,,,,,FALSE,213403.3,213402.7,206227.068,206207.5,206227.068,213422,1,40,,,,
trial,html.Screen,6_15_0,2024-07-08T23:48:14.327Z,,1,1.236499456,-0.917417365,,,TRUE,lh,5534.2,response,-0.865516731,1.2,-1.2,0.929858042,1.2,-1.2,low,high,ISIC_3481133.JPG,,ISIC_4603706.JPG,,27,TRUE,0.42,lh,keypress(e),0,FALSE,218956.3,218956.2,213404.42,213403.5,213422,218958,1,40,16,,,
sequence,flow.Sequence,6_15,2024-07-08T23:48:14.327Z,,,,,,,,,5534.2,completion,,,,,,,low,high,,,,,,TRUE,,,,,FALSE,218956.5,218956.2,213404.42,213403.4,213422,218958,1,40,,,,
trial,html.Screen,6_16_0,2024-07-08T23:48:17.719Z,,1,-1.11647295,-1.297893575,,,TRUE,hh,3390.9,response,1.096920311,1.2,-1.2,0.875899039,1.2,-1.2,high,high,ISIC_0034166.JPG,,ISIC_2800198.JPG,,179,TRUE,0.36,hh,keypress(i),0,FALSE,222349.2,222348.9,218956.6,218956.5,218958,222384.1,1,40,17,,,
sequence,flow.Sequence,6_16,2024-07-08T23:48:17.720Z,,,,,,,,,3390.9,completion,,,,,,,high,high,,,,,,TRUE,,,,,FALSE,222349.4,222348.9,218956.6,218956.5,218958,222384.1,1,40,,,,
trial,html.Screen,6_17_0,2024-07-08T23:48:24.876Z,,1,1.269550955,-0.964109968,,,TRUE,lh,7121.7,response,-0.894761108,1.2,-1.2,0.896096451,1.2,-1.2,low,high,ISIC_0025841.JPG,,ISIC_6441128.JPG,,27,TRUE,0.42,lh,keypress(e),0,FALSE,229505.9,229505.8,222380.37,222349.4,222384.1,229526.388,1,40,18,,,
sequence,flow.Sequence,6_17,2024-07-08T23:48:24.876Z,,,,,,,,,7121.7,completion,,,,,,,low,high,,,,,,TRUE,,,,,FALSE,229506.1,229505.8,222380.37,222349.4,222384.1,229526.388,1,40,,,,
trial,html.Screen,6_18_0,2024-07-08T23:48:35.110Z,,1,1.207517224,-0.911672497,,,FALSE,lh,10213.012,response,-1.011596533,1.2,-1.2,0.82826336,1.2,-1.2,low,high,ISIC_0024235.JPG,,ISIC_1069587.JPG,,27,TRUE,0.42,ll,keypress(f),0,FALSE,239739.5,239739.4,229526.388,229506.3,229526.388,239758.188,1,40,19,,,
sequence,flow.Sequence,6_18,2024-07-08T23:48:35.110Z,,,,,,,,,10213.012,completion,,,,,,,low,high,,,,,,TRUE,,,,,FALSE,239739.8,239739.4,229526.388,229506.2,229526.388,239758.188,1,40,,,,
trial,html.Screen,6_19_0,2024-07-08T23:48:40.580Z,,1,-0.820096201,0.793605164,,,TRUE,hl,5451.512,response,1.014350968,1.2,-1.2,-1.31639559,1.2,-1.2,high,low,ISIC_0027031.JPG,,ISIC_0062031.JPG,,26,TRUE,0.36,hl,keypress(j),0,FALSE,245209.8,245209.7,239758.188,239739.8,239758.188,245211.3,1,40,20,,,
sequence,flow.Sequence,6_19,2024-07-08T23:48:40.580Z,,,,,,,,,5451.512,completion,,,,,,,high,low,,,,,,TRUE,,,,,FALSE,245209.9,245209.7,239758.188,239739.8,239758.188,245211.3,1,40,,,,
trial,html.Screen,6_20_0,2024-07-08T23:48:45.203Z,,1,-1.25525682,-1.120642643,,,TRUE,hh,4621,response,0.999191034,1.2,-1.2,0.924262906,1.2,-1.2,high,high,ISIC_0024652.JPG,,ISIC_7795549.JPG,,253,TRUE,0.42,hh,keypress(i),0,FALSE,249832.6,249832.3,245198.7,245210,245211.3,249851.9,1,40,21,,,
sequence,flow.Sequence,6_20,2024-07-08T23:48:45.203Z,,,,,,,,,4621,completion,,,,,,,high,high,,,,,,TRUE,,,,,FALSE,249832.7,249832.3,245198.7,245210,245211.3,249851.9,1,40,,,,
trial,html.Screen,6_21_0,2024-07-08T23:48:53.363Z,,1,1.011737553,-0.850053022,,,TRUE,lh,8140.3,response,-0.791102468,1.2,-1.2,0.797597702,1.2,-1.2,low,high,ISIC_2998367.JPG,,ISIC_5813642.JPG,,27,TRUE,0.42,lh,keypress(e),0,FALSE,257992.4,257992.2,249850.588,249832.9,249851.9,257994.5,1,40,22,,,
sequence,flow.Sequence,6_21,2024-07-08T23:48:53.363Z,,,,,,,,,8140.3,completion,,,,,,,low,high,,,,,,TRUE,,,,,FALSE,257992.6,257992.2,249850.588,249832.8,249851.9,257994.5,1,40,,,,
trial,html.Screen,6_22_0,2024-07-08T23:48:58.497Z,,1,1.087024011,1.332340671,,,TRUE,ll,5132,response,-0.910652502,1.2,-1.2,-0.944391889,1.2,-1.2,low,low,ISIC_0000660.JPG,,ISIC_0058676.JPG,,245,TRUE,0.36,ll,keypress(f),0,FALSE,263126.7,263126.5,257994.448,257992.7,257994.5,263145.1,1,40,23,,,
sequence,flow.Sequence,6_22,2024-07-08T23:48:58.497Z,,,,,,,,,5132,completion,,,,,,,low,low,,,,,,TRUE,,,,,FALSE,263126.9,263126.5,257994.448,257992.7,257994.5,263145.1,1,40,,,,
trial,html.Screen,6_23_0,2024-07-08T23:49:00.958Z,,1,1.078919775,1.165469081,,,TRUE,ll,2442.5,response,-1.29026083,1.2,-1.2,-1.144672688,1.2,-1.2,low,low,ISIC_1576437.JPG,,ISIC_0054317.JPG,,53,TRUE,0.15,ll,keypress(f),0,FALSE,265587.7,265587.6,263122.2,263127,263145.1,265606.2,1,40,24,,,
sequence,flow.Sequence,6_23,2024-07-08T23:49:00.958Z,,,,,,,,,2442.5,completion,,,,,,,low,low,,,,,,TRUE,,,,,FALSE,265588,265587.6,263122.2,263127,263145.1,265606.2,1,40,,,,
trial,html.Screen,6_24_0,2024-07-08T23:49:04.825Z,,1,-0.881628886,0.801867301,,,TRUE,hl,3848.7,response,1.014350968,1.2,-1.2,-1.31639559,1.2,-1.2,high,low,ISIC_9196783.JPG,,ISIC_0062031.JPG,,26,TRUE,0.36,hl,keypress(j),0,FALSE,269455.1,269454.9,265604.308,265588,265606.2,269473.8,1,40,25,,,
sequence,flow.Sequence,6_24,2024-07-08T23:49:04.826Z,,,,,,,,,3848.7,completion,,,,,,,high,low,,,,,,TRUE,,,,,FALSE,269455.4,269454.9,265604.308,265588,265606.2,269473.8,1,40,,,,
trial,html.Screen,6_25_0,2024-07-08T23:49:07.670Z,,1,1.159862326,1.203269032,,,TRUE,ll,2825.9,response,-0.841233594,1.2,-1.2,-1.382707958,1.2,-1.2,low,low,ISIC_0002639.JPG,,ISIC_0028655.JPG,,339,TRUE,0.42,ll,keypress(f),0,FALSE,272300,272299.7,269451.8,269455.5,269473.8,272302.6,1,40,26,,,
sequence,flow.Sequence,6_25,2024-07-08T23:49:07.671Z,,,,,,,,,2825.9,completion,,,,,,,low,low,,,,,,TRUE,,,,,FALSE,272300.2,272299.7,269451.8,269455.5,269473.8,272302.6,1,40,,,,
trial,html.Screen,6_26_0,2024-07-08T23:49:10.180Z,,1,1.057008496,1.127812259,,,TRUE,ll,2506.6,response,-1.247270138,1.2,-1.2,-1.170470471,1.2,-1.2,low,low,ISIC_2819798.JPG,,ISIC_0065774.JPG,,53,TRUE,0.15,ll,keypress(f),0,FALSE,274809.4,274809.2,272298.86,272300.3,272302.6,274828.1,1,40,27,,,
sequence,flow.Sequence,6_26,2024-07-08T23:49:10.180Z,,,,,,,,,2506.6,completion,,,,,,,low,low,,,,,,TRUE,,,,,FALSE,274809.7,274809.2,272298.86,272300.3,272302.6,274828.1,1,40,,,,
trial,html.Screen,6_27_0,2024-07-08T23:49:12.134Z,,1,-1.152619213,-1.111787684,,,TRUE,hh,1935.3,response,1.271101862,1.2,-1.2,1.104223404,1.2,-1.2,high,high,ISIC_0061915.JPG,,ISIC_8603734.JPG,,26,TRUE,0.15,hh,keypress(i),0,FALSE,276763.6,276763.4,274810.54,274809.8,274828.1,276782.4,1,40,28,,,
sequence,flow.Sequence,6_27,2024-07-08T23:49:12.134Z,,,,,,,,,1935.3,completion,,,,,,,high,high,,,,,,TRUE,,,,,FALSE,276763.9,276763.4,274810.54,274809.8,274828.1,276782.4,1,40,,,,
trial,html.Screen,6_28_0,2024-07-08T23:49:15.055Z,,1,1.159862326,1.203269032,,,TRUE,ll,2902.1,response,-1.295250364,1.2,-1.2,-1.107234527,1.2,-1.2,low,low,ISIC_0002639.JPG,,ISIC_0034134.JPG,,30,TRUE,0.1,ll,keypress(f),0,FALSE,279684.5,279684.5,276767.262,276764,276782.4,279703.1,1,40,29,,,
sequence,flow.Sequence,6_28,2024-07-08T23:49:15.055Z,,,,,,,,,2902.1,completion,,,,,,,low,low,,,,,,TRUE,,,,,FALSE,279684.7,279684.5,276767.262,276763.9,276782.4,279703.1,1,40,,,,
trial,html.Screen,6_29_0,2024-07-08T23:49:17.178Z,,1,1.096667611,1.107212687,,,TRUE,ll,2104.3,response,-1.12626439,1.2,-1.2,-1.271896565,1.2,-1.2,low,low,ISIC_0071754.JPG,,ISIC_1520897.JPG,,53,TRUE,0.15,ll,keypress(f),0,FALSE,281807.6,281807.4,279677.6,279684.8,279703.1,281826.788,1,40,30,,,
sequence,flow.Sequence,6_29,2024-07-08T23:49:17.178Z,,,,,,,,,2104.3,completion,,,,,,,low,low,,,,,,TRUE,,,,,FALSE,281807.9,281807.4,279677.6,279684.7,279703.1,281826.788,1,40,,,,
trial,html.Screen,6_30_0,2024-07-08T23:49:24.366Z,,1,1.331700944,-0.939519614,,,TRUE,lh,7169.112,response,-0.796241477,1.2,-1.2,0.901744934,1.2,-1.2,low,high,ISIC_1668831.JPG,,ISIC_8588033.JPG,,27,TRUE,0.42,lh,keypress(e),0,FALSE,288996,288995.9,281826.788,281807.9,281826.788,289014.6,1,40,31,,,
sequence,flow.Sequence,6_30,2024-07-08T23:49:24.367Z,,,,,,,,,7169.112,completion,,,,,,,low,high,,,,,,TRUE,,,,,FALSE,288996.2,288995.9,281826.788,281807.9,281826.788,289014.6,1,40,,,,
trial,html.Screen,6_31_0,2024-07-08T23:49:29.331Z,,1,0.84874291,-0.97782578,,,FALSE,lh,4945.4,response,-0.881628886,1.2,-1.2,0.801867301,1.2,-1.2,low,high,ISIC_4554863.JPG,,ISIC_9196783.JPG,,27,TRUE,0.42,ll,keypress(f),0,FALSE,293960.2,293960,289001.52,288996.2,289014.6,293995.9,1,40,32,,,
sequence,flow.Sequence,6_31,2024-07-08T23:49:29.331Z,,,,,,,,,4945.4,completion,,,,,,,low,high,,,,,,TRUE,,,,,FALSE,293960.6,293960,289001.52,288996.2,289014.6,293995.9,1,40,,,,
trial,html.Screen,6_32_0,2024-07-08T23:49:37.801Z,,1,1.020990672,-1.011651385,,,TRUE,lh,8434.1,response,-0.80924237,1.2,-1.2,1.187009349,1.2,-1.2,low,high,ISIC_0011995.JPG,,ISIC_8592235.JPG,,27,TRUE,0.42,lh,keypress(e),0,FALSE,302430.2,302430,293981.102,293960.7,293995.9,302466,1,40,33,,,
sequence,flow.Sequence,6_32,2024-07-08T23:49:37.801Z,,,,,,,,,8434.1,completion,,,,,,,low,high,,,,,,TRUE,,,,,FALSE,302430.7,302430,293981.102,293960.7,293995.9,302466,1,40,,,,
trial,html.Screen,6_33_0,2024-07-08T23:49:45.536Z,,1,-0.948927472,1.066043716,,,TRUE,hl,7699.3,response,0.858338058,1.2,-1.2,-0.954061222,1.2,-1.2,high,low,ISIC_5808758.JPG,,ISIC_8922893.JPG,,26,TRUE,0.36,hl,keypress(j),0,FALSE,310165.6,310165.3,302464.968,302430.7,302466,310167.6,1,40,34,,,
sequence,flow.Sequence,6_33,2024-07-08T23:49:45.536Z,,,,,,,,,7699.3,completion,,,,,,,high,low,,,,,,TRUE,,,,,FALSE,310165.9,310165.3,302464.968,302430.7,302466,310167.6,1,40,,,,
trial,html.Screen,6_34_0,2024-07-08T23:49:48.613Z,,1,1.138843016,1.270055235,,,TRUE,ll,3074.8,response,-0.91479282,1.2,-1.2,-1.186271335,1.2,-1.2,low,low,ISIC_9939653.JPG,,ISIC_0015136.JPG,,339,TRUE,0.42,ll,keypress(f),0,FALSE,313242.5,313242.4,310157.266,310166,310167.6,313261.5,1,40,35,,,
sequence,flow.Sequence,6_34,2024-07-08T23:49:48.613Z,,,,,,,,,3074.8,completion,,,,,,,low,low,,,,,,TRUE,,,,,FALSE,313242.9,313242.4,310157.266,310166,310167.6,313261.5,1,40,,,,
trial,html.Screen,6_35_0,2024-07-08T23:49:51.106Z,,1,-1.103397706,-1.251307157,,,TRUE,hh,2473.7,response,1.164259648,1.2,-1.2,1.109799097,1.2,-1.2,high,high,ISIC_0025472.JPG,,ISIC_0765584.JPG,,26,TRUE,0.15,hh,keypress(i),0,FALSE,315735.4,315735.2,313242.384,313243,313261.5,315770.9,1,40,36,,,
sequence,flow.Sequence,6_35,2024-07-08T23:49:51.106Z,,,,,,,,,2473.7,completion,,,,,,,high,high,,,,,,TRUE,,,,,FALSE,315735.7,315735.2,313242.384,313243,313261.5,315770.9,1,40,,,,
trial,html.Screen,6_36_0,2024-07-08T23:50:01.378Z,,1,-0.865516731,0.929858042,,,TRUE,hl,10236.4,response,1.207517224,1.2,-1.2,-0.911672497,1.2,-1.2,high,low,ISIC_4603706.JPG,,ISIC_0024235.JPG,,26,TRUE,0.36,hl,keypress(j),0,FALSE,326007.5,326007.3,315766.606,315735.8,315770.9,326025.8,1,40,37,,,
sequence,flow.Sequence,6_36,2024-07-08T23:50:01.378Z,,,,,,,,,10236.4,completion,,,,,,,high,low,,,,,,TRUE,,,,,FALSE,326007.6,326007.3,315766.606,315735.7,315770.9,326025.8,1,40,,,,
trial,html.Screen,6_37_0,2024-07-08T23:50:09.664Z,,1,-1.026446399,1.280405483,,,TRUE,hl,8267.9,response,0.969611853,1.2,-1.2,-0.924414828,1.2,-1.2,high,low,ISIC_7889838.JPG,,ISIC_7927525.JPG,,33,TRUE,0.42,hl,keypress(j),0,FALSE,334293.7,334293.7,326023.23,326007.7,326025.8,334295.676,1,40,38,,,
sequence,flow.Sequence,6_37,2024-07-08T23:50:09.664Z,,,,,,,,,8267.9,completion,,,,,,,high,low,,,,,,TRUE,,,,,FALSE,334293.9,334293.7,326023.23,326007.7,326025.8,334295.676,1,40,,,,
trial,html.Screen,6_38_0,2024-07-08T23:50:13.555Z,,1,-1.224955294,-1.172301512,,,TRUE,hh,3889.024,response,1.348451325,1.2,-1.2,0.990080961,1.2,-1.2,high,high,ISIC_0055251.JPG,,ISIC_0033081.JPG,,253,TRUE,0.42,hh,keypress(i),0,FALSE,338184.9,338184.7,334295.676,334294,334295.676,338203.3,1,40,39,,,
sequence,flow.Sequence,6_38,2024-07-08T23:50:13.555Z,,,,,,,,,3889.024,completion,,,,,,,high,high,,,,,,TRUE,,,,,FALSE,338185,338184.7,334295.676,334294,334295.676,338203.3,1,40,,,,
trial,html.Screen,6_39_0,2024-07-08T23:50:15.508Z,,1,-0.780994986,0.849386112,,,FALSE,hl,1934.2,response,1.233143964,1.2,-1.2,-0.96911439,1.2,-1.2,high,low,ISIC_7450481.JPG,,ISIC_7877488.JPG,,26,TRUE,0.36,hh,keypress(i),0,FALSE,340137.7,340137.5,338199.784,338185.1,338203.3,340156.7,1,40,40,,,
sequence,flow.Sequence,6_39,2024-07-08T23:50:15.508Z,,,,,,,,,1934.2,completion,,,,,,,high,low,,,,,,TRUE,,,,,FALSE,340137.8,340137.5,338199.784,338185.1,338203.3,340156.7,1,40,,,,
practice_loop,flow.Loop,6,2024-07-08T23:50:15.508Z,,,,,,,,,204107.4,completion,,,,,,,,,,,,,,TRUE,,,,,FALSE,340138,340137.5,136025.732,136011.7,136030.1,340156.7,1,40,,,,
stair_instructions,html.Screen,7,2024-07-08T23:50:17.513Z,,,,,,,,,1985.3,response,,,,,,,,,,,,,,,,continue,keypress(Space),,,342142.8,342142,340136.4,340138.1,340156.7,342161.6,,,,,,
trial,html.Screen,8_0_0,2024-07-08T23:50:24.115Z,,2,-0.006955534,0.031010092,,0.05,FALSE,hl,6582.9,response,1.474716115,1.2,-1.2,-0.847048591,1.2,-1.2,high,low,ISIC_0011177.JPG,,ISIC_0016092.JPG,33,33,FALSE,0.42,lh,keypress(e),0,TRUE,348744.6,348744.5,342139.954,342143.2,342161.6,348762.9,1,40,1,,,
sequence,flow.Sequence,8_0,2024-07-08T23:50:24.115Z,,,,,,,,,6582.9,completion,,,,,,,high,low,,,,,,FALSE,,,,,TRUE,348744.8,348744.5,342139.954,342143.2,342161.6,348762.9,1,40,,,,
trial,html.Screen,8_1_0,2024-07-08T23:50:29.592Z,,2,-0.038998803,-0.014321227,,0.05,TRUE,ll,5459,response,-1.242586748,1.2,-1.15,-1.12079332,1.15,-1.2,low,low,ISIC_0064669.JPG,,ISIC_0013073.JPG,33,29,FALSE,0.1,ll,keypress(f),0,TRUE,354222.1,354221.9,348739.5,348744.9,348762.9,354224.2,1,40,2,,,
sequence,flow.Sequence,8_1,2024-07-08T23:50:29.593Z,,,,,,,,,5459,completion,,,,,,,low,low,,,,,,FALSE,,,,,TRUE,354222.4,354221.9,348739.5,348744.8,348762.9,354224.2,1,40,,,,
trial,html.Screen,8_2_0,2024-07-08T23:50:34.508Z,,2,-0.008552098,0.046469116,,0.05,TRUE,hl,4913,response,1.020990672,1.15,-1.15,-1.011651385,1.15,-1.15,high,low,ISIC_0758797.JPG,,ISIC_0011995.JPG,33,25,FALSE,0.31,hl,keypress(j),0,TRUE,359137.3,359137.2,354222.1,354222.5,354224.2,359155.7,1,40,3,,,
sequence,flow.Sequence,8_2,2024-07-08T23:50:34.508Z,,,,,,,,,4913,completion,,,,,,,high,low,,,,,,FALSE,,,,,TRUE,359137.4,359137.2,354222.1,354222.5,354224.2,359155.7,1,40,,,,
trial,html.Screen,8_3_0,2024-07-08T23:50:36.984Z,,2,-0.010785499,-0.047801042,,0.05,FALSE,hl,2457.7,response,0.943372063,1.15,-1.15,-1.058207194,1.15,-1.1,high,low,ISIC_0010500.JPG,,ISIC_4890201.JPG,33,27,FALSE,0.3,hh,keypress(i),0,TRUE,361613.6,361613.4,359140.704,359137.4,359155.7,361622.302,1,40,4,,,
sequence,flow.Sequence,8_3,2024-07-08T23:50:36.984Z,,,,,,,,,2457.7,completion,,,,,,,high,low,,,,,,FALSE,,,,,TRUE,361613.8,361613.4,359140.704,359137.4,359155.7,361622.302,1,40,,,,
trial,html.Screen,8_4_0,2024-07-08T23:50:49.659Z,,2,0,0.026454497,,0.05,FALSE,hl,12666.198,response,0.897927679,0.932181367,-1.15,-0.925374811,1.15,-1.15,high,low,ISIC_0056991.JPG,,ISIC_4208361.JPG,33,27,FALSE,0.23,lh,keypress(e),0,TRUE,374288.7,374288.5,361622.302,361613.8,361622.302,374307,1,40,5,,,
sequence,flow.Sequence,8_4,2024-07-08T23:50:49.659Z,,,,,,,,,12666.198,completion,,,,,,,high,low,,,,,,FALSE,,,,,TRUE,374288.8,374288.5,361622.302,361613.8,361622.302,374307,1,40,,,,
trial,html.Screen,8_5_0,2024-07-08T23:50:52.276Z,,2,0.010246062,-0.03096706,,0.05,TRUE,ll,2598.4,response,-1.065149241,0.982181367,-1.15,-1.186249926,1.15,-1.15,low,low,ISIC_0072041.JPG,,ISIC_0065421.JPG,33,27,FALSE,0.1,ll,keypress(f),0,TRUE,376905.5,376905.4,374277.934,374288.9,374307,376914.702,1,40,6,,,
sequence,flow.Sequence,8_5,2024-07-08T23:50:52.276Z,,,,,,,,,2598.4,completion,,,,,,,low,low,,,,,,FALSE,,,,,TRUE,376905.7,376905.4,374277.934,374288.9,374307,376914.702,1,40,,,,
trial,html.Screen,8_6_0,2024-07-08T23:50:54.379Z,,2,-0.021769889,0.041087092,,0.05,FALSE,lh,2094.198,response,-0.923557177,0.982181367,-1.075699583,1.000808165,1.15,-1.15,low,high,ISIC_0072173.JPG,,ISIC_8796632.JPG,33,29,FALSE,0.36,hh,keypress(i),0,TRUE,379009,379008.9,376914.702,376905.8,376914.702,379028.4,1,40,7,,,
sequence,flow.Sequence,8_6,2024-07-08T23:50:54.380Z,,,,,,,,,2094.198,completion,,,,,,,low,high,,,,,,FALSE,,,,,TRUE,379009.1,379008.9,376914.702,376905.7,376914.702,379028.4,1,40,,,,
trial,html.Screen,8_7_0,2024-07-08T23:51:01.774Z,,2,-0.021769889,0.041087092,,0.05,FALSE,lh,7374.9,response,-1.021336533,0.982181367,-1.125699583,1.08852436,1.15,-1.15,low,high,ISIC_0072173.JPG,,ISIC_5434229.JPG,33,27,FALSE,0.36,hl,keypress(j),0,TRUE,386403.7,386403.3,379026.156,379009.3,379028.4,386422.2,1,40,8,,,
sequence,flow.Sequence,8_7,2024-07-08T23:51:01.774Z,,,,,,,,,7374.9,completion,,,,,,,low,high,,,,,,FALSE,,,,,TRUE,386403.9,386403.3,379026.156,379009.3,379028.4,386422.2,1,40,,,,
trial,html.Screen,8_8_0,2024-07-08T23:51:05.103Z,,2,0.024537615,-0.043699343,,0.05,TRUE,ll,3309.8,response,-1.225418757,0.982181367,-1.175699583,-1.174555235,1.15,-1.15,low,low,ISIC_0056444.JPG,,ISIC_0027187.JPG,33,29,FALSE,0.1,ll,keypress(f),0,TRUE,389732.2,389732,386404.912,386404,386422.2,389745.84,1,40,9,,,
sequence,flow.Sequence,8_8,2024-07-08T23:51:05.103Z,,,,,,,,,3309.8,completion,,,,,,,low,low,,,,,,FALSE,,,,,TRUE,389732.4,389732,386404.912,386403.9,386422.2,389745.84,1,40,,,,
trial,html.Screen,8_9_0,2024-07-08T23:51:13.999Z,,2,0.011231072,-0.046904736,,0.05,TRUE,lh,8882.16,response,-0.865516731,0.982181367,-1.175699583,0.929858042,1.15,-1.149986996,low,high,ISIC_0068184.JPG,,ISIC_4603706.JPG,33,25,FALSE,0.39,lh,keypress(e),0,TRUE,398628.2,398628,389745.84,389732.4,389745.84,398635.918,1,40,10,,,
sequence,flow.Sequence,8_9,2024-07-08T23:51:13.999Z,,,,,,,,,8882.16,completion,,,,,,,low,high,,,,,,FALSE,,,,,TRUE,398628.3,398628,389745.84,389732.4,389745.84,398635.918,1,40,,,,
trial,html.Screen,8_10_0,2024-07-08T23:51:22.373Z,,2,4.79192E-05,0.046265294,,0.05,FALSE,lh,8366.582,response,-1.002282937,0.982181367,-1.125699583,0.831172697,1.15,-1.149986996,low,high,ISIC_0011507.JPG,,ISIC_0033287.JPG,33,27,FALSE,0.36,ll,keypress(f),0,TRUE,407002.7,407002.5,398635.918,398628.4,398635.918,407021.8,1,40,11,,,
sequence,flow.Sequence,8_10,2024-07-08T23:51:22.373Z,,,,,,,,,8366.582,completion,,,,,,,low,high,,,,,,FALSE,,,,,TRUE,407003,407002.5,398635.918,398628.4,398635.918,407021.8,1,40,,,,
trial,html.Screen,8_11_0,2024-07-08T23:51:26.012Z,,2,0.013431314,-0.014059758,,0.05,FALSE,hl,3619.5,response,0.853469137,0.982181367,-1.125699583,-1.039755805,1.15,-1.149986996,high,low,ISIC_0069617.JPG,,ISIC_0056788.JPG,33,27,FALSE,0.26,ll,keypress(f),0,TRUE,410641.5,410641.3,406997.5,407003.4,407021.8,410654.822,1,40,12,,,
sequence,flow.Sequence,8_11,2024-07-08T23:51:26.012Z,,,,,,,,,3619.5,completion,,,,,,,high,low,,,,,,FALSE,,,,,TRUE,410641.7,410641.3,406997.5,407003.3,407021.8,410654.822,1,40,,,,
trial,html.Screen,8_12_0,2024-07-08T23:51:33.612Z,,2,-0.007072553,-0.004999514,,0.05,TRUE,lh,7586.578,response,-0.894761108,1.032181367,-1.125699583,0.896096451,1.15,-1.149986996,low,high,ISIC_6124481.JPG,,ISIC_6441128.JPG,33,27,FALSE,0.36,lh,keypress(e),0,TRUE,418241.6,418241.4,410654.822,410641.9,410654.822,418243.57,1,40,13,,,
sequence,flow.Sequence,8_12,2024-07-08T23:51:33.612Z,,,,,,,,,7586.578,completion,,,,,,,low,high,,,,,,FALSE,,,,,TRUE,418241.7,418241.4,410654.822,410641.8,410654.822,418243.57,1,40,,,,
trial,html.Screen,8_13_0,2024-07-08T23:51:43.286Z,,2,-0.005791476,-0.007466791,,0.05,FALSE,ll,9671.43,response,-1.103397706,1.032181367,-1.075699583,-1.251307157,1.15,-1.149986996,low,low,ISIC_0058723.JPG,,ISIC_0025472.JPG,33,29,FALSE,0.11,lh,keypress(e),0,TRUE,427915.2,427915,418243.57,418241.7,418243.57,427917.82,1,40,14,,,
sequence,flow.Sequence,8_13,2024-07-08T23:51:43.286Z,,,,,,,,,9671.43,completion,,,,,,,low,low,,,,,,FALSE,,,,,TRUE,427915.5,427915,418243.57,418241.7,418243.57,427917.82,1,40,,,,
trial,html.Screen,8_14_0,2024-07-08T23:51:45.503Z,,2,-0.036343708,-0.033333219,,0.05,TRUE,hh,2214.88,response,1.138843016,1.032181367,-1.075699583,1.270055235,1.15,-1.199986996,high,high,ISIC_3314555.JPG,,ISIC_9939653.JPG,33,33,FALSE,0.13,hh,keypress(i),0,TRUE,430132.9,430132.7,427917.82,427915.6,427917.82,430134.9,1,40,15,,,
sequence,flow.Sequence,8_14,2024-07-08T23:51:45.503Z,,,,,,,,,2214.88,completion,,,,,,,high,high,,,,,,FALSE,,,,,TRUE,430133.1,430132.7,427917.82,427915.6,427917.82,430134.9,1,40,,,,
trial,html.Screen,8_15_0,2024-07-08T23:51:54.088Z,,2,0.011231072,-0.046904736,,0.05,FALSE,hl,8582.8,response,1.002626609,1.032181367,-1.075699583,-1.091327591,1.154449126,-1.199986996,high,low,ISIC_0068184.JPG,,ISIC_0033520.JPG,33,26,FALSE,0.29,lh,keypress(e),0,TRUE,438718,438717.7,430132,430133.2,430134.9,438736.5,1,40,16,,,
sequence,flow.Sequence,8_15,2024-07-08T23:51:54.089Z,,,,,,,,,8582.8,completion,,,,,,,high,low,,,,,,FALSE,,,,,TRUE,438718.2,438717.7,430132,430133.1,430134.9,438736.5,1,40,,,,
trial,html.Screen,8_16_0,2024-07-08T23:51:59.339Z,,2,-0.010785499,-0.047801042,,0.05,TRUE,ll,5232,response,-1.05255323,1.082181367,-1.075699583,-1.162898251,1.154449126,-1.199986996,low,low,ISIC_0010500.JPG,,ISIC_0033428.JPG,33,29,FALSE,0.11,ll,keypress(f),0,TRUE,443968.7,443968.5,438718.124,438718.3,438736.5,443978.13,1,40,17,,,
sequence,flow.Sequence,8_16,2024-07-08T23:51:59.339Z,,,,,,,,,5232,completion,,,,,,,low,low,,,,,,FALSE,,,,,TRUE,443968.8,443968.5,438718.124,438718.3,438736.5,443978.13,1,40,,,,
trial,html.Screen,8_17_0,2024-07-08T23:52:04.462Z,,2,-0.005791476,-0.007466791,,0.05,FALSE,lh,5113.47,response,-0.746899604,1.082181367,-1.057725741,0.80738357,1.154449126,-1.199986996,low,high,ISIC_0058723.JPG,,ISIC_5335139.JPG,33,31,FALSE,0.36,ll,keypress(f),0,TRUE,449091.9,449091.6,443978.13,443968.9,443978.13,449093.7,1,40,18,,,
sequence,flow.Sequence,8_17,2024-07-08T23:52:04.462Z,,,,,,,,,5113.47,completion,,,,,,,low,high,,,,,,FALSE,,,,,TRUE,449092.1,449091.6,443978.13,443968.9,443978.13,449093.7,1,40,,,,
trial,html.Screen,8_18_0,2024-07-08T23:52:07.442Z,,2,4.79192E-05,0.046265294,,0.05,TRUE,hh,2977.6,response,0.978645773,1.082181367,-1.057725741,1.118905639,1.154449126,-1.199986996,high,high,ISIC_0011507.JPG,,ISIC_3926019.JPG,33,29,FALSE,0.13,hh,keypress(i),0,TRUE,452071.5,452071.3,449092.2,449092.2,449093.7,452073.2,1,40,19,,,
sequence,flow.Sequence,8_18,2024-07-08T23:52:07.442Z,,,,,,,,,2977.6,completion,,,,,,,high,high,,,,,,FALSE,,,,,TRUE,452071.7,452071.3,449092.2,449092.2,449093.7,452073.2,1,40,,,,
trial,html.Screen,8_19_0,2024-07-08T23:52:09.754Z,,2,-0.010785499,-0.047801042,,0.05,TRUE,hh,2310.1,response,1.095905863,1.082181367,-1.057725741,1.168483519,1.154449126,-1.199986996,high,high,ISIC_0010500.JPG,,ISIC_5920470.JPG,33,29,FALSE,0.13,hh,keypress(i),0,TRUE,454383.4,454383.3,452068.988,452071.7,452073.2,454385.4,1,40,20,,,
sequence,flow.Sequence,8_19,2024-07-08T23:52:09.754Z,,,,,,,,,2310.1,completion,,,,,,,high,high,,,,,,FALSE,,,,,TRUE,454383.7,454383.3,452068.988,452071.7,452073.2,454385.4,1,40,,,,
trial,html.Screen,8_20_0,2024-07-08T23:52:11.631Z,,2,0.027717858,-0.039558746,,0.05,TRUE,hh,1874.9,response,1.008381128,1.093694579,-1.057725741,1.008802012,1.093694579,-1.199986996,high,high,ISIC_0010807.JPG,,ISIC_6546903.JPG,33,33,FALSE,0.11,hh,keypress(i),0,TRUE,456260.4,456260.3,454381.448,454383.9,454385.4,456279.5,1,40,21,,,
sequence,flow.Sequence,8_20,2024-07-08T23:52:11.631Z,,,,,,,,,1874.9,completion,,,,,,,high,high,,,,,,FALSE,,,,,TRUE,456260.6,456260.3,454381.448,454383.7,454385.4,456279.5,1,40,,,,
trial,html.Screen,8_21_0,2024-07-08T23:52:13.859Z,,2,-0.005791476,-0.007466791,,0.05,TRUE,hh,2208.9,response,1.072671714,1.093694579,-1.057725741,1.020849839,1.093694579,-1.199986996,high,high,ISIC_0058723.JPG,,ISIC_5218773.JPG,33,33,FALSE,0.11,hh,keypress(i),0,TRUE,458488.5,458488.4,456261.332,456260.6,456279.5,458506.8,1,40,22,,,
sequence,flow.Sequence,8_21,2024-07-08T23:52:13.859Z,,,,,,,,,2208.9,completion,,,,,,,high,high,,,,,,FALSE,,,,,TRUE,458488.6,458488.4,456261.332,456260.6,456279.5,458506.8,1,40,,,,
trial,html.Screen,8_22_0,2024-07-08T23:52:17.179Z,,2,-0.036343708,-0.033333219,,0.05,TRUE,hh,3301.7,response,0.949329722,0.964825925,-1.057725741,0.912612272,0.964825925,-1.199986996,high,high,ISIC_3314555.JPG,,ISIC_9738202.JPG,33,40,FALSE,0.1,hh,keypress(i),0,TRUE,461808.7,461808.5,458486.818,458488.7,458506.8,461826.9,1,40,23,,,
sequence,flow.Sequence,8_22,2024-07-08T23:52:17.179Z,,,,,,,,,3301.7,completion,,,,,,,high,high,,,,,,FALSE,,,,,TRUE,461808.8,461808.5,458486.818,458488.7,458506.8,461826.9,1,40,,,,
trial,html.Screen,8_23_0,2024-07-08T23:52:23.052Z,,2,-0.008552098,0.046469116,,0.05,FALSE,lh,5854.3,response,-1.021336533,0.964825925,-1.057725741,1.08852436,0.964825925,-1.199986996,low,high,ISIC_0758797.JPG,,ISIC_5434229.JPG,33,25,FALSE,0.26,hl,keypress(j),0,TRUE,467681.5,467681.2,461813.274,461808.9,461826.9,467683.4,1,40,24,,,
sequence,flow.Sequence,8_23,2024-07-08T23:52:23.052Z,,,,,,,,,5854.3,completion,,,,,,,low,high,,,,,,FALSE,,,,,TRUE,467681.6,467681.2,461813.274,461808.9,461826.9,467683.4,1,40,,,,
trial,html.Screen,8_24_0,2024-07-08T23:52:28.677Z,,2,-0.045028243,0,,0.05,FALSE,hh,5622.9,response,0.867177232,0.964825925,-1.107725741,1.021252938,1.014825925,-1.199986996,high,high,ISIC_1805163.JPG,,ISIC_0004352.JPG,33,34,FALSE,0.1,hl,keypress(j),0,TRUE,473306.6,473306.3,467676.8,467681.6,467683.4,473325.2,1,40,25,,,
sequence,flow.Sequence,8_24,2024-07-08T23:52:28.677Z,,,,,,,,,5622.9,completion,,,,,,,high,high,,,,,,FALSE,,,,,TRUE,473306.9,473306.3,467676.8,467681.6,467683.4,473325.2,1,40,,,,
trial,html.Screen,8_25_0,2024-07-08T23:52:33.249Z,,2,-0.03972838,0.022870113,,0.05,FALSE,lh,4553.7,response,-0.820096201,0.839894752,-1.107725741,0.793605164,1.064825925,-1.199986996,low,high,ISIC_0054073.JPG,,ISIC_0027031.JPG,33,25,FALSE,0.32,hh,keypress(i),0,TRUE,477879,477878.9,473323.748,473307,473325.2,477897.5,1,40,26,,,
sequence,flow.Sequence,8_25,2024-07-08T23:52:33.249Z,,,,,,,,,4553.7,completion,,,,,,,low,high,,,,,,FALSE,,,,,TRUE,477879.1,477878.9,473323.748,473307,473325.2,477897.5,1,40,,,,
trial,html.Screen,8_26_0,2024-07-08T23:52:35.486Z,,2,-0.007072553,-0.004999514,,0.05,TRUE,ll,2218.2,response,-1.125322099,0.839894752,-1.157725741,-1.108725659,1.064825925,-1.199986996,low,low,ISIC_6124481.JPG,,ISIC_0054954.JPG,33,29,FALSE,0.1,ll,keypress(f),0,TRUE,480115.9,480115.7,477882.258,477879.1,477897.5,480117.4,1,40,27,,,
sequence,flow.Sequence,8_26,2024-07-08T23:52:35.486Z,,,,,,,,,2218.2,completion,,,,,,,low,low,,,,,,FALSE,,,,,TRUE,480115.9,480115.7,477882.258,477879.1,477897.5,480117.4,1,40,,,,
trial,html.Screen,8_27_0,2024-07-08T23:52:39.012Z,,2,0.036237607,0.047825071,,0.05,TRUE,ll,3524.3,response,-1.12542526,0.839894752,-1.157725741,-1.026311678,1.064825925,-1.067023879,low,low,ISIC_6985114.JPG,,ISIC_0032420.JPG,33,31,FALSE,0.1,ll,keypress(f),0,TRUE,483641.9,483641.7,480109.4,480116,480117.4,483661,1,40,28,,,
sequence,flow.Sequence,8_27,2024-07-08T23:52:39.013Z,,,,,,,,,3524.3,completion,,,,,,,low,low,,,,,,FALSE,,,,,TRUE,483642.3,483641.7,480109.4,480116,480117.4,483661,1,40,,,,
trial,html.Screen,8_28_0,2024-07-08T23:52:45.598Z,,2,-0.032477028,-0.024996863,,0.05,FALSE,lh,6566.5,response,-1.021336533,0.839894752,-1.025868469,1.08852436,1.064825925,-1.067023879,low,high,ISIC_7266462.JPG,,ISIC_5434229.JPG,33,25,FALSE,0.27,ll,keypress(f),0,TRUE,490227.7,490227.5,483642.066,483642.4,483661,490246.6,1,40,29,,,
sequence,flow.Sequence,8_28,2024-07-08T23:52:45.598Z,,,,,,,,,6566.5,completion,,,,,,,low,high,,,,,,FALSE,,,,,TRUE,490227.9,490227.5,483642.066,483642.3,483661,490246.6,1,40,,,,
trial,html.Screen,8_29_0,2024-07-08T23:52:48.553Z,,2,-0.002748341,-0.010099692,,0.05,FALSE,hl,2936.4,response,0.67626188,0.839894752,-1.025868469,-1.067875774,1.114825925,-1.067023879,high,low,ISIC_7364041.JPG,,ISIC_0000135.JPG,33,25,FALSE,0.17,hh,keypress(i),0,TRUE,493183.1,493183,490227.2,490228,490246.6,493190.022,1,40,30,,,
sequence,flow.Sequence,8_29,2024-07-08T23:52:48.554Z,,,,,,,,,2936.4,completion,,,,,,,high,low,,,,,,FALSE,,,,,TRUE,493183.4,493183,490227.2,490228,490246.6,493190.022,1,40,,,,
trial,html.Screen,8_30_0,2024-07-08T23:52:51.106Z,,2,4.79192E-05,0.046265294,,0.05,FALSE,lh,2545.478,response,-0.923557177,0.839894752,-1.025868469,1.000808165,1.114825925,-1.117023879,low,high,ISIC_0011507.JPG,,ISIC_8796632.JPG,33,28,FALSE,0.32,hh,keypress(i),0,TRUE,495735.7,495735.5,493190.022,493183.4,493190.022,495739.92,1,40,31,,,
sequence,flow.Sequence,8_30,2024-07-08T23:52:51.106Z,,,,,,,,,2545.478,completion,,,,,,,low,high,,,,,,FALSE,,,,,TRUE,495735.9,495735.5,493190.022,493183.4,493190.022,495739.92,1,40,,,,
trial,html.Screen,8_31_0,2024-07-08T23:52:58.571Z,,2,-0.038998803,-0.014321227,,0.05,FALSE,hl,7460.78,response,0.708358821,0.839894752,-1.075868469,-1.149680449,1.114825925,-1.117023879,high,low,ISIC_0064669.JPG,,ISIC_0047004.JPG,33,25,FALSE,0.19,lh,keypress(e),0,TRUE,503200.9,503200.7,495739.92,495736,495739.92,503219.4,1,40,32,,,
sequence,flow.Sequence,8_31,2024-07-08T23:52:58.571Z,,,,,,,,,7460.78,completion,,,,,,,high,low,,,,,,FALSE,,,,,TRUE,503201.1,503200.7,495739.92,495736,495739.92,503219.4,1,40,,,,
trial,html.Screen,8_32_0,2024-07-08T23:53:03.819Z,,2,-0.005791476,-0.007466791,,0.05,TRUE,hl,5229.1,response,0.730604709,0.889894752,-1.075868469,-0.972554831,1.114825925,-1.167023879,high,low,ISIC_0058723.JPG,,ISIC_0065469.JPG,33,27,FALSE,0.22,hl,keypress(j),0,TRUE,508448.6,508448.5,503198.9,503201.2,503219.4,508452.524,1,40,33,,,
sequence,flow.Sequence,8_32,2024-07-08T23:53:03.819Z,,,,,,,,,5229.1,completion,,,,,,,high,low,,,,,,FALSE,,,,,TRUE,508448.8,508448.5,503198.9,503201.1,503219.4,508452.524,1,40,,,,
trial,html.Screen,8_33_0,2024-07-08T23:53:07.110Z,,2,-0.032477028,-0.024996863,,0.05,FALSE,hh,3286.976,response,0.985919068,0.889894752,-1.075868469,1.090475684,1.114825925,-1.167023879,high,high,ISIC_7266462.JPG,,ISIC_0063151.JPG,33,33,FALSE,0.1,hl,keypress(j),0,TRUE,511739.7,511739.5,508452.524,508448.9,508452.524,511741.942,1,40,34,,,
sequence,flow.Sequence,8_33,2024-07-08T23:53:07.110Z,,,,,,,,,3286.976,completion,,,,,,,high,high,,,,,,FALSE,,,,,TRUE,511739.8,511739.5,508452.524,508448.9,508452.524,511741.942,1,40,,,,
trial,html.Screen,8_34_0,2024-07-08T23:53:12.025Z,,2,0.013476473,0.003349904,,0.05,TRUE,ll,4912.658,response,-1.04912899,0.839894752,-1.075868469,-1.05868314,1.164825925,-1.167023879,low,low,ISIC_0009998.JPG,,ISIC_0010866.JPG,33,30,FALSE,0.11,ll,keypress(f),0,TRUE,516654.8,516654.6,511741.942,511739.9,511741.942,516673.3,1,40,35,,,
sequence,flow.Sequence,8_34,2024-07-08T23:53:12.025Z,,,,,,,,,4912.658,completion,,,,,,,low,low,,,,,,FALSE,,,,,TRUE,516655.1,516654.6,511741.942,511739.9,511741.942,516673.3,1,40,,,,
trial,html.Screen,8_35_0,2024-07-08T23:53:14.169Z,,2,-0.007397293,-0.017471677,,0.05,TRUE,hh,2125.5,response,0.785625839,0.839894752,-1.075868469,1.23997091,1.164825925,-1.003906065,high,high,ISIC_0056226.JPG,,ISIC_7860137.JPG,33,28,FALSE,0.1,hh,keypress(i),0,TRUE,518798.9,518798.8,516651.7,516655.1,516673.3,518818.5,1,40,36,,,
sequence,flow.Sequence,8_35,2024-07-08T23:53:14.169Z,,,,,,,,,2125.5,completion,,,,,,,high,high,,,,,,FALSE,,,,,TRUE,518799.2,518798.8,516651.7,516655.1,516673.3,518818.5,1,40,,,,
trial,html.Screen,8_36_0,2024-07-08T23:53:20.114Z,,2,-0.008552098,0.046469116,,0.05,FALSE,ll,5925,response,-1.168264829,0.839894752,-1.075868469,-1.004142981,1.164825925,-1.003906065,low,low,ISIC_0758797.JPG,,ISIC_3936223.JPG,33,27,FALSE,0.1,lh,keypress(e),0,TRUE,524743.6,524743.5,518798.588,518799.3,518818.5,524762.5,1,40,37,,,
sequence,flow.Sequence,8_36,2024-07-08T23:53:20.114Z,,,,,,,,,5925,completion,,,,,,,low,low,,,,,,FALSE,,,,,TRUE,524743.8,524743.5,518798.588,518799.2,518818.5,524762.5,1,40,,,,
trial,html.Screen,8_37_0,2024-07-08T23:53:27.140Z,,2,-0.005067913,0.000971487,,0.05,TRUE,hl,7007.2,response,0.69705657,0.839894752,-1.025868469,-1.18967359,1.164825925,-1.053906065,high,low,ISIC_9848743.JPG,,ISIC_0032522.JPG,33,26,FALSE,0.17,hl,keypress(j),0,TRUE,531769.7,531769.7,524742.036,524743.9,524762.5,531788.5,1,40,38,,,
sequence,flow.Sequence,8_37,2024-07-08T23:53:27.140Z,,,,,,,,,7007.2,completion,,,,,,,high,low,,,,,,FALSE,,,,,TRUE,531769.9,531769.7,524742.036,524743.9,524762.5,531788.5,1,40,,,,
trial,html.Screen,8_38_0,2024-07-08T23:53:31.264Z,,2,-0.007072553,-0.004999514,,0.05,TRUE,ll,4105.2,response,-1.093147743,0.789894752,-1.025868469,-1.002830695,1.164825925,-1.053906065,low,low,ISIC_6124481.JPG,,ISIC_0026531.JPG,33,35,FALSE,0.1,ll,keypress(f),0,TRUE,535894,535893.7,531772.4,531770,531788.5,535912.8,1,40,39,,,
sequence,flow.Sequence,8_38,2024-07-08T23:53:31.265Z,,,,,,,,,4105.2,completion,,,,,,,low,low,,,,,,FALSE,,,,,TRUE,535894.5,535893.7,531772.4,531770,531788.5,535912.8,1,40,,,,
trial,html.Screen,8_39_0,2024-07-08T23:53:33.307Z,,2,0.011231072,-0.046904736,,0.05,TRUE,hh,2023.9,response,0.855263904,0.789894752,-1.025868469,1.098231462,1.164825925,-0.997989219,high,high,ISIC_0068184.JPG,,ISIC_0026278.JPG,33,31,FALSE,0.1,hh,keypress(i),0,TRUE,537936.8,537936.7,535896.842,535894.6,535912.8,537955.4,1,40,40,,,
sequence,flow.Sequence,8_39,2024-07-08T23:53:33.307Z,,,,,,,,,2023.9,completion,,,,,,,high,high,,,,,,FALSE,,,,,TRUE,537937,537936.7,535896.842,535894.6,535912.8,537955.4,1,40,,,,
stair_loop,flow.Loop,8,2024-07-08T23:53:33.307Z,,,,,,,,,195775.1,completion,,,,,,,,,,,,,,FALSE,,,,,TRUE,537937.1,537936.7,342139.954,342143.2,342161.6,537955.4,1,40,,,,
exp_instructions,html.Screen,9,2024-07-08T23:53:37.464Z,,,,,,,,,4137.6,response,,,,,,,,,,,,,,,,continue,keypress(Space),,,542093.5,542093,537937.092,537937.1,537955.4,542112.1,,,,,,
trial,html.Screen,10_0_0,2024-07-08T23:53:47.391Z,,1,-0.032477028,-0.024996863,,0.05,FALSE,hl,9908.4,response,0.774564732,0.884014411,-1.068611378,-1.161030206,1.097712791,-1.122485674,high,low,ISIC_7266462.JPG,9,ISIC_0033004.JPG,33,29,FALSE,0.2,lh,keypress(e),0,FALSE,552020.7,552020.5,542105.234,542093.7,542112.1,552038.8,5,600,1,,,
break,html.Screen,10_0_1,2024-07-08T23:53:47.392Z,,,,,,,,,NaN,,,,,,,,high,low,,,,,,FALSE,,,,,FALSE,552022.1,552021.9,,552020.8,,552038.8,5,600,,,,
break_continue,html.Screen,10_0_2,2024-07-08T23:53:47.393Z,,,,,,,,,NaN,,,,,,,,high,low,,,,,,FALSE,,,,,FALSE,552022.4,552022.3,,552022.1,,552038.8,5,600,,,,
sequence,flow.Sequence,10_0,2024-07-08T23:53:47.393Z,,,,,,,,,9910.2,completion,,,,,,,high,low,,,,,,FALSE,,,,,FALSE,552022.5,552022.3,542105.234,542093.7,542112.1,552038.8,5,600,,,,
trial,html.Screen,10_1_0,2024-07-08T23:53:49.454Z,,1,4.79192E-05,0.046265294,,0.05,FALSE,hl,2044.5,response,1.020990672,0.884014411,-1.068611378,-1.011651385,1.097712791,-1.122485674,high,low,ISIC_0011507.JPG,8,ISIC_0011995.JPG,33,29,FALSE,0.2,hh,keypress(i),0,FALSE,554083.4,554083.3,552020.344,552022.5,552038.8,554101.9,5,600,2,,,
break,html.Screen,10_1_1,2024-07-08T23:53:49.455Z,,,,,,,,,NaN,,,,,,,,high,low,,,,,,FALSE,,,,,FALSE,554084.7,554084.6,,554083.5,,554101.9,5,600,,,,
break_continue,html.Screen,10_1_2,2024-07-08T23:53:49.455Z,,,,,,,,,NaN,,,,,,,,high,low,,,,,,FALSE,,,,,FALSE,554084.9,554084.8,,554084.7,,554101.9,5,600,,,,
sequence,flow.Sequence,10_1,2024-07-08T23:53:49.455Z,,,,,,,,,2046,completion,,,,,,,high,low,,,,,,FALSE,,,,,FALSE,554085,554084.8,552020.344,552022.5,552038.8,554101.9,5,600,,,,
trial,html.Screen,10_2_0,2024-07-08T23:53:59.231Z,,1,-0.007072553,-0.004999514,,0.05,FALSE,lh,9758.7,response,-0.79988559,0.884014411,-1.068611378,1.151857915,1.097712791,-1.122485674,low,high,ISIC_6124481.JPG,9,ISIC_0025061.JPG,33,26,FALSE,0.31,hl,keypress(j),0,FALSE,563860.7,563860.6,554088.952,554085,554101.9,563875.726,5,600,3,,,
break,html.Screen,10_2_1,2024-07-08T23:53:59.232Z,,,,,,,,,NaN,,,,,,,,low,high,,,,,,FALSE,,,,,FALSE,563862,563861.4,,563860.9,,563875.726,5,600,,,,
break_continue,html.Screen,10_2_2,2024-07-08T23:53:59.232Z,,,,,,,,,NaN,,,,,,,,low,high,,,,,,FALSE,,,,,FALSE,563862.4,563862.3,,563862.2,,563875.726,5,600,,,,
sequence,flow.Sequence,10_2,2024-07-08T23:53:59.233Z,,,,,,,,,9760.4,completion,,,,,,,low,high,,,,,,FALSE,,,,,FALSE,563862.4,563862.3,554088.952,554085,554101.9,563875.726,5,600,,,,
trial,html.Screen,10_3_0,2024-07-08T23:54:05.668Z,,1,-0.006955534,0.031010092,,0.05,FALSE,lh,6421.674,response,-0.772384921,0.884014411,-1.068611378,0.888372424,1.097712791,-1.122485674,low,high,ISIC_0011177.JPG,9,ISIC_3884221.JPG,33,26,FALSE,0.31,ll,keypress(f),0,FALSE,570297.5,570297.4,563875.726,563862.5,563875.726,570299.1,5,600,4,,,
break,html.Screen,10_3_1,2024-07-08T23:54:05.668Z,,,,,,,,,NaN,,,,,,,,low,high,,,,,,FALSE,,,,,FALSE,570298,570297.9,,570297.7,,570299.1,5,600,,,,
break_continue,html.Screen,10_3_2,2024-07-08T23:54:05.669Z,,,,,,,,,NaN,,,,,,,,low,high,,,,,,FALSE,,,,,FALSE,570298.3,570298.2,,570298.1,,570299.1,5,600,,,,
sequence,flow.Sequence,10_3,2024-07-08T23:54:05.669Z,,,,,,,,,6422.474,completion,,,,,,,low,high,,,,,,FALSE,,,,,FALSE,570298.3,570298.2,563875.726,563862.5,563875.726,570299.1,5,600,,,,
trial,html.Screen,10_4_0,2024-07-08T23:54:07.775Z,,1,-0.005067913,0.000971487,,0.05,TRUE,hh,2105.3,response,0.906919514,0.884014411,-1.068611378,1.17726864,1.097712791,-1.122485674,high,high,ISIC_9848743.JPG,9,ISIC_9728003.JPG,33,36,FALSE,0.1,hh,keypress(i),0,FALSE,572404.5,572404.4,570297.15,570298.4,570299.1,572423.1,5,600,5,,,
break,html.Screen,10_4_1,2024-07-08T23:54:07.776Z,,,,,,,,,NaN,,,,,,,,high,high,,,,,,FALSE,,,,,FALSE,572405.2,572405,,572404.7,,572423.1,5,600,,,,
break_continue,html.Screen,10_4_2,2024-07-08T23:54:07.776Z,,,,,,,,,NaN,,,,,,,,high,high,,,,,,FALSE,,,,,FALSE,572405.4,572405.4,,572405.3,,572423.1,5,600,,,,
sequence,flow.Sequence,10_4,2024-07-08T23:54:07.776Z,,,,,,,,,2106.3,completion,,,,,,,high,high,,,,,,FALSE,,,,,FALSE,572405.6,572405.4,570297.15,570298.4,570299.1,572423.1,5,600,,,,
trial,html.Screen,10_5_0,2024-07-08T23:54:10.370Z,,1,-0.002748341,-0.010099692,,0.05,TRUE,ll,2576.2,response,-1.101214462,0.884014411,-1.068611378,-1.184988351,1.097712791,-1.122485674,low,low,ISIC_7364041.JPG,9,ISIC_0064943.JPG,33,27,FALSE,0.1,ll,keypress(f),0,FALSE,574999.4,574999.3,572406.556,572405.7,572423.1,575020.6,5,600,6,,,
break,html.Screen,10_5_1,2024-07-08T23:54:10.371Z,,,,,,,,,NaN,,,,,,,,low,low,,,,,,FALSE,,,,,FALSE,575000.2,575000.1,,574999.6,,575020.6,5,600,,,,
break_continue,html.Screen,10_5_2,2024-07-08T23:54:10.371Z,,,,,,,,,NaN,,,,,,,,low,low,,,,,,FALSE,,,,,FALSE,575000.4,575000.3,,575000.2,,575020.6,5,600,,,,
sequence,flow.Sequence,10_5,2024-07-08T23:54:10.371Z,,,,,,,,,2577.2,completion,,,,,,,low,low,,,,,,FALSE,,,,,FALSE,575000.5,575000.3,572406.556,572405.6,572423.1,575020.6,5,600,,,,
trial,html.Screen,10_6_0,2024-07-08T23:54:16.037Z,,1,-0.032477028,-0.024996863,,0.05,FALSE,ll,5645.7,response,-1.101346105,0.884014411,-1.068611378,-1.122581307,1.097712791,-1.122485674,low,low,ISIC_7266462.JPG,9,ISIC_8175453.JPG,33,27,FALSE,0.1,hl,keypress(j),0,FALSE,580666.4,580666.3,574990.388,575000.6,575020.6,580684.8,5,600,7,,,
break,html.Screen,10_6_1,2024-07-08T23:54:16.038Z,,,,,,,,,NaN,,,,,,,,low,low,,,,,,FALSE,,,,,FALSE,580667.7,580667.7,,580666.6,,580684.8,5,600,,,,
break_continue,html.Screen,10_6_2,2024-07-08T23:54:16.038Z,,,,,,,,,NaN,,,,,,,,low,low,,,,,,FALSE,,,,,FALSE,580668,580667.9,,580667.8,,580684.8,5,600,,,,
sequence,flow.Sequence,10_6,2024-07-08T23:54:16.038Z,,,,,,,,,5647.3,completion,,,,,,,low,low,,,,,,FALSE,,,,,FALSE,580668,580667.9,574990.388,575000.6,575020.6,580684.8,5,600,,,,
trial,html.Screen,10_7_0,2024-07-08T23:54:18.076Z,,1,0.013476473,0.003349904,,0.05,TRUE,hh,2020.7,response,0.787037338,0.884014411,-1.068611378,1.038510428,1.097712791,-1.122485674,high,high,ISIC_0009998.JPG,10,ISIC_0002162.JPG,33,36,FALSE,0.1,hh,keypress(i),0,FALSE,582705.6,582705.5,580662.718,580668.2,580684.8,582707.3,5,600,8,,,
break,html.Screen,10_7_1,2024-07-08T23:54:18.077Z,,,,,,,,,NaN,,,,,,,,high,high,,,,,,FALSE,,,,,FALSE,582706.9,582706.2,,582705.8,,582707.3,5,600,,,,
break_continue,html.Screen,10_7_2,2024-07-08T23:54:18.078Z,,,,,,,,,NaN,,,,,,,,high,high,,,,,,FALSE,,,,,FALSE,582707.2,582707,,582706.9,,582707.3,5,600,,,,
sequence,flow.Sequence,10_7,2024-07-08T23:54:18.078Z,,,,,,,,,2022.2,completion,,,,,,,high,high,,,,,,FALSE,,,,,FALSE,582707.4,582707,580662.718,580668.2,580684.8,582707.3,5,600,,,,
trial,html.Screen,10_8_0,2024-07-08T23:54:22.323Z,,1,0.024537615,-0.043699343,,0.05,TRUE,hl,4245,response,0.945471323,0.884014411,-1.068611378,-0.924516744,1.097712791,-1.122485674,high,low,ISIC_0056444.JPG,10,ISIC_9101055.JPG,33,29,FALSE,0.2,hl,keypress(j),0,FALSE,586952.3,586952.3,582706.788,582707.5,582707.3,586956.4,5,600,9,,,
break,html.Screen,10_8_1,2024-07-08T23:54:22.324Z,,,,,,,,,NaN,,,,,,,,high,low,,,,,,FALSE,,,,,FALSE,586953.4,586953.2,,586952.5,,586956.4,5,600,,,,
break_continue,html.Screen,10_8_2,2024-07-08T23:54:22.324Z,,,,,,,,,NaN,,,,,,,,high,low,,,,,,FALSE,,,,,FALSE,586953.9,586953.8,,586953.5,,586956.4,5,600,,,,
sequence,flow.Sequence,10_8,2024-07-08T23:54:22.324Z,,,,,,,,,4246.5,completion,,,,,,,high,low,,,,,,FALSE,,,,,FALSE,586954,586953.8,582706.788,582707.4,582707.3,586956.4,5,600,,,,
trial,html.Screen,10_9_0,2024-07-08T23:54:27.767Z,,1,-0.007397293,-0.017471677,,0.05,TRUE,ll,5440,response,-1.038748817,0.884014411,-1.068611378,-1.18662969,1.097712791,-1.122485674,low,low,ISIC_0056226.JPG,9,ISIC_0015390.JPG,33,27,FALSE,0.1,ll,keypress(f),0,FALSE,592396.8,592396.4,586950.222,586954.1,586956.4,592415.5,5,600,10,,,
break,html.Screen,10_9_1,2024-07-08T23:54:27.769Z,,,,,,,,,NaN,,,,,,,,low,low,,,,,,FALSE,,,,,FALSE,592398.3,592397.5,,592397,,592415.5,5,600,,,,
break_continue,html.Screen,10_9_2,2024-07-08T23:54:27.769Z,,,,,,,,,NaN,,,,,,,,low,low,,,,,,FALSE,,,,,FALSE,592398.6,592398.5,,592398.3,,592415.5,5,600,,,,
sequence,flow.Sequence,10_9,2024-07-08T23:54:27.769Z,,,,,,,,,5442.1,completion,,,,,,,low,low,,,,,,FALSE,,,,,FALSE,592398.7,592398.5,586950.222,586954,586956.4,592415.5,5,600,,,,
trial,html.Screen,10_10_0,2024-07-08T23:54:34.220Z,,1,-0.007397293,-0.017471677,,0.05,FALSE,ll,6433.7,response,-1.000552048,0.884014411,-1.068611378,-1.069493602,1.097712791,-1.122485674,low,low,ISIC_0056226.JPG,11,ISIC_0059891.JPG,33,27,FALSE,0.1,lh,keypress(e),0,FALSE,598849.5,598849.2,592395.664,592398.8,592415.5,598868.2,5,600,11,,,
break,html.Screen,10_10_1,2024-07-08T23:54:34.221Z,,,,,,,,,NaN,,,,,,,,low,low,,,,,,FALSE,,,,,FALSE,598851.1,598850.7,,598849.6,,598868.2,5,600,,,,
break_continue,html.Screen,10_10_2,2024-07-08T23:54:34.222Z,,,,,,,,,NaN,,,,,,,,low,low,,,,,,FALSE,,,,,FALSE,598851.4,598851.3,,598851.1,,598868.2,5,600,,,,
sequence,flow.Sequence,10_10,2024-07-08T23:54:34.222Z,,,,,,,,,6435.8,completion,,,,,,,low,low,,,,,,FALSE,,,,,FALSE,598851.5,598851.3,592395.664,592398.8,592415.5,598868.2,5,600,,,,
trial,html.Screen,10_11_0,2024-07-08T23:54:37.561Z,,1,-0.005791476,-0.007466791,,0.05,FALSE,ll,3322.7,response,-1.000552048,0.884014411,-1.068611378,-1.069493602,1.097712791,-1.122485674,low,low,ISIC_0058723.JPG,8,ISIC_0059891.JPG,33,27,FALSE,0.1,lh,keypress(e),0,FALSE,602191.1,602190.9,598838.924,598851.5,598868.2,602209.4,5,600,12,,,
break,html.Screen,10_11_1,2024-07-08T23:54:37.563Z,,,,,,,,,NaN,,,,,,,,low,low,,,,,,FALSE,,,,,FALSE,602192.5,602192.3,,602191.2,,602209.4,5,600,,,,
break_continue,html.Screen,10_11_2,2024-07-08T23:54:37.563Z,,,,,,,,,NaN,,,,,,,,low,low,,,,,,FALSE,,,,,FALSE,602192.8,602192.6,,602192.5,,602209.4,5,600,,,,
sequence,flow.Sequence,10_11,2024-07-08T23:54:37.563Z,,,,,,,,,3324.4,completion,,,,,,,low,low,,,,,,FALSE,,,,,FALSE,602192.9,602192.6,598838.924,598851.5,598868.2,602209.4,5,600,,,,
trial,html.Screen,10_12_0,2024-07-08T23:54:40.333Z,,1,-0.010785499,-0.047801042,,0.05,TRUE,hh,2752.7,response,0.910233658,0.884014411,-1.068611378,1.030511335,1.097712791,-1.122485674,high,high,ISIC_0010500.JPG,9,ISIC_0068530.JPG,33,36,FALSE,0.1,hh,keypress(i),0,FALSE,604962.3,604962.1,602192.44,602193,602209.4,604967.296,5,600,13,,,
break,html.Screen,10_12_1,2024-07-08T23:54:40.335Z,,,,,,,,,NaN,,,,,,,,high,high,,,,,,FALSE,,,,,FALSE,604964.5,604964.4,,604962.6,,604967.296,5,600,,,,
break_continue,html.Screen,10_12_2,2024-07-08T23:54:40.335Z,,,,,,,,,NaN,,,,,,,,high,high,,,,,,FALSE,,,,,FALSE,604964.9,604964.8,,604964.6,,604967.296,5,600,,,,
sequence,flow.Sequence,10_12,2024-07-08T23:54:40.335Z,,,,,,,,,2755.4,completion,,,,,,,high,high,,,,,,FALSE,,,,,FALSE,604964.9,604964.8,602192.44,602193,602209.4,604967.296,5,600,,,,
trial,html.Screen,10_13_0,2024-07-08T23:54:45.660Z,,1,4.79192E-05,0.046265294,,0.05,TRUE,hl,5321.904,response,0.778458387,0.884014411,-1.068611378,-0.964151481,1.097712791,-1.122485674,high,low,ISIC_0011507.JPG,8,ISIC_0011924.JPG,33,29,FALSE,0.2,hl,keypress(j),0,FALSE,610289.4,610289.2,604967.296,604965,604967.296,610307.7,5,600,14,,,
break,html.Screen,10_13_1,2024-07-08T23:54:45.661Z,,,,,,,,,NaN,,,,,,,,high,low,,,,,,FALSE,,,,,FALSE,610290.7,610290.5,,610289.5,,610307.7,5,600,,,,
break_continue,html.Screen,10_13_2,2024-07-08T23:54:45.661Z,,,,,,,,,NaN,,,,,,,,high,low,,,,,,FALSE,,,,,FALSE,610290.8,610290.8,,610290.7,,610307.7,5,600,,,,
sequence,flow.Sequence,10_13,2024-07-08T23:54:45.661Z,,,,,,,,,5323.504,completion,,,,,,,high,low,,,,,,FALSE,,,,,FALSE,610290.8,610290.8,604967.296,604965,604967.296,610307.7,5,600,,,,
trial,html.Screen,10_14_0,2024-07-08T23:54:49.644Z,,1,0.024537615,-0.043699343,,0.05,TRUE,ll,3966.2,response,-1.038748817,0.884014411,-1.068611378,-1.18662969,1.097712791,-1.122485674,low,low,ISIC_0056444.JPG,9,ISIC_0015390.JPG,33,27,FALSE,0.1,ll,keypress(f),0,FALSE,614274.1,614273.9,610283.976,610291,610307.7,614288.2,5,600,15,,,
break,html.Screen,10_14_1,2024-07-08T23:54:49.645Z,,,,,,,,,NaN,,,,,,,,low,low,,,,,,FALSE,,,,,FALSE,614274.7,614274.6,,614274.3,,614288.2,5,600,,,,
break_continue,html.Screen,10_14_2,2024-07-08T23:54:49.645Z,,,,,,,,,NaN,,,,,,,,low,low,,,,,,FALSE,,,,,FALSE,614275,614274.9,,614274.8,,614288.2,5,600,,,,
sequence,flow.Sequence,10_14,2024-07-08T23:54:49.645Z,,,,,,,,,3967.2,completion,,,,,,,low,low,,,,,,FALSE,,,,,FALSE,614275.2,614274.9,610283.976,610291,610307.7,614288.2,5,600,,,,
trial,html.Screen,10_15_0,2024-07-08T23:54:56.418Z,,1,0.009709127,-0.041792132,,0.05,FALSE,hh,6759.3,response,0.885689918,0.884014411,-1.068611378,1.190313171,1.097712791,-1.122485674,high,high,ISIC_3967213.JPG,9,ISIC_1233104.JPG,33,36,FALSE,0.1,hl,keypress(j),0,FALSE,621047.7,621047.5,614273.95,614275.2,614288.2,621066.9,5,600,16,,,
break,html.Screen,10_15_1,2024-07-08T23:54:56.419Z,,,,,,,,,NaN,,,,,,,,high,high,,,,,,FALSE,,,,,FALSE,621048.4,621048.1,,621047.8,,621066.9,5,600,,,,
break_continue,html.Screen,10_15_2,2024-07-08T23:54:56.419Z,,,,,,,,,NaN,,,,,,,,high,high,,,,,,FALSE,,,,,FALSE,621048.7,621048.6,,621048.4,,621066.9,5,600,,,,
sequence,flow.Sequence,10_15,2024-07-08T23:54:56.419Z,,,,,,,,,6760.4,completion,,,,,,,high,high,,,,,,FALSE,,,,,FALSE,621048.8,621048.6,614273.95,614275.2,614288.2,621066.9,5,600,,,,
trial,html.Screen,10_16_0,2024-07-08T23:54:59.512Z,,1,-0.005791476,-0.007466791,,0.05,TRUE,ll,3074.3,response,-1.065149241,0.884014411,-1.068611378,-1.186249926,1.097712791,-1.122485674,low,low,ISIC_0058723.JPG,10,ISIC_0065421.JPG,33,27,FALSE,0.1,ll,keypress(f),0,FALSE,624141.3,624141.2,621049.636,621048.8,621066.9,624163.3,5,600,17,,,
break,html.Screen,10_16_1,2024-07-08T23:54:59.512Z,,,,,,,,,NaN,,,,,,,,low,low,,,,,,FALSE,,,,,FALSE,624141.8,624141.8,,624141.5,,624163.3,5,600,,,,
break_continue,html.Screen,10_16_2,2024-07-08T23:54:59.512Z,,,,,,,,,NaN,,,,,,,,low,low,,,,,,FALSE,,,,,FALSE,624142.1,624142,,624141.9,,624163.3,5,600,,,,
sequence,flow.Sequence,10_16,2024-07-08T23:54:59.513Z,,,,,,,,,3075.1,completion,,,,,,,low,low,,,,,,FALSE,,,,,FALSE,624142.2,624142,621049.636,621048.8,621066.9,624163.3,5,600,,,,
trial,html.Screen,10_17_0,2024-07-08T23:55:01.274Z,,1,-0.032477028,-0.024996863,,0.05,TRUE,ll,1739.8,response,-1.125322099,0.884014411,-1.068611378,-1.108725659,1.097712791,-1.122485674,low,low,ISIC_7266462.JPG,9,ISIC_0054954.JPG,33,27,FALSE,0.1,ll,keypress(f),0,FALSE,625903.2,625903.1,624146.5,624142.2,624163.3,625921.4,5,600,18,,,
break,html.Screen,10_17_1,2024-07-08T23:55:01.275Z,,,,,,,,,NaN,,,,,,,,low,low,,,,,,FALSE,,,,,FALSE,625904.4,625904.3,,625903.4,,625921.4,5,600,,,,
break_continue,html.Screen,10_17_2,2024-07-08T23:55:01.275Z,,,,,,,,,NaN,,,,,,,,low,low,,,,,,FALSE,,,,,FALSE,625904.8,625904.7,,625904.5,,625921.4,5,600,,,,
sequence,flow.Sequence,10_17,2024-07-08T23:55:01.275Z,,,,,,,,,1741.4,completion,,,,,,,low,low,,,,,,FALSE,,,,,FALSE,625904.8,625904.7,624146.5,624142.2,624163.3,625921.4,5,600,,,,
trial,html.Screen,10_18_0,2024-07-08T23:55:10.441Z,,1,0.013431314,-0.014059758,,0.05,FALSE,hl,9149.2,response,0.708358821,0.884014411,-1.068611378,-1.149680449,1.097712791,-1.122485674,high,low,ISIC_0069617.JPG,9,ISIC_0047004.JPG,33,29,FALSE,0.2,lh,keypress(e),0,FALSE,635070.7,635070.6,625913.736,625904.9,625921.4,635081.796,5,600,19,,,
break,html.Screen,10_18_1,2024-07-08T23:55:10.442Z,,,,,,,,,NaN,,,,,,,,high,low,,,,,,FALSE,,,,,FALSE,635071.3,635071.3,,635070.9,,635081.796,5,600,,,,
break_continue,html.Screen,10_18_2,2024-07-08T23:55:10.443Z,,,,,,,,,NaN,,,,,,,,high,low,,,,,,FALSE,,,,,FALSE,635072.5,635072.4,,635071.4,,635081.796,5,600,,,,
sequence,flow.Sequence,10_18,2024-07-08T23:55:10.443Z,,,,,,,,,9151,completion,,,,,,,high,low,,,,,,FALSE,,,,,FALSE,635072.6,635072.4,625913.736,625904.8,625921.4,635081.796,5,600,,,,
trial,html.Screen,10_19_0,2024-07-08T23:55:23.117Z,,1,0.011387353,0.00549992,,0.05,FALSE,lh,12664.504,response,-0.809764442,0.884014411,-1.068611378,1.005337148,1.097712791,-1.122485674,low,high,ISIC_8812621.JPG,10,ISIC_2379379.JPG,33,26,FALSE,0.31,ll,keypress(f),0,FALSE,647746.6,647746.3,635081.796,635072.8,635081.796,647748.1,5,600,20,,,
break,html.Screen,10_19_1,2024-07-08T23:55:23.117Z,,,,,,,,,NaN,,,,,,,,low,high,,,,,,FALSE,,,,,FALSE,647747.2,647747,,647746.7,,647748.1,5,600,,,,
break_continue,html.Screen,10_19_2,2024-07-08T23:55:23.118Z,,,,,,,,,NaN,,,,,,,,low,high,,,,,,FALSE,,,,,FALSE,647747.4,647747.4,,647747.3,,647748.1,5,600,,,,
sequence,flow.Sequence,10_19,2024-07-08T23:55:23.118Z,,,,,,,,,12665.604,completion,,,,,,,low,high,,,,,,FALSE,,,,,FALSE,647747.6,647747.4,635081.796,635072.8,635081.796,647748.1,5,600,,,,
trial,html.Screen,10_20_0,2024-07-08T23:55:30.947Z,,1,-0.002748341,-0.010099692,,0.05,FALSE,ll,7828.9,response,-1.12542526,0.884014411,-1.068611378,-1.026311678,1.097712791,-1.122485674,low,low,ISIC_7364041.JPG,8,ISIC_0032420.JPG,33,27,FALSE,0.1,hl,keypress(j),0,FALSE,655577.1,655577,647746.626,647747.6,647748.1,655578.9,5,600,21,,,
break,html.Screen,10_20_1,2024-07-08T23:55:30.948Z,,,,,,,,,NaN,,,,,,,,low,low,,,,,,FALSE,,,,,FALSE,655577.7,655577.6,,655577.2,,655578.9,5,600,,,,
break_continue,html.Screen,10_20_2,2024-07-08T23:55:30.948Z,,,,,,,,,NaN,,,,,,,,low,low,,,,,,FALSE,,,,,FALSE,655578,655577.8,,655577.8,,655578.9,5,600,,,,
sequence,flow.Sequence,10_20,2024-07-08T23:55:30.948Z,,,,,,,,,7829.7,completion,,,,,,,low,low,,,,,,FALSE,,,,,FALSE,655578,655577.8,647746.626,647747.6,647748.1,655578.9,5,600,,,,
trial,html.Screen,10_21_0,2024-07-08T23:55:35.848Z,,1,-0.007397293,-0.017471677,,0.05,TRUE,hl,4898.6,response,0.730604709,0.884014411,-1.068611378,-0.972554831,1.097712791,-1.122485674,high,low,ISIC_0056226.JPG,8,ISIC_0065469.JPG,33,29,FALSE,0.2,hl,keypress(j),0,FALSE,660477.6,660477.5,655573.194,655578.1,655578.9,660496,5,600,22,,,
break,html.Screen,10_21_1,2024-07-08T23:55:35.849Z,,,,,,,,,NaN,,,,,,,,high,low,,,,,,FALSE,,,,,FALSE,660478.9,660478.8,,660477.8,,660496,5,600,,,,
break_continue,html.Screen,10_21_2,2024-07-08T23:55:35.849Z,,,,,,,,,NaN,,,,,,,,high,low,,,,,,FALSE,,,,,FALSE,660479.1,660479,,660479,,660496,5,600,,,,
sequence,flow.Sequence,10_21,2024-07-08T23:55:35.850Z,,,,,,,,,4900.1,completion,,,,,,,high,low,,,,,,FALSE,,,,,FALSE,660479.3,660479,655573.194,655578.1,655578.9,660496,5,600,,,,
trial,html.Screen,10_22_0,2024-07-08T23:55:38.532Z,,1,-0.04565158,0.027356713,,0.05,TRUE,ll,2665.3,response,-1.152619213,0.884014411,-1.068611378,-1.111787684,1.097712791,-1.122485674,low,low,ISIC_0068610.JPG,9,ISIC_0061915.JPG,33,27,FALSE,0.1,ll,keypress(f),0,FALSE,663161.5,663161.3,660473.69,660479.3,660496,663163.2,5,600,23,,,
break,html.Screen,10_22_1,2024-07-08T23:55:38.533Z,,,,,,,,,NaN,,,,,,,,low,low,,,,,,FALSE,,,,,FALSE,663162.8,663162.1,,663161.6,,663163.2,5,600,,,,
break_continue,html.Screen,10_22_2,2024-07-08T23:55:38.534Z,,,,,,,,,NaN,,,,,,,,low,low,,,,,,FALSE,,,,,FALSE,663163.2,663163.1,,663162.9,,663163.2,5,600,,,,
sequence,flow.Sequence,10_22,2024-07-08T23:55:38.534Z,,,,,,,,,2667.1,completion,,,,,,,low,low,,,,,,FALSE,,,,,FALSE,663163.4,663163.1,660473.69,660479.3,660496,663163.2,5,600,,,,
trial,html.Screen,10_23_0,2024-07-08T23:55:40.675Z,,1,-0.036343708,-0.033333219,,0.05,TRUE,hh,2141.2,response,0.795924173,0.884014411,-1.068611378,1.054174227,1.097712791,-1.122485674,high,high,ISIC_3314555.JPG,9,ISIC_6646939.JPG,33,36,FALSE,0.1,hh,keypress(i),0,FALSE,665304.6,665304.4,663158.4,663163.4,663163.2,665323.1,5,600,24,,,
break,html.Screen,10_23_1,2024-07-08T23:55:40.676Z,,,,,,,,,NaN,,,,,,,,high,high,,,,,,FALSE,,,,,FALSE,665306,665305.3,,665304.8,,665323.1,5,600,,,,
break_continue,html.Screen,10_23_2,2024-07-08T23:55:40.677Z,,,,,,,,,NaN,,,,,,,,high,high,,,,,,FALSE,,,,,FALSE,665306.4,665306.2,,665306.1,,665323.1,5,600,,,,
sequence,flow.Sequence,10_23,2024-07-08T23:55:40.677Z,,,,,,,,,2143,completion,,,,,,,high,high,,,,,,FALSE,,,,,FALSE,665306.4,665306.2,663158.4,663163.4,663163.2,665323.1,5,600,,,,
trial,html.Screen,10_24_0,2024-07-08T23:55:48.145Z,,1,0.011387353,0.00549992,,0.05,TRUE,hl,7451,response,0.858338058,0.884014411,-1.068611378,-0.954061222,1.097712791,-1.122485674,high,low,ISIC_8812621.JPG,9,ISIC_8922893.JPG,33,29,FALSE,0.2,hl,keypress(j),0,FALSE,672774.3,672774.1,665306.788,665306.5,665323.1,672775.9,5,600,25,,,
break,html.Screen,10_24_1,2024-07-08T23:55:48.145Z,,,,,,,,,NaN,,,,,,,,high,low,,,,,,FALSE,,,,,FALSE,672774.9,672774.7,,672774.4,,672775.9,5,600,,,,
break_continue,html.Screen,10_24_2,2024-07-08T23:55:48.145Z,,,,,,,,,NaN,,,,,,,,high,low,,,,,,FALSE,,,,,FALSE,672775.1,672775,,672774.9,,672775.9,5,600,,,,
sequence,flow.Sequence,10_24,2024-07-08T23:55:48.145Z,,,,,,,,,7451.9,completion,,,,,,,high,low,,,,,,FALSE,,,,,FALSE,672775.2,672775,665306.788,665306.5,665323.1,672775.9,5,600,,,,
trial,html.Screen,10_25_0,2024-07-08T23:55:53.169Z,,1,-0.007397293,-0.017471677,,0.05,FALSE,lh,5022.3,response,-1.021336533,0.884014411,-1.068611378,1.08852436,1.097712791,-1.122485674,low,high,ISIC_0056226.JPG,10,ISIC_5434229.JPG,33,26,FALSE,0.31,hl,keypress(j),0,FALSE,677798.3,677798.2,672773.108,672775.2,672775.9,677817,5,600,26,,,
break,html.Screen,10_25_1,2024-07-08T23:55:53.170Z,,,,,,,,,NaN,,,,,,,,low,high,,,,,,FALSE,,,,,FALSE,677799.8,677799.6,,677798.6,,677817,5,600,,,,
break_continue,html.Screen,10_25_2,2024-07-08T23:55:53.170Z,,,,,,,,,NaN,,,,,,,,low,high,,,,,,FALSE,,,,,FALSE,677800.2,677800,,677799.9,,677817,5,600,,,,
sequence,flow.Sequence,10_25,2024-07-08T23:55:53.170Z,,,,,,,,,5024.1,completion,,,,,,,low,high,,,,,,FALSE,,,,,FALSE,677800.2,677800,672773.108,672775.2,672775.9,677817,5,600,,,,
trial,html.Screen,10_26_0,2024-07-08T23:55:58.822Z,,1,0.009709127,-0.041792132,,0.05,TRUE,ll,5634.2,response,-1.035190057,0.884014411,-1.068611378,-1.060448537,1.097712791,-1.122485674,low,low,ISIC_3967213.JPG,8,ISIC_4377208.JPG,33,27,FALSE,0.1,ll,keypress(f),0,FALSE,683451.5,683451.2,677792.134,677800.3,677817,683456.172,5,600,27,,,
break,html.Screen,10_26_1,2024-07-08T23:55:58.822Z,,,,,,,,,NaN,,,,,,,,low,low,,,,,,FALSE,,,,,FALSE,683452.1,683452,,683451.6,,683456.172,5,600,,,,
break_continue,html.Screen,10_26_2,2024-07-08T23:55:58.823Z,,,,,,,,,NaN,,,,,,,,low,low,,,,,,FALSE,,,,,FALSE,683452.4,683452.4,,683452.2,,683456.172,5,600,,,,
sequence,flow.Sequence,10_26,2024-07-08T23:55:58.823Z,,,,,,,,,5635.4,completion,,,,,,,low,low,,,,,,FALSE,,,,,FALSE,683452.5,683452.4,677792.134,677800.2,677817,683456.172,5,600,,,,
trial,html.Screen,10_27_0,2024-07-08T23:56:01.549Z,,1,-0.03972838,0.022870113,,0.05,TRUE,ll,2722.828,response,-1.067889539,0.884014411,-1.068611378,-1.027975902,1.097712791,-1.122485674,low,low,ISIC_0054073.JPG,9,ISIC_0069933.JPG,33,27,FALSE,0.1,ll,keypress(f),0,FALSE,686179.1,686179,683456.172,683452.5,683456.172,686180.8,5,600,28,,,
break,html.Screen,10_27_1,2024-07-08T23:56:01.550Z,,,,,,,,,NaN,,,,,,,,low,low,,,,,,FALSE,,,,,FALSE,686179.6,686179.5,,686179.2,,686180.8,5,600,,,,
break_continue,html.Screen,10_27_2,2024-07-08T23:56:01.550Z,,,,,,,,,NaN,,,,,,,,low,low,,,,,,FALSE,,,,,FALSE,686179.9,686179.9,,686179.8,,686180.8,5,600,,,,
sequence,flow.Sequence,10_27,2024-07-08T23:56:01.550Z,,,,,,,,,2723.728,completion,,,,,,,low,low,,,,,,FALSE,,,,,FALSE,686180,686179.9,683456.172,683452.5,683456.172,686180.8,5,600,,,,
trial,html.Screen,10_28_0,2024-07-08T23:56:04.618Z,,1,0.040933869,-0.007246271,,0.05,TRUE,ll,3066.5,response,-1.067889539,0.884014411,-1.068611378,-1.027975902,1.097712791,-1.122485674,low,low,ISIC_3608788.JPG,9,ISIC_0069933.JPG,33,27,FALSE,0.1,ll,keypress(f),0,FALSE,689247.5,689247.3,686178.498,686180.1,686180.8,689265.9,5,600,29,,,
break,html.Screen,10_28_1,2024-07-08T23:56:04.619Z,,,,,,,,,NaN,,,,,,,,low,low,,,,,,FALSE,,,,,FALSE,689248.8,689248.7,,689247.6,,689265.9,5,600,,,,
break_continue,html.Screen,10_28_2,2024-07-08T23:56:04.620Z,,,,,,,,,NaN,,,,,,,,low,low,,,,,,FALSE,,,,,FALSE,689249.2,689249.1,,689248.9,,689265.9,5,600,,,,
sequence,flow.Sequence,10_28,2024-07-08T23:56:04.620Z,,,,,,,,,3068.3,completion,,,,,,,low,low,,,,,,FALSE,,,,,FALSE,689249.3,689249.1,686178.498,686180,686180.8,689265.9,5,600,,,,
trial,html.Screen,10_29_0,2024-07-08T23:56:11.171Z,,1,-0.045028243,0,,0.05,TRUE,lh,6534.6,response,-1.016457684,0.884014411,-1.068611378,0.812062654,1.097712791,-1.122485674,low,high,ISIC_1805163.JPG,8,ISIC_6002694.JPG,33,26,FALSE,0.31,lh,keypress(e),0,FALSE,695800.7,695800.5,689259.308,689249.5,689265.9,695819.2,5,600,30,,,
break,html.Screen,10_29_1,2024-07-08T23:56:11.172Z,,,,,,,,,NaN,,,,,,,,low,high,,,,,,FALSE,,,,,FALSE,695801.9,695801.8,,695800.8,,695819.2,5,600,,,,
break_continue,html.Screen,10_29_2,2024-07-08T23:56:11.172Z,,,,,,,,,NaN,,,,,,,,low,high,,,,,,FALSE,,,,,FALSE,695802.1,695802.1,,695801.9,,695819.2,5,600,,,,
sequence,flow.Sequence,10_29,2024-07-08T23:56:11.173Z,,,,,,,,,6536.2,completion,,,,,,,low,high,,,,,,FALSE,,,,,FALSE,695802.2,695802.1,689259.308,689249.4,689265.9,695819.2,5,600,,,,
trial,html.Screen,10_30_0,2024-07-08T23:56:16.254Z,,1,-0.005067913,0.000971487,,0.05,FALSE,hh,5063.6,response,0.982138122,0.884014411,-1.068611378,1.193125485,1.097712791,-1.122485674,high,high,ISIC_9848743.JPG,9,ISIC_4107717.JPG,33,36,FALSE,0.1,hl,keypress(j),0,FALSE,700883.3,700882.8,695800.672,695802.3,695819.2,700902,5,600,31,,,
break,html.Screen,10_30_1,2024-07-08T23:56:16.255Z,,,,,,,,,NaN,,,,,,,,high,high,,,,,,FALSE,,,,,FALSE,700884.8,700884.7,,700883.6,,700902,5,600,,,,
break_continue,html.Screen,10_30_2,2024-07-08T23:56:16.256Z,,,,,,,,,NaN,,,,,,,,high,high,,,,,,FALSE,,,,,FALSE,700885.2,700885.1,,700884.9,,700902,5,600,,,,
sequence,flow.Sequence,10_30,2024-07-08T23:56:16.256Z,,,,,,,,,5065.9,completion,,,,,,,high,high,,,,,,FALSE,,,,,FALSE,700885.4,700885.1,695800.672,695802.3,695819.2,700902,5,600,,,,
trial,html.Screen,10_31_0,2024-07-08T23:56:18.285Z,,1,-0.007072553,-0.004999514,,0.05,TRUE,hh,2012.5,response,0.858690976,0.884014411,-1.068611378,1.089350844,1.097712791,-1.122485674,high,high,ISIC_6124481.JPG,10,ISIC_0003111.JPG,33,36,FALSE,0.1,hh,keypress(i),0,FALSE,702914.6,702914.5,700887.268,700885.5,700902,702941.5,5,600,32,,,
break,html.Screen,10_31_1,2024-07-08T23:56:18.285Z,,,,,,,,,NaN,,,,,,,,high,high,,,,,,FALSE,,,,,FALSE,702915.2,702915,,702914.8,,702941.5,5,600,,,,
break_continue,html.Screen,10_31_2,2024-07-08T23:56:18.286Z,,,,,,,,,NaN,,,,,,,,high,high,,,,,,FALSE,,,,,FALSE,702915.4,702915.4,,702915.2,,702941.5,5,600,,,,
sequence,flow.Sequence,10_31,2024-07-08T23:56:18.286Z,,,,,,,,,2013.4,completion,,,,,,,high,high,,,,,,FALSE,,,,,FALSE,702915.6,702915.4,700887.268,700885.5,700902,702941.5,5,600,,,,
trial,html.Screen,10_32_0,2024-07-08T23:56:23.560Z,,1,-0.005067913,0.000971487,,0.05,FALSE,lh,5247.8,response,-0.772384921,0.884014411,-1.068611378,0.888372424,1.097712791,-1.122485674,low,high,ISIC_9848743.JPG,10,ISIC_3884221.JPG,33,26,FALSE,0.31,ll,keypress(f),0,FALSE,708189.4,708189.3,702927.292,702915.7,702941.5,708208,5,600,33,,,
break,html.Screen,10_32_1,2024-07-08T23:56:23.561Z,,,,,,,,,NaN,,,,,,,,low,high,,,,,,FALSE,,,,,FALSE,708190.7,708190.6,,708189.6,,708208,5,600,,,,
break_continue,html.Screen,10_32_2,2024-07-08T23:56:23.561Z,,,,,,,,,NaN,,,,,,,,low,high,,,,,,FALSE,,,,,FALSE,708191.1,708191,,708190.9,,708208,5,600,,,,
sequence,flow.Sequence,10_32,2024-07-08T23:56:23.561Z,,,,,,,,,5249.5,completion,,,,,,,low,high,,,,,,FALSE,,,,,FALSE,708191.2,708191,702927.292,702915.6,702941.5,708208,5,600,,,,
trial,html.Screen,10_33_0,2024-07-08T23:56:28.997Z,,1,-0.038998803,-0.014321227,,0.05,FALSE,hl,5418.7,response,0.943372063,0.884014411,-1.068611378,-1.058207194,1.097712791,-1.122485674,high,low,ISIC_0064669.JPG,9,ISIC_4890201.JPG,33,29,FALSE,0.2,hh,keypress(i),0,FALSE,713626.8,713626.7,708192.238,708191.2,708208,713645.4,5,600,34,,,
break,html.Screen,10_33_1,2024-07-08T23:56:28.998Z,,,,,,,,,NaN,,,,,,,,high,low,,,,,,FALSE,,,,,FALSE,713628,713627.8,,713626.9,,713645.4,5,600,,,,
break_continue,html.Screen,10_33_2,2024-07-08T23:56:28.999Z,,,,,,,,,NaN,,,,,,,,high,low,,,,,,FALSE,,,,,FALSE,713628.2,713628.1,,713628,,713645.4,5,600,,,,
sequence,flow.Sequence,10_33,2024-07-08T23:56:28.999Z,,,,,,,,,5420.1,completion,,,,,,,high,low,,,,,,FALSE,,,,,FALSE,713628.3,713628.1,708192.238,708191.2,708208,713645.4,5,600,,,,
trial,html.Screen,10_34_0,2024-07-08T23:56:33.245Z,,1,-0.005067913,0.000971487,,0.05,FALSE,lh,4228.8,response,-0.820096201,0.884014411,-1.068611378,0.793605164,1.097712791,-1.122485674,low,high,ISIC_9848743.JPG,9,ISIC_0027031.JPG,33,26,FALSE,0.31,hh,keypress(i),0,FALSE,717874.4,717874.2,713626.372,713628.4,713645.4,717892.9,5,600,35,,,
break,html.Screen,10_34_1,2024-07-08T23:56:33.246Z,,,,,,,,,NaN,,,,,,,,low,high,,,,,,FALSE,,,,,FALSE,717875.9,717875.8,,717874.6,,717892.9,5,600,,,,
break_continue,html.Screen,10_34_2,2024-07-08T23:56:33.246Z,,,,,,,,,NaN,,,,,,,,low,high,,,,,,FALSE,,,,,FALSE,717876.2,717876.1,,717875.9,,717892.9,5,600,,,,
sequence,flow.Sequence,10_34,2024-07-08T23:56:33.247Z,,,,,,,,,4230.7,completion,,,,,,,low,high,,,,,,FALSE,,,,,FALSE,717876.2,717876.1,713626.372,713628.4,713645.4,717892.9,5,600,,,,
trial,html.Screen,10_35_0,2024-07-08T23:56:35.141Z,,1,-0.008552098,0.046469116,,0.05,TRUE,ll,1877.4,response,-1.152619213,0.884014411,-1.068611378,-1.111787684,1.097712791,-1.122485674,low,low,ISIC_0758797.JPG,9,ISIC_0061915.JPG,33,27,FALSE,0.1,ll,keypress(f),0,FALSE,719770.5,719770.3,717878.604,717876.3,717892.9,719788.7,5,600,36,,,
break,html.Screen,10_35_1,2024-07-08T23:56:35.142Z,,,,,,,,,NaN,,,,,,,,low,low,,,,,,FALSE,,,,,FALSE,719771.6,719771.4,,719770.5,,719788.7,5,600,,,,
break_continue,html.Screen,10_35_2,2024-07-08T23:56:35.142Z,,,,,,,,,NaN,,,,,,,,low,low,,,,,,FALSE,,,,,FALSE,719771.7,719771.7,,719771.6,,719788.7,5,600,,,,
sequence,flow.Sequence,10_35,2024-07-08T23:56:35.142Z,,,,,,,,,1878.8,completion,,,,,,,low,low,,,,,,FALSE,,,,,FALSE,719771.7,719771.7,717878.604,717876.2,717892.9,719788.7,5,600,,,,
trial,html.Screen,10_36_0,2024-07-08T23:56:37.194Z,,1,4.79192E-05,0.046265294,,0.05,FALSE,lh,2035,response,-0.787116214,0.884014411,-1.068611378,0.84293298,1.097712791,-1.122485674,low,high,ISIC_0011507.JPG,10,ISIC_3439215.JPG,33,26,FALSE,0.31,hh,keypress(i),0,FALSE,721823.8,721823.7,719783.164,719771.8,719788.7,721842,5,600,37,,,
break,html.Screen,10_36_1,2024-07-08T23:56:37.195Z,,,,,,,,,NaN,,,,,,,,low,high,,,,,,FALSE,,,,,FALSE,721825.1,721825,,721824,,721842,5,600,,,,
break_continue,html.Screen,10_36_2,2024-07-08T23:56:37.196Z,,,,,,,,,NaN,,,,,,,,low,high,,,,,,FALSE,,,,,FALSE,721825.4,721825.2,,721825.2,,721842,5,600,,,,
sequence,flow.Sequence,10_36,2024-07-08T23:56:37.196Z,,,,,,,,,2036.5,completion,,,,,,,low,high,,,,,,FALSE,,,,,FALSE,721825.4,721825.2,719783.164,719771.8,719788.7,721842,5,600,,,,
trial,html.Screen,10_37_0,2024-07-08T23:56:41.662Z,,1,-0.038998803,-0.014321227,,0.05,FALSE,hh,4449.9,response,0.885689918,0.884014411,-1.068611378,1.190313171,1.097712791,-1.122485674,high,high,ISIC_0064669.JPG,9,ISIC_1233104.JPG,33,36,FALSE,0.1,hl,keypress(j),0,FALSE,726292.1,726291.9,721824.092,721825.5,721842,726311.4,5,600,38,,,
break,html.Screen,10_37_1,2024-07-08T23:56:41.663Z,,,,,,,,,NaN,,,,,,,,high,high,,,,,,FALSE,,,,,FALSE,726292.6,726292.5,,726292.2,,726311.4,5,600,,,,
break_continue,html.Screen,10_37_2,2024-07-08T23:56:41.663Z,,,,,,,,,NaN,,,,,,,,high,high,,,,,,FALSE,,,,,FALSE,726293.2,726293.1,,726292.7,,726311.4,5,600,,,,
sequence,flow.Sequence,10_37,2024-07-08T23:56:41.664Z,,,,,,,,,4451.1,completion,,,,,,,high,high,,,,,,FALSE,,,,,FALSE,726293.3,726293.1,721824.092,721825.5,721842,726311.4,5,600,,,,
trial,html.Screen,10_38_0,2024-07-08T23:56:43.592Z,,1,0.027717858,-0.039558746,,0.05,TRUE,hh,1910.5,response,0.787037338,0.884014411,-1.068611378,1.038510428,1.097712791,-1.122485674,high,high,ISIC_0010807.JPG,9,ISIC_0002162.JPG,33,36,FALSE,0.1,hh,keypress(i),0,FALSE,728222,728221.9,726295.56,726294,726311.4,728227.086,5,600,39,,,
break,html.Screen,10_38_1,2024-07-08T23:56:43.594Z,,,,,,,,,NaN,,,,,,,,high,high,,,,,,FALSE,,,,,FALSE,728223.2,728222.7,,728222.3,,728227.086,5,600,,,,
break_continue,html.Screen,10_38_2,2024-07-08T23:56:43.594Z,,,,,,,,,NaN,,,,,,,,high,high,,,,,,FALSE,,,,,FALSE,728223.8,728223.6,,728223.4,,728227.086,5,600,,,,
sequence,flow.Sequence,10_38,2024-07-08T23:56:43.594Z,,,,,,,,,1912.2,completion,,,,,,,high,high,,,,,,FALSE,,,,,FALSE,728223.9,728223.6,726295.56,726294,726311.4,728227.086,5,600,,,,
trial,html.Screen,10_39_0,2024-07-08T23:56:50.197Z,,1,0.010246062,-0.03096706,,0.05,TRUE,lh,6599.414,response,-0.894761108,0.884014411,-1.068611378,0.896096451,1.097712791,-1.122485674,low,high,ISIC_0072041.JPG,9,ISIC_6441128.JPG,33,26,FALSE,0.31,lh,keypress(e),0,FALSE,734826.7,734826.5,728227.086,728224,728227.086,734845.6,5,600,40,,,
break,html.Screen,10_39_1,2024-07-08T23:56:50.198Z,,,,,,,,,NaN,,,,,,,,low,high,,,,,,FALSE,,,,,FALSE,734827.4,734827.2,,734826.9,,734845.6,5,600,,,,
break_continue,html.Screen,10_39_2,2024-07-08T23:56:50.198Z,,,,,,,,,NaN,,,,,,,,low,high,,,,,,FALSE,,,,,FALSE,734827.8,734827.7,,734827.5,,734845.6,5,600,,,,
sequence,flow.Sequence,10_39,2024-07-08T23:56:50.198Z,,,,,,,,,6600.614,completion,,,,,,,low,high,,,,,,FALSE,,,,,FALSE,734827.9,734827.7,728227.086,728224,728227.086,734845.6,5,600,,,,
trial,html.Screen,10_40_0,2024-07-08T23:57:01.027Z,,1,-0.007397293,-0.017471677,,0.05,TRUE,lh,10811.2,response,-1.276222162,0.884014411,-1.068611378,0.965778082,1.097712791,-1.122485674,low,high,ISIC_0056226.JPG,9,ISIC_6710411.JPG,33,26,FALSE,0.31,lh,keypress(e),0,FALSE,745656.9,745656.8,734832.112,734827.9,734845.6,745692,5,600,41,,,
break,html.Screen,10_40_1,2024-07-08T23:57:01.028Z,,,,,,,,,NaN,,,,,,,,low,high,,,,,,FALSE,,,,,FALSE,745658,745657.9,,745656.9,,745692,5,600,,,,
break_continue,html.Screen,10_40_2,2024-07-08T23:57:01.029Z,,,,,,,,,NaN,,,,,,,,low,high,,,,,,FALSE,,,,,FALSE,745658.3,745658.2,,745658.1,,745692,5,600,,,,
sequence,flow.Sequence,10_40,2024-07-08T23:57:01.029Z,,,,,,,,,10812.6,completion,,,,,,,low,high,,,,,,FALSE,,,,,FALSE,745658.5,745658.2,734832.112,734827.9,734845.6,745692,5,600,,,,
trial,html.Screen,10_41_0,2024-07-08T23:57:07.891Z,,1,-0.021769889,0.041087092,,0.05,FALSE,ll,6828.6,response,-1.134621798,0.884014411,-1.068611378,-1.155513217,1.097712791,-1.122485674,low,low,ISIC_0072173.JPG,10,ISIC_0032771.JPG,33,27,FALSE,0.1,hl,keypress(j),0,FALSE,752520.8,752520.6,745650.966,745658.5,745692,752556.6,5,600,42,,,
break,html.Screen,10_41_1,2024-07-08T23:57:07.892Z,,,,,,,,,NaN,,,,,,,,low,low,,,,,,FALSE,,,,,FALSE,752521.3,752521.2,,752520.9,,752556.6,5,600,,,,
break_continue,html.Screen,10_41_2,2024-07-08T23:57:07.892Z,,,,,,,,,NaN,,,,,,,,low,low,,,,,,FALSE,,,,,FALSE,752521.6,752521.5,,752521.4,,752556.6,5,600,,,,
sequence,flow.Sequence,10_41,2024-07-08T23:57:07.892Z,,,,,,,,,6829.5,completion,,,,,,,low,low,,,,,,FALSE,,,,,FALSE,752521.6,752521.5,745650.966,745658.5,745692,752556.6,5,600,,,,
trial,html.Screen,10_42_0,2024-07-08T23:57:18.001Z,,1,0.040933869,-0.007246271,,0.05,FALSE,hl,10074.1,response,0.957920932,0.884014411,-1.068611378,-1.01474871,1.097712791,-1.122485674,high,low,ISIC_3608788.JPG,8,ISIC_8124482.JPG,33,29,FALSE,0.2,lh,keypress(e),0,FALSE,762630.8,762630.7,752518.4,752521.7,752556.6,762670.4,5,600,43,,,
break,html.Screen,10_42_1,2024-07-08T23:57:18.002Z,,,,,,,,,NaN,,,,,,,,high,low,,,,,,FALSE,,,,,FALSE,762631.4,762631.2,,762630.9,,762670.4,5,600,,,,
break_continue,html.Screen,10_42_2,2024-07-08T23:57:18.002Z,,,,,,,,,NaN,,,,,,,,high,low,,,,,,FALSE,,,,,FALSE,762631.5,762631.4,,762631.4,,762670.4,5,600,,,,
sequence,flow.Sequence,10_42,2024-07-08T23:57:18.002Z,,,,,,,,,10074.8,completion,,,,,,,high,low,,,,,,FALSE,,,,,FALSE,762631.5,762631.4,752518.4,752521.7,752556.6,762670.4,5,600,,,,
trial,html.Screen,10_43_0,2024-07-08T23:57:21.024Z,,1,-0.007072553,-0.004999514,,0.05,TRUE,hh,2983,response,0.982138122,0.884014411,-1.068611378,1.193125485,1.097712791,-1.122485674,high,high,ISIC_6124481.JPG,9,ISIC_4107717.JPG,33,36,FALSE,0.1,hh,keypress(i),0,FALSE,765653.7,765653.4,762636.8,762631.6,762670.4,765672.152,5,600,44,,,
break,html.Screen,10_43_1,2024-07-08T23:57:21.025Z,,,,,,,,,NaN,,,,,,,,high,high,,,,,,FALSE,,,,,FALSE,765655,765654.3,,765653.9,,765672.152,5,600,,,,
break_continue,html.Screen,10_43_2,2024-07-08T23:57:21.026Z,,,,,,,,,NaN,,,,,,,,high,high,,,,,,FALSE,,,,,FALSE,765655.5,765655.4,,765655.1,,765672.152,5,600,,,,
sequence,flow.Sequence,10_43,2024-07-08T23:57:21.026Z,,,,,,,,,2985,completion,,,,,,,high,high,,,,,,FALSE,,,,,FALSE,765655.6,765655.4,762636.8,762631.6,762670.4,765672.152,5,600,,,,
trial,html.Screen,10_44_0,2024-07-08T23:57:29.693Z,,1,0.013431314,-0.014059758,,0.05,TRUE,lh,8650.048,response,-0.987379433,0.884014411,-1.068611378,0.799107788,1.097712791,-1.122485674,low,high,ISIC_0069617.JPG,10,ISIC_0013498.JPG,33,26,FALSE,0.31,lh,keypress(e),0,FALSE,774322.3,774322.2,765672.152,765655.7,765672.152,774357.9,5,600,45,,,
break,html.Screen,10_44_1,2024-07-08T23:57:29.694Z,,,,,,,,,NaN,,,,,,,,low,high,,,,,,FALSE,,,,,FALSE,774324,774323.9,,774322.6,,774357.9,5,600,,,,
break_continue,html.Screen,10_44_2,2024-07-08T23:57:29.695Z,,,,,,,,,NaN,,,,,,,,low,high,,,,,,FALSE,,,,,FALSE,774324.4,774324.3,,774324.1,,774357.9,5,600,,,,
sequence,flow.Sequence,10_44,2024-07-08T23:57:29.695Z,,,,,,,,,8652.148,completion,,,,,,,low,high,,,,,,FALSE,,,,,FALSE,774324.5,774324.3,765672.152,765655.6,765672.152,774357.9,5,600,,,,
trial,html.Screen,10_45_0,2024-07-08T23:57:33.945Z,,1,0.013431314,-0.014059758,,0.05,FALSE,ll,4216.9,response,-1.091040409,0.884014411,-1.068611378,-1.119702461,1.097712791,-1.122485674,low,low,ISIC_0069617.JPG,10,ISIC_0067097.JPG,33,27,FALSE,0.1,hl,keypress(j),0,FALSE,778575,778574.8,774323.932,774324.6,774357.9,778609.9,5,600,46,,,
break,html.Screen,10_45_1,2024-07-08T23:57:33.946Z,,,,,,,,,NaN,,,,,,,,low,low,,,,,,FALSE,,,,,FALSE,778575.5,778575.3,,778575,,778609.9,5,600,,,,
break_continue,html.Screen,10_45_2,2024-07-08T23:57:33.946Z,,,,,,,,,NaN,,,,,,,,low,low,,,,,,FALSE,,,,,FALSE,778575.8,778575.7,,778575.5,,778609.9,5,600,,,,
sequence,flow.Sequence,10_45,2024-07-08T23:57:33.946Z,,,,,,,,,4217.8,completion,,,,,,,low,low,,,,,,FALSE,,,,,FALSE,778576,778575.7,774323.932,774324.6,774357.9,778609.9,5,600,,,,
trial,html.Screen,10_46_0,2024-07-08T23:57:39.493Z,,1,0.011387353,0.00549992,,0.05,FALSE,hl,5512.6,response,1.014350968,0.884014411,-1.068611378,-1.31639559,1.097712791,-1.122485674,high,low,ISIC_8812621.JPG,9,ISIC_0062031.JPG,33,29,FALSE,0.2,ll,keypress(f),0,FALSE,784122.7,784122.5,778572.116,778576,778609.9,784141.2,5,600,47,,,
break,html.Screen,10_46_1,2024-07-08T23:57:39.494Z,,,,,,,,,NaN,,,,,,,,high,low,,,,,,FALSE,,,,,FALSE,784123.6,784123.4,,784122.9,,784141.2,5,600,,,,
break_continue,html.Screen,10_46_2,2024-07-08T23:57:39.494Z,,,,,,,,,NaN,,,,,,,,high,low,,,,,,FALSE,,,,,FALSE,784124.2,784124,,784123.7,,784141.2,5,600,,,,
sequence,flow.Sequence,10_46,2024-07-08T23:57:39.495Z,,,,,,,,,5514.1,completion,,,,,,,high,low,,,,,,FALSE,,,,,FALSE,784124.4,784124,778572.116,778576,778609.9,784141.2,5,600,,,,
trial,html.Screen,10_47_0,2024-07-08T23:57:47.263Z,,1,-0.045028243,0,,0.05,FALSE,lh,7751.7,response,-0.803515287,0.884014411,-1.068611378,0.828684503,1.097712791,-1.122485674,low,high,ISIC_1805163.JPG,10,ISIC_0010671.JPG,33,26,FALSE,0.31,ll,keypress(f),0,FALSE,791893.2,791892.9,784126.346,784124.5,784141.2,791928.5,5,600,48,,,
break,html.Screen,10_47_1,2024-07-08T23:57:47.265Z,,,,,,,,,NaN,,,,,,,,low,high,,,,,,FALSE,,,,,FALSE,791894.5,791893.7,,791893.4,,791928.5,5,600,,,,
break_continue,html.Screen,10_47_2,2024-07-08T23:57:47.265Z,,,,,,,,,NaN,,,,,,,,low,high,,,,,,FALSE,,,,,FALSE,791894.8,791894.7,,791894.6,,791928.5,5,600,,,,
sequence,flow.Sequence,10_47,2024-07-08T23:57:47.265Z,,,,,,,,,7753.5,completion,,,,,,,low,high,,,,,,FALSE,,,,,FALSE,791894.8,791894.7,784126.346,784124.5,784141.2,791928.5,5,600,,,,
trial,html.Screen,10_48_0,2024-07-08T23:57:49.374Z,,1,-0.021769889,0.041087092,,0.05,TRUE,hh,2075.5,response,0.830781172,0.884014411,-1.068611378,1.098625259,1.097712791,-1.122485674,high,high,ISIC_0072173.JPG,10,ISIC_8257549.JPG,33,36,FALSE,0.1,hh,keypress(i),0,FALSE,794004.1,794004,791893.234,791894.9,791928.5,794048.4,5,600,49,,,
break,html.Screen,10_48_1,2024-07-08T23:57:49.375Z,,,,,,,,,NaN,,,,,,,,high,high,,,,,,FALSE,,,,,FALSE,794004.5,794004.5,,794004.2,,794048.4,5,600,,,,
break_continue,html.Screen,10_48_2,2024-07-08T23:57:49.375Z,,,,,,,,,NaN,,,,,,,,high,high,,,,,,FALSE,,,,,FALSE,794004.7,794004.7,,794004.6,,794048.4,5,600,,,,
sequence,flow.Sequence,10_48,2024-07-08T23:57:49.375Z,,,,,,,,,2076.2,completion,,,,,,,high,high,,,,,,FALSE,,,,,FALSE,794004.8,794004.7,791893.234,791894.9,791928.5,794048.4,5,600,,,,
trial,html.Screen,10_49_0,2024-07-08T23:57:58.570Z,,1,0,0.026454497,,0.05,FALSE,hh,9151,response,0.885689918,0.884014411,-1.068611378,1.190313171,1.097712791,-1.122485674,high,high,ISIC_0056991.JPG,9,ISIC_1233104.JPG,33,36,FALSE,0.1,hl,keypress(j),0,FALSE,803199.7,803199.4,794015.2,794004.9,794048.4,803230.7,5,600,50,,,
break,html.Screen,10_49_1,2024-07-08T23:57:58.571Z,,,,,,,,,NaN,,,,,,,,high,high,,,,,,FALSE,,,,,FALSE,803200.4,803200.3,,803199.9,,803230.7,5,600,,,,
break_continue,html.Screen,10_49_2,2024-07-08T23:57:58.571Z,,,,,,,,,NaN,,,,,,,,high,high,,,,,,FALSE,,,,,FALSE,803200.9,803200.8,,803200.6,,803230.7,5,600,,,,
sequence,flow.Sequence,10_49,2024-07-08T23:57:58.571Z,,,,,,,,,9152.4,completion,,,,,,,high,high,,,,,,FALSE,,,,,FALSE,803201.1,803200.8,794015.2,794004.8,794048.4,803230.7,5,600,,,,
trial,html.Screen,10_50_0,2024-07-08T23:58:03.711Z,,1,-0.032909551,0.038289975,,0.05,TRUE,hh,5110.3,response,0.787037338,0.884014411,-1.068611378,1.038510428,1.097712791,-1.122485674,high,high,ISIC_8812781.JPG,9,ISIC_0002162.JPG,33,36,FALSE,0.1,hh,keypress(i),0,FALSE,808341.2,808341,803198.648,803201.2,803230.7,808359.8,5,600,51,,,
break,html.Screen,10_50_1,2024-07-08T23:58:03.712Z,,,,,,,,,NaN,,,,,,,,high,high,,,,,,FALSE,,,,,FALSE,808341.8,808341.7,,808341.3,,808359.8,5,600,,,,
break_continue,html.Screen,10_50_2,2024-07-08T23:58:03.712Z,,,,,,,,,NaN,,,,,,,,high,high,,,,,,FALSE,,,,,FALSE,808342,808342,,808341.8,,808359.8,5,600,,,,
sequence,flow.Sequence,10_50,2024-07-08T23:58:03.712Z,,,,,,,,,5111.3,completion,,,,,,,high,high,,,,,,FALSE,,,,,FALSE,808342.2,808342,803198.648,803201.2,803230.7,808359.8,5,600,,,,
trial,html.Screen,10_51_0,2024-07-08T23:58:05.854Z,,1,-0.010785499,-0.047801042,,0.05,TRUE,hh,2123.8,response,0.984005005,0.884014411,-1.068611378,1.160746325,1.097712791,-1.122485674,high,high,ISIC_0010500.JPG,8,ISIC_8651053.JPG,33,36,FALSE,0.1,hh,keypress(i),0,FALSE,810483.8,810483.6,808346.46,808342.2,808359.8,810508.1,5,600,52,,,
break,html.Screen,10_51_1,2024-07-08T23:58:05.855Z,,,,,,,,,NaN,,,,,,,,high,high,,,,,,FALSE,,,,,FALSE,810484.9,810484.7,,810484.1,,810508.1,5,600,,,,
break_continue,html.Screen,10_51_2,2024-07-08T23:58:05.856Z,,,,,,,,,NaN,,,,,,,,high,high,,,,,,FALSE,,,,,FALSE,810485.7,810485.6,,810485.3,,810508.1,5,600,,,,
sequence,flow.Sequence,10_51,2024-07-08T23:58:05.856Z,,,,,,,,,2125.8,completion,,,,,,,high,high,,,,,,FALSE,,,,,FALSE,810486.2,810485.6,808346.46,808342.2,808359.8,810508.1,5,600,,,,
trial,html.Screen,10_52_0,2024-07-08T23:58:12.165Z,,1,0.011387353,0.00549992,,0.05,TRUE,hl,6286.5,response,0.713324303,0.884014411,-1.068611378,-0.957509018,1.097712791,-1.122485674,high,low,ISIC_8812621.JPG,9,ISIC_1369273.JPG,33,29,FALSE,0.2,hl,keypress(j),0,FALSE,816794.8,816794.6,810493.048,810486.3,810508.1,816805.89,5,600,53,,,
break,html.Screen,10_52_1,2024-07-08T23:58:12.166Z,,,,,,,,,NaN,,,,,,,,high,low,,,,,,FALSE,,,,,FALSE,816795.7,816795.4,,816795.1,,816805.89,5,600,,,,
break_continue,html.Screen,10_52_2,2024-07-08T23:58:12.166Z,,,,,,,,,NaN,,,,,,,,high,low,,,,,,FALSE,,,,,FALSE,816796,816795.9,,816795.7,,816805.89,5,600,,,,
sequence,flow.Sequence,10_52,2024-07-08T23:58:12.166Z,,,,,,,,,6287.8,completion,,,,,,,high,low,,,,,,FALSE,,,,,FALSE,816796.1,816795.9,810493.048,810486.3,810508.1,816805.89,5,600,,,,
trial,html.Screen,10_53_0,2024-07-08T23:58:16.545Z,,1,0.027717858,-0.039558746,,0.05,FALSE,lh,4368.61,response,-0.809764442,0.884014411,-1.068611378,1.005337148,1.097712791,-1.122485674,low,high,ISIC_0010807.JPG,9,ISIC_2379379.JPG,33,26,FALSE,0.31,hl,keypress(j),0,FALSE,821174.7,821174.5,816805.89,816796.1,816805.89,821182.6,5,600,54,,,
break,html.Screen,10_53_1,2024-07-08T23:58:16.545Z,,,,,,,,,NaN,,,,,,,,low,high,,,,,,FALSE,,,,,FALSE,821175.3,821175.1,,821174.8,,821182.6,5,600,,,,
break_continue,html.Screen,10_53_2,2024-07-08T23:58:16.546Z,,,,,,,,,NaN,,,,,,,,low,high,,,,,,FALSE,,,,,FALSE,821175.5,821175.4,,821175.3,,821182.6,5,600,,,,
sequence,flow.Sequence,10_53,2024-07-08T23:58:16.546Z,,,,,,,,,4369.51,completion,,,,,,,low,high,,,,,,FALSE,,,,,FALSE,821175.6,821175.4,816805.89,816796.1,816805.89,821182.6,5,600,,,,
trial,html.Screen,10_54_0,2024-07-08T23:58:18.805Z,,1,0.011231072,-0.046904736,,0.05,TRUE,ll,2251.8,response,-1.076226061,0.884014411,-1.068611378,-1.082709424,1.097712791,-1.122485674,low,low,ISIC_0068184.JPG,9,ISIC_0058666.JPG,33,27,FALSE,0.1,ll,keypress(f),0,FALSE,823434.5,823434.4,821166.34,821175.6,821182.6,823447.5,5,600,55,,,
break,html.Screen,10_54_1,2024-07-08T23:58:18.805Z,,,,,,,,,NaN,,,,,,,,low,low,,,,,,FALSE,,,,,FALSE,823435,823434.9,,823434.6,,823447.5,5,600,,,,
break_continue,html.Screen,10_54_2,2024-07-08T23:58:18.805Z,,,,,,,,,NaN,,,,,,,,low,low,,,,,,FALSE,,,,,FALSE,823435.2,823435.2,,823435.1,,823447.5,5,600,,,,
sequence,flow.Sequence,10_54,2024-07-08T23:58:18.805Z,,,,,,,,,2252.6,completion,,,,,,,low,low,,,,,,FALSE,,,,,FALSE,823435.2,823435.2,821166.34,821175.6,821182.6,823447.5,5,600,,,,
trial,html.Screen,10_55_0,2024-07-08T23:58:31.143Z,,1,-0.04565158,0.027356713,,0.05,FALSE,ll,12325.4,response,-1.037767624,0.884014411,-1.068611378,-1.083690647,1.097712791,-1.122485674,low,low,ISIC_0068610.JPG,9,ISIC_0010540.JPG,33,27,FALSE,0.1,hl,keypress(j),0,FALSE,835773.1,835772.9,823432.51,823435.3,823447.5,835787.2,5,600,56,,,
break,html.Screen,10_55_1,2024-07-08T23:58:31.144Z,,,,,,,,,NaN,,,,,,,,low,low,,,,,,FALSE,,,,,FALSE,835773.9,835773.7,,835773.3,,835787.2,5,600,,,,
break_continue,html.Screen,10_55_2,2024-07-08T23:58:31.144Z,,,,,,,,,NaN,,,,,,,,low,low,,,,,,FALSE,,,,,FALSE,835774.3,835774.1,,835774,,835787.2,5,600,,,,
sequence,flow.Sequence,10_55,2024-07-08T23:58:31.145Z,,,,,,,,,12326.6,completion,,,,,,,low,low,,,,,,FALSE,,,,,FALSE,835774.4,835774.1,823432.51,823435.3,823447.5,835787.2,5,600,,,,
trial,html.Screen,10_56_0,2024-07-08T23:58:34.013Z,,1,-0.021769889,0.041087092,,0.05,FALSE,ll,2855.2,response,-1.069816262,0.884014411,-1.068611378,-1.219634567,1.097712791,-1.122485674,low,low,ISIC_0072173.JPG,9,ISIC_0030552.JPG,33,27,FALSE,0.1,hh,keypress(i),0,FALSE,838642.6,838642.4,835772.44,835774.4,835787.2,838651.6,5,600,57,,,
break,html.Screen,10_56_1,2024-07-08T23:58:34.013Z,,,,,,,,,NaN,,,,,,,,low,low,,,,,,FALSE,,,,,FALSE,838643.2,838643,,838642.7,,838651.6,5,600,,,,
break_continue,html.Screen,10_56_2,2024-07-08T23:58:34.014Z,,,,,,,,,NaN,,,,,,,,low,low,,,,,,FALSE,,,,,FALSE,838643.7,838643.5,,838643.3,,838651.6,5,600,,,,
sequence,flow.Sequence,10_56,2024-07-08T23:58:34.014Z,,,,,,,,,2856.3,completion,,,,,,,low,low,,,,,,FALSE,,,,,FALSE,838643.7,838643.5,835772.44,835774.4,835787.2,838651.6,5,600,,,,
trial,html.Screen,10_57_0,2024-07-08T23:58:39.602Z,,1,0,0.026454497,,0.05,TRUE,hl,5580.4,response,0.695673879,0.884014411,-1.068611378,-0.979880302,1.097712791,-1.122485674,high,low,ISIC_0056991.JPG,10,ISIC_0046340.JPG,33,29,FALSE,0.2,hl,keypress(j),0,FALSE,844232.2,844232,838637.12,838643.8,838651.6,844246.9,5,600,58,,,
break,html.Screen,10_57_1,2024-07-08T23:58:39.603Z,,,,,,,,,NaN,,,,,,,,high,low,,,,,,FALSE,,,,,FALSE,844232.8,844232.7,,844232.3,,844246.9,5,600,,,,
break_continue,html.Screen,10_57_2,2024-07-08T23:58:39.603Z,,,,,,,,,NaN,,,,,,,,high,low,,,,,,FALSE,,,,,FALSE,844233.2,844233.1,,844232.9,,844246.9,5,600,,,,
sequence,flow.Sequence,10_57,2024-07-08T23:58:39.604Z,,,,,,,,,5581.5,completion,,,,,,,high,low,,,,,,FALSE,,,,,FALSE,844233.3,844233.1,838637.12,838643.8,838651.6,844246.9,5,600,,,,
trial,html.Screen,10_58_0,2024-07-08T23:58:42.686Z,,1,0.018804747,-0.028834693,,0.05,TRUE,hh,3068.9,response,0.855263904,0.884014411,-1.068611378,1.098231462,1.097712791,-1.122485674,high,high,ISIC_0014157.JPG,10,ISIC_0026278.JPG,33,36,FALSE,0.1,hh,keypress(i),0,FALSE,847315.9,847315.8,844234.71,844233.4,844246.9,847327.7,5,600,59,,,
break,html.Screen,10_58_1,2024-07-08T23:58:42.687Z,,,,,,,,,NaN,,,,,,,,high,high,,,,,,FALSE,,,,,FALSE,847316.5,847316.4,,847316.1,,847327.7,5,600,,,,
break_continue,html.Screen,10_58_2,2024-07-08T23:58:42.687Z,,,,,,,,,NaN,,,,,,,,high,high,,,,,,FALSE,,,,,FALSE,847317,847316.8,,847316.6,,847327.7,5,600,,,,
sequence,flow.Sequence,10_58,2024-07-08T23:58:42.687Z,,,,,,,,,3069.9,completion,,,,,,,high,high,,,,,,FALSE,,,,,FALSE,847317,847316.8,844234.71,844233.4,844246.9,847327.7,5,600,,,,
trial,html.Screen,10_59_0,2024-07-08T23:58:50.522Z,,1,0,0.026454497,,0.05,TRUE,lh,7823.7,response,-0.787023773,0.884014411,-1.068611378,0.917295525,1.097712791,-1.122485674,low,high,ISIC_0056991.JPG,8,ISIC_0057716.JPG,33,26,FALSE,0.31,lh,keypress(e),0,FALSE,855151.5,855151.4,847312.438,847317,847327.7,855155.13,5,600,60,,,
break,html.Screen,10_59_1,2024-07-08T23:58:50.522Z,,,,,,,,,NaN,,,,,,,,low,high,,,,,,FALSE,,,,,FALSE,855152,855151.9,,855151.6,,855155.13,5,600,,,,
break_continue,html.Screen,10_59_2,2024-07-08T23:58:50.522Z,,,,,,,,,NaN,,,,,,,,low,high,,,,,,FALSE,,,,,FALSE,855152.3,855152.2,,855152.1,,855155.13,5,600,,,,
sequence,flow.Sequence,10_59,2024-07-08T23:58:50.523Z,,,,,,,,,7824.5,completion,,,,,,,low,high,,,,,,FALSE,,,,,FALSE,855152.3,855152.2,847312.438,847317,847327.7,855155.13,5,600,,,,
trial,html.Screen,10_60_0,2024-07-08T23:58:56.001Z,,1,0.013476473,0.003349904,,0.05,FALSE,hl,5475.17,response,0.708358821,0.884014411,-1.068611378,-1.149680449,1.097712791,-1.122485674,high,low,ISIC_0009998.JPG,9,ISIC_0047004.JPG,33,29,FALSE,0.2,lh,keypress(e),0,FALSE,860630.4,860630.3,855155.13,855152.4,855155.13,860633.2,5,600,61,,,
break,html.Screen,10_60_1,2024-07-08T23:58:56.001Z,,,,,,,,,NaN,,,,,,,,high,low,,,,,,FALSE,,,,,FALSE,860631,860630.9,,860630.6,,860633.2,5,600,,,,
break_continue,html.Screen,10_60_2,2024-07-08T23:58:56.002Z,,,,,,,,,NaN,,,,,,,,high,low,,,,,,FALSE,,,,,FALSE,860631.4,860631.3,,860631.1,,860633.2,5,600,,,,
sequence,flow.Sequence,10_60,2024-07-08T23:58:56.002Z,,,,,,,,,5476.17,completion,,,,,,,high,low,,,,,,FALSE,,,,,FALSE,860631.6,860631.3,855155.13,855152.3,855155.13,860633.2,5,600,,,,
trial,html.Screen,10_61_0,2024-07-08T23:59:08.619Z,,1,-0.002748341,-0.010099692,,0.05,FALSE,ll,12615.3,response,-1.12542526,0.884014411,-1.068611378,-1.026311678,1.097712791,-1.122485674,low,low,ISIC_7364041.JPG,9,ISIC_0032420.JPG,33,27,FALSE,0.1,lh,keypress(e),0,FALSE,873248.6,873248.5,860619.434,860631.6,860633.2,873256.1,5,600,62,,,
break,html.Screen,10_61_1,2024-07-08T23:59:08.619Z,,,,,,,,,NaN,,,,,,,,low,low,,,,,,FALSE,,,,,FALSE,873249,873248.9,,873248.7,,873256.1,5,600,,,,
break_continue,html.Screen,10_61_2,2024-07-08T23:59:08.619Z,,,,,,,,,NaN,,,,,,,,low,low,,,,,,FALSE,,,,,FALSE,873249.2,873249.1,,873249,,873256.1,5,600,,,,
