sender,sender_type,sender_id,timestamp,meta,,age,blockNo,c1,c2,condition,control_tolerance,correct,correctResponse,duration,ended_on,f1,f1_high,f1_low,f2,f2_high,f2_low,feature_level1,feature_level2,gender,img_left,img_reveal,img_right,n_control_images,n_target_images,practice,range_tolerance,response,response_action,selection_duration,staircase,time_commit,time_end,time_render,time_run,time_show,time_switch,total_blocks,total_trials,trialNo,url
informed_consent,html.Screen,0,2024-03-07T17:09:33.199Z,"{""labjs_version"":""20.2.4"",""labjs_build"":{""flavor"":""development"",""commit"":""f5b4a49f956347addd546a832a3327688c2c0fef""},""location"":""https://labjs.felixhenninger.com/api/labjs_preview/index.html"",""userAgent"":""Mozilla/5.0 (Windows NT 10.0; Win64; x64) AppleWebKit/537.36 (KHTML, like Gecko) Chrome/122.0.0.0 Safari/537.36"",""platform"":""Win32"",""language"":""en-US"",""locale"":""en-US"",""timeZone"":""America/Chicago"",""timezoneOffset"":360,""screen_width"":2560,""screen_height"":1440,""scroll_width"":1265,""scroll_height"":1278,""window_innerWidth"":1265,""window_innerHeight"":1326,""devicePixelRatio"":1}",,,,,,,,,,81813.89999999404,response,,,,,,,,,,,,,,,,,consent,click button,,,82349.29999998212,82339.59999999404,509,639,525.7,82226.626,,,,{}
Demography form,html.Form,1,2024-03-07T17:09:40.007Z,,,19,,,,,,,,6930.273999976154,form submission,,,,,,,,,female,,,,,,,,,,,,89157.09999999404,89156.89999997616,82226.626,82349.5,82226.626,89032.294,,,,
Welcome,html.Screen,2,2024-03-07T17:10:37.693Z,,,,,,,"[""bor"",""col""]",,,,57810.605999976164,response,,,,,,,,,,,,,,,,,continue,click button,,,146843.5,146842.89999997616,89032.294,89157.19999998808,89032.294,146746.2,,,,
demo_instructions,html.Screen,3,2024-03-07T17:10:51.709Z,,,,,,,,,,,14112.999999988067,response,,,,,,,,,,,,,,,,,continue,click button,,,160859.79999998212,160859.19999998808,146729.6,146843.59999999404,146746.2,160757.988,,,,
trial,html.Screen,4_0_0,2024-03-07T17:11:02.500Z,,,,0,-1.1195710731537871,-1.1961732733209125,,,true,hh,10891.911999976146,response,1.1684835186766898,1.2,-1.2,1.2921331918483707,1.2,-1.2,high,high,,ISIC_0067170.JPG,,ISIC_5920470.JPG,,25,true,0.14,hh,keypress(i),100,false,171650.5,171649.89999997616,160757.988,160860,160757.988,171550.4,1,16,1,
sequence,flow.Sequence,4_0,2024-03-07T17:11:02.501Z,,,,,,,,,,,10891.911999976146,completion,,,,,,,high,high,,,,,,,true,,,,,false,171651.19999998808,171649.89999997616,160757.988,160860,160757.988,171550.4,1,16,,
trial,html.Screen,4_1_0,2024-03-07T17:11:08.829Z,,,,0,-1.266079261381142,-1.312161506160336,,,true,hh,6428.100000000006,response,1.274417010249866,1.2,-1.2,1.0725495669014795,1.2,-1.2,high,high,,ISIC_0065449.JPG,,ISIC_8849004.JPG,,25,true,0.14,hh,keypress(i),100,false,177978.89999997616,177978.5,171533.832,171651.39999997616,171550.4,177872.1,1,16,2,
sequence,flow.Sequence,4_1,2024-03-07T17:11:08.829Z,,,,,,,,,,,6428.100000000006,completion,,,,,,,high,high,,,,,,,true,,,,,false,177979.69999998808,177978.5,171533.832,171651.39999997616,171550.4,177872.1,1,16,,
trial,html.Screen,4_2_0,2024-03-07T17:11:14.806Z,,,,0,-1.2118207001489876,-1.3164676315545727,,,true,hh,6084.499999994034,response,1.274417010249866,1.2,-1.2,1.0725495669014795,1.2,-1.2,high,high,,ISIC_0066476.JPG,,ISIC_8849004.JPG,,25,true,0.14,hh,keypress(i),100,false,183957.09999999404,183956.59999999404,177855.732,177979.89999997616,177872.1,183860.3,1,16,3,
sequence,flow.Sequence,4_2,2024-03-07T17:11:14.807Z,,,,,,,,,,,6084.499999994034,completion,,,,,,,high,high,,,,,,,true,,,,,false,183957.79999998212,183956.59999999404,177855.732,177979.89999997616,177872.1,183860.3,1,16,,
trial,html.Screen,4_3_0,2024-03-07T17:11:17.854Z,,,,0,-1.1048559518249943,-1.2252457981338687,,,true,hh,3144.7000000000116,response,1.0659165756604234,1.2,-1.2,1.0867497316848906,1.2,-1.2,high,high,,ISIC_0060817.JPG,,ISIC_5807608.JPG,,25,true,0.14,hh,keypress(i),100,false,187005.19999998808,187005,183843.9,183958.09999999404,183860.3,186913.1,1,16,4,
sequence,flow.Sequence,4_3,2024-03-07T17:11:17.855Z,,,,,,,,,,,3144.7000000000116,completion,,,,,,,high,high,,,,,,,true,,,,,false,187005.39999997616,187005,183843.9,183958,183860.3,186913.1,1,16,,
trial,html.Screen,4_4_0,2024-03-07T17:11:40.867Z,,,,0,1.3379750533585932,1.1671342614509763,,,true,ll,23104.299999976152,response,-1.1117876838408909,1.2,-1.2,-1.2957497771092716,1.2,-1.2,low,low,,ISIC_0063556.JPG,,ISIC_0061915.JPG,,30,true,0.13,ll,keypress(f),100,false,210017.69999998808,210017.39999997616,186896.4,187005.39999997616,186913.1,209915.4,1,16,5,
sequence,flow.Sequence,4_4,2024-03-07T17:11:40.867Z,,,,,,,,,,,23104.299999976152,completion,,,,,,,low,low,,,,,,,true,,,,,false,210018.09999999404,210017.39999997616,186896.4,187005.39999997616,186913.1,209915.4,1,16,,
trial,html.Screen,4_5_0,2024-03-07T17:11:44.443Z,,,,0,1.1684835186766898,1.2921331918483707,,,true,ll,3677.8999999821244,response,-1.0653732408486678,1.2,-1.2,-1.089675540151582,1.2,-1.2,low,low,,ISIC_5920470.JPG,,ISIC_0058315.JPG,,40,true,0.14,ll,keypress(f),100,false,213593.59999999404,213593.29999998212,209898.766,210018.19999998808,209915.4,213501.5,1,16,6,
sequence,flow.Sequence,4_5,2024-03-07T17:11:44.443Z,,,,,,,,,,,3677.8999999821244,completion,,,,,,,low,low,,,,,,,true,,,,,false,213594.19999998808,213593.29999998212,209898.766,210018.19999998808,209915.4,213501.5,1,16,,
trial,html.Screen,4_6_0,2024-03-07T17:11:59.491Z,,,,0,1.2219550761700546,1.2809901875733454,,,true,ll,15140,response,-1.0650939066726144,1.2,-1.2,-1.315677757912145,1.2,-1.2,low,low,,ISIC_6463417.JPG,,ISIC_0070163.JPG,,40,true,0.14,ll,keypress(f),100,false,228641.5,228641.5,213485.1,213594.5,213501.5,228547,1,16,7,
sequence,flow.Sequence,4_6,2024-03-07T17:11:59.491Z,,,,,,,,,,,15140,completion,,,,,,,low,low,,,,,,,true,,,,,false,228641.69999998808,228641.5,213485.1,213594.39999997616,213501.5,228547,1,16,,
trial,html.Screen,4_7_0,2024-03-07T17:12:03.592Z,,,,0,1.274752206258116,1.2988509166163749,,,true,ll,4195.199999988079,response,-1.2014901828022857,1.2,-1.2,-1.1484096197304636,1.2,-1.2,low,low,,ISIC_6704623.JPG,,ISIC_0067808.JPG,,40,true,0.14,ll,keypress(f),100,false,232742.59999999404,232742.19999998808,228530.4,228641.69999998808,228547,232650.5,1,16,8,
sequence,flow.Sequence,4_7,2024-03-07T17:12:03.593Z,,,,,,,,,,,4195.199999988079,completion,,,,,,,low,low,,,,,,,true,,,,,false,232743.29999998212,232742.19999998808,228530.4,228641.69999998808,228547,232650.5,1,16,,
trial,html.Screen,4_8_0,2024-03-07T17:12:17.751Z,,,,0,0.7882758084023446,-0.8296405881378283,,,true,lh,14250.59999999404,response,-0.8987343013179191,1.2,-1.2,0.8149073454566363,1.2,-1.2,low,high,,ISIC_0065882.JPG,,ISIC_0472513.JPG,,27,true,0.40000000000000024,lh,keypress(e),100,false,246901.5,246901.09999999404,232634.132,232743.59999999404,232650.5,246795.83,1,16,9,
sequence,flow.Sequence,4_8,2024-03-07T17:12:17.752Z,,,,,,,,,,,14250.59999999404,completion,,,,,,,low,high,,,,,,,true,,,,,false,246902.19999998808,246901.09999999404,232634.132,232743.59999999404,232650.5,246795.83,1,16,,
trial,html.Screen,4_9_0,2024-03-07T17:12:27.629Z,,,,0,0.8110121381849364,-0.7563142141851558,,,true,lh,9982.969999982131,response,-0.7714570894008278,1.2,-1.2,0.9113656554657036,1.2,-1.2,low,high,,ISIC_0033605.JPG,,ISIC_4529092.JPG,,40,true,0.4500000000000003,lh,keypress(e),100,false,256779.29999998212,256778.79999998212,246795.83,246902.69999998808,246795.83,256687.3,1,16,10,
sequence,flow.Sequence,4_9,2024-03-07T17:12:27.630Z,,,,,,,,,,,9982.969999982131,completion,,,,,,,low,high,,,,,,,true,,,,,false,256780.09999999404,256778.79999998212,246795.83,246902.5,246795.83,256687.3,1,16,,
trial,html.Screen,4_10_0,2024-03-07T17:12:32.785Z,,,,0,1.3046390428588206,-0.7942099232219556,,,true,lh,5247.899999988091,response,-0.7688509750532941,1.2,-1.2,0.7699842387811451,1.2,-1.2,low,high,,ISIC_0013096.JPG,,ISIC_0014527.JPG,,40,true,0.4500000000000003,lh,keypress(e),100,false,261935.5,261935.19999998808,256670.666,256780.69999998808,256687.3,261841.5,1,16,11,
sequence,flow.Sequence,4_10,2024-03-07T17:12:32.786Z,,,,,,,,,,,5247.899999988091,completion,,,,,,,low,high,,,,,,,true,,,,,false,261935.89999997616,261935.19999998808,256670.666,256780.5,256687.3,261841.5,1,16,,
trial,html.Screen,4_11_0,2024-03-07T17:12:38.259Z,,,,0,1.058275612142778,-0.7824898568540655,,,true,lh,5567.399999976158,response,-0.90812608370647,1.2,-1.2,1.2720026872926935,1.2,-1.2,low,high,,ISIC_4906385.JPG,,ISIC_0450295.JPG,,40,true,0.4500000000000003,lh,keypress(e),100,false,267409.39999997616,267408.89999997616,261824.966,261936.19999998808,261841.5,267312.8,1,16,12,
sequence,flow.Sequence,4_11,2024-03-07T17:12:38.260Z,,,,,,,,,,,5567.399999976158,completion,,,,,,,low,high,,,,,,,true,,,,,false,267410,267408.89999997616,261824.966,261936.09999999404,261841.5,267312.8,1,16,,
trial,html.Screen,4_12_0,2024-03-07T17:13:06.841Z,,,,0,-0.8443403196524287,0.8858525429102605,,,true,hl,28678.29999999405,response,0.9754077946987664,1.2,-1.2,-1.1821868813141057,1.2,-1.2,high,low,,ISIC_8777813.JPG,,ISIC_0024317.JPG,,26,true,0.4500000000000003,hl,keypress(j),100,false,295991.6999999881,295991.09999999404,267296.132,267410.1999999881,267312.8,295886.364,1,16,13,
sequence,flow.Sequence,4_12,2024-03-07T17:13:06.842Z,,,,,,,,,,,28678.29999999405,completion,,,,,,,high,low,,,,,,,true,,,,,false,295992.59999999404,295991.09999999404,267296.132,267410.1999999881,267312.8,295886.364,1,16,,
trial,html.Screen,4_13_0,2024-03-07T17:13:18.710Z,,,,0,-0.8047295996345292,1.551750455622795,,,true,hl,11973.135999999999,response,0.8830264383952469,1.2,-1.2,-0.8635562538060516,1.2,-1.2,high,low,,ISIC_7717907.JPG,,ISIC_0032258.JPG,,26,true,0.4500000000000003,hl,keypress(j),100,false,307859.89999997616,307859.5,295886.364,295992.89999997616,295886.364,307762.6,1,16,14,
sequence,flow.Sequence,4_13,2024-03-07T17:13:18.710Z,,,,,,,,,,,11973.135999999999,completion,,,,,,,high,low,,,,,,,true,,,,,false,307860.5,307859.5,295886.364,295992.89999997616,295886.364,307762.6,1,16,,
trial,html.Screen,4_14_0,2024-03-07T17:13:32.893Z,,,,0,-0.9089402323867112,0.8034544077281132,,,true,hl,14279.799999976181,response,0.8719231363109603,1.2,-1.2,-0.7704280220140033,1.2,-1.2,high,low,,ISIC_3585381.JPG,,ISIC_0029453.JPG,,26,true,0.4500000000000003,hl,keypress(j),100,false,322042.7999999821,322042.39999997616,307745.898,307860.6999999881,307762.6,321941.198,1,16,15,
sequence,flow.Sequence,4_14,2024-03-07T17:13:32.893Z,,,,,,,,,,,14279.799999976181,completion,,,,,,,high,low,,,,,,,true,,,,,false,322043.5,322042.39999997616,307745.898,307860.6999999881,307762.6,321941.198,1,16,,
trial,html.Screen,4_15_0,2024-03-07T17:13:38.839Z,,,,0,-1.2594580992890123,0.8833175387485132,,,true,hl,6048.001999988104,response,1.0453124399868816,1.2,-1.2,-0.8986747280184286,1.2,-1.2,high,low,,ISIC_0011933.JPG,,ISIC_0013967.JPG,,26,true,0.4500000000000003,hl,keypress(j),100,false,327989.5,327989.1999999881,321941.198,322043.7999999821,321941.198,327896,1,16,16,
sequence,flow.Sequence,4_15,2024-03-07T17:13:38.840Z,,,,,,,,,,,6048.001999988104,completion,,,,,,,high,low,,,,,,,true,,,,,false,327990.1999999881,327989.1999999881,321941.198,322043.7999999821,321941.198,327896,1,16,,
demonstration_loop,flow.Loop,4,2024-03-07T17:13:38.840Z,,,,,,,,,,,167231.21199998807,completion,,,,,,,,,,,,,,,true,,,,,false,327990.59999999404,327989.1999999881,160757.988,160860,160757.988,327896,1,16,,
practice_instructions,html.Screen,5,2024-03-07T17:14:00.278Z,,,,,,,,,,,21523.399999976158,response,,,,,,,,,,,,,,,,,continue,click button,,,349428,349419.39999997616,327879.398,327990.7999999821,327896,349330.398,,,,
trial,html.Screen,6_0_0,2024-03-07T17:14:10.423Z,,,,1,-0.9662688541319592,0.929746784178986,,,true,hl,10235.401999982132,response,1.0369885917487718,1.2,-1.2,-0.8486937878412699,1.2,-1.2,high,low,,ISIC_0011077.JPG,,ISIC_6917681.JPG,,26,true,0.4500000000000003,hl,keypress(j),0,false,359572.6999999881,359565.7999999821,349330.398,349428.09999999404,349330.398,359472,1,40,1,
sequence,flow.Sequence,6_0,2024-03-07T17:14:10.423Z,,,,,,,,,,,10235.401999982132,completion,,,,,,,high,low,,,,,,,true,,,,,false,359572.89999997616,359565.7999999821,349330.398,349428.09999999404,349330.398,359472,1,40,,
trial,html.Screen,6_1_0,2024-03-07T17:14:17.944Z,,,,1,0.8926515927689261,-0.7935960767768927,,,true,lh,7621.899999976158,response,-1.2594580992890123,1.2,-1.2,0.8833175387485132,1.2,-1.2,low,high,,ISIC_8901371.JPG,,ISIC_0011933.JPG,,27,true,0.40000000000000024,lh,keypress(e),0,false,367094.2999999821,367093.89999997616,359464.102,359572.89999997616,359472,366994.7,1,40,2,
sequence,flow.Sequence,6_1,2024-03-07T17:14:17.945Z,,,,,,,,,,,7621.899999976158,completion,,,,,,,low,high,,,,,,,true,,,,,false,367094.89999997616,367093.89999997616,359464.102,359572.89999997616,359472,366994.7,1,40,,
trial,html.Screen,6_2_0,2024-03-07T17:14:33.670Z,,,,1,1.075512775389519,-1.0454702683049502,,,true,lh,15825.199999976147,response,-0.9662688541319592,1.2,-1.2,0.929746784178986,1.2,-1.2,low,high,,ISIC_0033603.JPG,,ISIC_0011077.JPG,,40,true,0.4500000000000003,lh,keypress(e),0,false,382820.09999999404,382819.89999997616,366989.306,367095.2999999821,366994.7,382707.5,1,40,3,
sequence,flow.Sequence,6_2,2024-03-07T17:14:33.670Z,,,,,,,,,,,15825.199999976147,completion,,,,,,,low,high,,,,,,,true,,,,,false,382820.2999999821,382819.89999997616,366989.306,367095.1999999881,366994.7,382707.5,1,40,,
trial,html.Screen,6_3_0,2024-03-07T17:14:45.080Z,,,,1,1.2246024683501224,1.2904526351590244,,,false,ll,11521.899999976158,response,-1.1209497725708388,1.2,-1.2,-0.9895687497294692,1.2,-1.2,low,low,,ISIC_4730066.JPG,,ISIC_0027751.JPG,,359,true,0.4500000000000003,lh,keypress(e),0,false,394229.7999999821,394229.39999997616,382695.212,382820.5,382707.5,394117.1,1,40,4,
sequence,flow.Sequence,6_3,2024-03-07T17:14:45.081Z,,,,,,,,,,,11521.899999976158,completion,,,,,,,low,low,,,,,,,true,,,,,false,394230.59999999404,394229.39999997616,382695.212,382820.5,382707.5,394117.1,1,40,,
trial,html.Screen,6_4_0,2024-03-07T17:14:51.576Z,,,,1,-1.1668613502915044,-1.327068780840367,,,true,hh,6608.299999976181,response,1.274752206258116,1.2,-1.2,1.2988509166163749,1.2,-1.2,high,high,,ISIC_0054459.JPG,,ISIC_6704623.JPG,,25,true,0.14,hh,keypress(i),0,false,400725.7999999821,400725.39999997616,394108.084,394230.7999999821,394117.1,400634.446,1,40,5,
sequence,flow.Sequence,6_4,2024-03-07T17:14:51.576Z,,,,,,,,,,,6608.299999976181,completion,,,,,,,high,high,,,,,,,true,,,,,false,400726.39999997616,400725.39999997616,394108.084,394230.7999999821,394117.1,400634.446,1,40,,
trial,html.Screen,6_5_0,2024-03-07T17:15:06.313Z,,,,1,-0.8067116931297591,1.215898074058027,,,true,hl,14828.054000000004,response,1.0369885917487718,1.2,-1.2,-0.8486937878412699,1.2,-1.2,high,low,,ISIC_1457687.JPG,,ISIC_6917681.JPG,,26,true,0.4500000000000003,hl,keypress(j),0,false,415463,415462.5,400634.446,400726.6999999881,400634.446,415351.3,1,40,6,
sequence,flow.Sequence,6_5,2024-03-07T17:15:06.314Z,,,,,,,,,,,14828.054000000004,completion,,,,,,,high,low,,,,,,,true,,,,,false,415463.6999999881,415462.5,400634.446,400726.59999999404,400634.446,415351.3,1,40,,
trial,html.Screen,6_6_0,2024-03-07T17:15:19.257Z,,,,1,1.151139267005652,1.0838749490501327,,,true,ll,13054.89999998809,response,-1.0581711446393522,1.2,-1.2,-1.1376053597134304,1.2,-1.2,low,low,,ISIC_0002566.JPG,,ISIC_0014987.JPG,,288,true,0.40000000000000024,ll,keypress(f),0,false,428406.5,428406.1999999881,415339.152,415464,415351.3,428295.3,1,40,7,
sequence,flow.Sequence,6_6,2024-03-07T17:15:19.257Z,,,,,,,,,,,13054.89999998809,completion,,,,,,,low,low,,,,,,,true,,,,,false,428407.09999999404,428406.1999999881,415339.152,415463.89999997616,415351.3,428295.3,1,40,,
trial,html.Screen,6_7_0,2024-03-07T17:15:30.728Z,,,,1,-1.1048559518249943,-1.2252457981338687,,,true,hh,11582.59999997617,response,1.109799097093339,1.2,-1.2,1.091507924157762,1.2,-1.2,high,high,,ISIC_0060817.JPG,,ISIC_0765584.JPG,,25,true,0.14,hh,keypress(i),0,false,439878.2999999821,439877.89999997616,428285.056,428407.39999997616,428295.3,439771.4,1,40,8,
sequence,flow.Sequence,6_7,2024-03-07T17:15:30.729Z,,,,,,,,,,,11582.59999997617,completion,,,,,,,high,high,,,,,,,true,,,,,false,439878.89999997616,439877.89999997616,428285.056,428407.2999999821,428295.3,439771.4,1,40,,
trial,html.Screen,6_8_0,2024-03-07T17:15:36.824Z,,,,1,-1.136677654701082,-1.2647850993872314,,,true,hh,6201.499999976135,response,1.2724293858920366,1.2,-1.2,1.149360738769835,1.2,-1.2,high,high,,ISIC_0015436.JPG,,ISIC_1264725.JPG,,25,true,0.14,hh,keypress(i),0,false,445973.2999999821,445972.89999997616,439762.448,439879.09999999404,439771.4,445859.8,1,40,9,
sequence,flow.Sequence,6_8,2024-03-07T17:15:36.824Z,,,,,,,,,,,6201.499999976135,completion,,,,,,,high,high,,,,,,,true,,,,,false,445973.89999997616,445972.89999997616,439762.448,439879,439771.4,445859.8,1,40,,
trial,html.Screen,6_9_0,2024-03-07T17:15:40.424Z,,,,1,-1.1243896694621007,-1.1772340944704969,,,true,hh,3713.59999997617,response,1.160746324899676,1.2,-1.2,1.1927876559115576,1.2,-1.2,high,high,,ISIC_0062765.JPG,,ISIC_8651053.JPG,,25,true,0.14,hh,keypress(i),0,false,449573.7999999821,449573.39999997616,445855.53,445974,445859.8,449462.8,1,40,10,
sequence,flow.Sequence,6_9,2024-03-07T17:15:40.424Z,,,,,,,,,,,3713.59999997617,completion,,,,,,,high,high,,,,,,,true,,,,,false,449574.2999999821,449573.39999997616,445855.53,445974,445859.8,449462.8,1,40,,
trial,html.Screen,6_10_0,2024-03-07T17:15:49.064Z,,,,1,1.2100527057059796,1.2159112471537263,,,true,ll,8750.99999998213,response,-1.2194553326562725,1.2,-1.2,-1.2381726989215684,1.2,-1.2,low,low,,ISIC_0008055.JPG,,ISIC_0068975.JPG,,30,true,0.13,ll,keypress(f),0,false,458214.1999999881,458213.7999999821,449446.3,449574.59999999404,449462.8,458119.9,1,40,11,
sequence,flow.Sequence,6_10,2024-03-07T17:15:49.065Z,,,,,,,,,,,8750.99999998213,completion,,,,,,,low,low,,,,,,,true,,,,,false,458214.6999999881,458213.7999999821,449446.3,449574.5,449462.8,458119.9,1,40,,
trial,html.Screen,6_11_0,2024-03-07T17:16:01.896Z,,,,1,1.199471562817528,-0.8631260534979347,,,true,lh,12925.799999988056,response,-0.8987343013179191,1.2,-1.2,0.8149073454566363,1.2,-1.2,low,high,,ISIC_0030754.JPG,,ISIC_0472513.JPG,,27,true,0.40000000000000024,lh,keypress(e),0,false,471046.1999999881,471045.6999999881,458113.594,458214.89999997616,458119.9,470930.4,1,40,12,
sequence,flow.Sequence,6_11,2024-03-07T17:16:01.897Z,,,,,,,,,,,12925.799999988056,completion,,,,,,,low,high,,,,,,,true,,,,,false,471046.6999999881,471045.6999999881,458113.594,458214.7999999821,458119.9,470930.4,1,40,,
trial,html.Screen,6_12_0,2024-03-07T17:16:10.118Z,,,,1,1.1843968275545205,1.2828739728067764,,,true,ll,8337.099999999977,response,-0.8639942067158306,1.2,-1.2,-1.3205177056314232,1.2,-1.2,low,low,,ISIC_0002901.JPG,,ISIC_0032718.JPG,,359,true,0.4500000000000003,ll,keypress(f),0,false,479267.6999999881,479267.5,470920.528,471047,470930.4,479170.6,1,40,13,
sequence,flow.Sequence,6_12,2024-03-07T17:16:10.118Z,,,,,,,,,,,8337.099999999977,completion,,,,,,,low,low,,,,,,,true,,,,,false,479267.7999999821,479267.5,470920.528,471046.89999997616,470930.4,479170.6,1,40,,
trial,html.Screen,6_13_0,2024-03-07T17:16:22.998Z,,,,1,0.9653573371180936,-0.854766800381037,,,true,lh,12976.699999982142,response,-0.8047295996345292,1.2,-1.2,1.551750455622795,1.2,-1.2,low,high,,ISIC_9640145.JPG,,ISIC_7717907.JPG,,27,true,0.40000000000000024,lh,keypress(e),0,false,492147.39999997616,492147.2999999821,479164.544,479267.89999997616,479170.6,492031.2,1,40,14,
sequence,flow.Sequence,6_13,2024-03-07T17:16:22.998Z,,,,,,,,,,,12976.699999982142,completion,,,,,,,low,high,,,,,,,true,,,,,false,492147.59999999404,492147.2999999821,479164.544,479267.89999997616,479170.6,492031.2,1,40,,
trial,html.Screen,6_14_0,2024-03-07T17:16:27.592Z,,,,1,1.274417010249866,1.0725495669014795,,,true,ll,4710.1999999761465,response,-0.8113337394398422,1.2,-1.2,-1.5899746655678546,1.2,-1.2,low,low,,ISIC_8849004.JPG,,ISIC_4187485.JPG,,359,true,0.4500000000000003,ll,keypress(f),0,false,496741.6999999881,496741.39999997616,492021.126,492147.59999999404,492031.2,496635,1,40,15,
sequence,flow.Sequence,6_14,2024-03-07T17:16:27.593Z,,,,,,,,,,,4710.1999999761465,completion,,,,,,,low,low,,,,,,,true,,,,,false,496742.1999999881,496741.39999997616,492021.126,492147.59999999404,492031.2,496635,1,40,,
trial,html.Screen,6_15_0,2024-03-07T17:16:43.588Z,,,,1,-1.268445326285509,-1.173734476257662,,,,,16013.099999999977,timeout,1.109799097093339,1.2,-1.2,1.091507924157762,1.2,-1.2,high,high,,ISIC_5216586.JPG,,ISIC_0765584.JPG,,25,true,0.14,,,0,false,512737.59999999404,512737.5,496618.4,496742.59999999404,496635,512648.1,1,40,16,
sequence,flow.Sequence,6_15,2024-03-07T17:16:43.588Z,,,,,,,,,,,16102.5,completion,,,,,,,high,high,,,,,,,true,,,,,false,512737.6999999881,512737.5,496618.4,496742.5,496635,512648.1,1,40,,
trial,html.Screen,6_16_0,2024-03-07T17:16:51.000Z,,,,1,-0.90812608370647,1.2720026872926935,,,true,hl,7501.699999982142,response,1.058275612142778,1.2,-1.2,-0.7824898568540655,1.2,-1.2,high,low,,ISIC_0450295.JPG,,ISIC_4906385.JPG,,26,true,0.4500000000000003,hl,keypress(j),0,false,520150.09999999404,520149.7999999821,512631.5,512737.7999999821,512648.1,520037.6,1,40,17,
sequence,flow.Sequence,6_16,2024-03-07T17:16:51.001Z,,,,,,,,,,,7501.699999982142,completion,,,,,,,high,low,,,,,,,true,,,,,false,520150.6999999881,520149.7999999821,512631.5,512737.7999999821,512648.1,520037.6,1,40,,
trial,html.Screen,6_17_0,2024-03-07T17:16:54.904Z,,,,1,-1.2194553326562725,-1.2381726989215684,,,true,hh,4015.4000000000233,response,0.8618587928964498,1.2,-1.2,0.9138141165916164,1.2,-1.2,high,high,,ISIC_0068975.JPG,,ISIC_0004564.JPG,,203,true,0.40000000000000024,hh,keypress(i),0,false,524053.39999997616,524053,520032.278,520150.89999997616,520037.6,523940.8,1,40,18,
sequence,flow.Sequence,6_17,2024-03-07T17:16:54.904Z,,,,,,,,,,,4015.4000000000233,completion,,,,,,,high,high,,,,,,,true,,,,,false,524054.09999999404,524053,520032.278,520150.89999997616,520037.6,523940.8,1,40,,
trial,html.Screen,6_18_0,2024-03-07T17:17:04.581Z,,,,1,-1.1195710731537871,-1.1961732733209125,,,true,hh,9789.89999998809,response,1.2804054832904397,1.2,-1.2,1.171271535505083,1.2,-1.2,high,high,,ISIC_0067170.JPG,,ISIC_7889838.JPG,,25,true,0.14,hh,keypress(i),0,false,533730.8999999762,533730.6999999881,523924.4,524054.2999999821,523940.8,533615.3,1,40,19,
sequence,flow.Sequence,6_18,2024-03-07T17:17:04.581Z,,,,,,,,,,,9789.89999998809,completion,,,,,,,high,high,,,,,,,true,,,,,false,533730.8999999762,533730.6999999881,523924.4,524054.2999999821,523940.8,533615.3,1,40,,
trial,html.Screen,6_19_0,2024-03-07T17:17:09.541Z,,,,1,-0.8067116931297591,1.215898074058027,,,false,hl,5075.499999982072,response,1.3046390428588206,1.2,-1.2,-0.7942099232219556,1.2,-1.2,high,low,,ISIC_1457687.JPG,,ISIC_0013096.JPG,,26,true,0.4500000000000003,hh,keypress(i),0,false,538691,538690.7999999821,533608.02,533731,533615.3,538586.8,1,40,20,
sequence,flow.Sequence,6_19,2024-03-07T17:17:09.541Z,,,,,,,,,,,5075.499999982072,completion,,,,,,,high,low,,,,,,,true,,,,,false,538691,538690.7999999821,533608.02,533731,533615.3,538586.8,1,40,,
trial,html.Screen,6_20_0,2024-03-07T17:17:13.240Z,,,,1,-1.045301444872812,1.0872560254441277,,,true,hl,3802.1999999999534,response,0.9754077946987664,1.2,-1.2,-1.1821868813141057,1.2,-1.2,high,low,,ISIC_4507700.JPG,,ISIC_0024317.JPG,,26,true,0.4500000000000003,hl,keypress(j),0,false,542389.3999999762,542389,538566.142,538691.099999994,538586.8,542289.3,1,40,21,
sequence,flow.Sequence,6_20,2024-03-07T17:17:13.240Z,,,,,,,,,,,3802.1999999999534,completion,,,,,,,high,low,,,,,,,true,,,,,false,542389.7999999821,542389,538566.142,538691,538586.8,542289.3,1,40,,
trial,html.Screen,6_21_0,2024-03-07T17:17:20.808Z,,,,1,0.8926515927689261,-0.7935960767768927,,,true,lh,7668.299999993993,response,-1.0116417541846066,1.2,-1.2,1.033442916947398,1.2,-1.2,low,high,,ISIC_8901371.JPG,,ISIC_0031389.JPG,,27,true,0.40000000000000024,lh,keypress(e),0,false,549958,549957.599999994,542286.652,542390.099999994,542289.3,549845.6,1,40,22,
sequence,flow.Sequence,6_21,2024-03-07T17:17:20.809Z,,,,,,,,,,,7668.299999993993,completion,,,,,,,low,high,,,,,,,true,,,,,false,549958.5,549957.599999994,542286.652,542390,542289.3,549845.6,1,40,,
trial,html.Screen,6_22_0,2024-03-07T17:17:28.008Z,,,,1,1.274417010249866,1.0725495669014795,,,true,ll,7311.699999982142,response,-0.7707298150258685,1.2,-1.2,-1.010460601525102,1.2,-1.2,low,low,,ISIC_8849004.JPG,,ISIC_0010746.JPG,,359,true,0.4500000000000003,ll,keypress(f),0,false,557157.6999999881,557157.2999999821,549839.938,549958.7999999821,549845.6,557063.218,1,40,23,
sequence,flow.Sequence,6_22,2024-03-07T17:17:28.009Z,,,,,,,,,,,7311.699999982142,completion,,,,,,,low,low,,,,,,,true,,,,,false,557158.2999999821,557157.2999999821,549839.938,549958.6999999881,549845.6,557063.218,1,40,,
trial,html.Screen,6_23_0,2024-03-07T17:17:38.697Z,,,,1,-1.0153439398566937,0.93001438372942,,,true,hl,10782.481999988086,response,1.058275612142778,1.2,-1.2,-0.7824898568540655,1.2,-1.2,high,low,,ISIC_8211214.JPG,,ISIC_4906385.JPG,,26,true,0.4500000000000003,hl,keypress(j),0,false,567846.099999994,567845.6999999881,557063.218,557158.599999994,557063.218,567735.68,1,40,24,
sequence,flow.Sequence,6_23,2024-03-07T17:17:38.697Z,,,,,,,,,,,10782.481999988086,completion,,,,,,,high,low,,,,,,,true,,,,,false,567846.6999999881,567845.6999999881,557063.218,557158.5,557063.218,567735.68,1,40,,
trial,html.Screen,6_24_0,2024-03-07T17:17:51.272Z,,,,1,1.0369885917487718,-0.8486937878412699,,,true,lh,12685.819999999949,response,-1.2594580992890123,1.2,-1.2,0.8833175387485132,1.2,-1.2,low,high,,ISIC_6917681.JPG,,ISIC_0011933.JPG,,27,true,0.40000000000000024,lh,keypress(e),0,false,580421.8999999762,580421.5,567735.68,567846.8999999762,567735.68,580320.7,1,40,25,
sequence,flow.Sequence,6_24,2024-03-07T17:17:51.273Z,,,,,,,,,,,12685.819999999949,completion,,,,,,,low,high,,,,,,,true,,,,,false,580422.3999999762,580421.5,567735.68,567846.8999999762,567735.68,580320.7,1,40,,
trial,html.Screen,6_25_0,2024-03-07T17:17:58.696Z,,,,1,-0.90812608370647,1.2720026872926935,,,true,hl,7524.399999994086,response,0.7518277461369444,1.2,-1.2,-1.3860759020802074,1.2,-1.2,high,low,,ISIC_0450295.JPG,,ISIC_7967397.JPG,,26,true,0.4500000000000003,hl,keypress(j),0,false,587845.599999994,587845.099999994,580311.004,580422.7999999821,580320.7,587743.5,1,40,26,
sequence,flow.Sequence,6_25,2024-03-07T17:17:58.696Z,,,,,,,,,,,7524.399999994086,completion,,,,,,,high,low,,,,,,,true,,,,,false,587846,587845.099999994,580311.004,580422.6999999881,580320.7,587743.5,1,40,,
trial,html.Screen,6_26_0,2024-03-07T17:18:06.376Z,,,,1,-1.0788024398087033,0.9911875460374616,,,true,hl,7781.799999982119,response,0.989300717252516,1.2,-1.2,-0.7908280206937478,1.2,-1.2,high,low,,ISIC_5951430.JPG,,ISIC_6416533.JPG,,26,true,0.4500000000000003,hl,keypress(j),0,false,595525.599999994,595525.2999999821,587738.11,587846.2999999821,587743.5,595427.566,1,40,27,
sequence,flow.Sequence,6_26,2024-03-07T17:18:06.377Z,,,,,,,,,,,7781.799999982119,completion,,,,,,,high,low,,,,,,,true,,,,,false,595526.1999999881,595525.2999999821,587738.11,587846.2999999821,587743.5,595427.566,1,40,,
trial,html.Screen,6_27_0,2024-03-07T17:18:14.856Z,,,,1,-1.0153439398566937,0.93001438372942,,,true,hl,8577.533999994048,response,0.8110121381849364,1.2,-1.2,-0.7563142141851558,1.2,-1.2,high,low,,ISIC_8211214.JPG,,ISIC_0033605.JPG,,26,true,0.4500000000000003,hl,keypress(j),0,false,604005.599999994,604005.099999994,595427.566,595526.5,595427.566,603890.2,1,40,28,
sequence,flow.Sequence,6_27,2024-03-07T17:18:14.856Z,,,,,,,,,,,8577.533999994048,completion,,,,,,,high,low,,,,,,,true,,,,,false,604006,604005.099999994,595427.566,595526.2999999821,595427.566,603890.2,1,40,,
trial,html.Screen,6_28_0,2024-03-07T17:18:19.590Z,,,,1,-1.2194553326562725,-1.2381726989215684,,,true,hh,4849.399999994086,response,0.9372411924051636,1.2,-1.2,0.841886327367642,1.2,-1.2,high,high,,ISIC_0068975.JPG,,ISIC_8368872.JPG,,203,true,0.40000000000000024,hh,keypress(i),0,false,608739.6999999881,608739.599999994,603884.002,604006.2999999821,603890.2,608627.3,1,40,29,
sequence,flow.Sequence,6_28,2024-03-07T17:18:19.590Z,,,,,,,,,,,4849.399999994086,completion,,,,,,,high,high,,,,,,,true,,,,,false,608740.099999994,608739.599999994,603884.002,604006.1999999881,603890.2,608627.3,1,40,,
trial,html.Screen,6_29_0,2024-03-07T17:18:24.936Z,,,,1,-1.071312313440387,-1.0935391476164529,,,true,hh,5457.799999993993,response,1.274752206258116,1.2,-1.2,1.2988509166163749,1.2,-1.2,high,high,,ISIC_0063680.JPG,,ISIC_6704623.JPG,,25,true,0.14,hh,keypress(i),0,false,614085.5,614085.099999994,608610.5,608740.099999994,608627.3,613981.9,1,40,30,
sequence,flow.Sequence,6_29,2024-03-07T17:18:24.936Z,,,,,,,,,,,5457.799999993993,completion,,,,,,,high,high,,,,,,,true,,,,,false,614086.099999994,614085.099999994,608610.5,608740.099999994,608627.3,613981.9,1,40,,
trial,html.Screen,6_30_0,2024-03-07T17:18:29.048Z,,,,1,1.2246024683501224,1.2904526351590244,,,true,ll,4215.399999982095,response,-1.1392972253022884,1.2,-1.2,-1.208510423375335,1.2,-1.2,low,low,,ISIC_4730066.JPG,,ISIC_0046526.JPG,,30,true,0.13,ll,keypress(f),0,false,618197.7999999821,618197.2999999821,613961.46,614086.2999999821,613981.9,618101.8,1,40,31,
sequence,flow.Sequence,6_30,2024-03-07T17:18:29.049Z,,,,,,,,,,,4215.399999982095,completion,,,,,,,low,low,,,,,,,true,,,,,false,618198.2999999821,618197.2999999821,613961.46,614086.1999999881,613981.9,618101.8,1,40,,
trial,html.Screen,6_31_0,2024-03-07T17:18:40.970Z,,,,1,-0.9617893983965208,0.9453006131304652,,,true,hl,12016.999999982072,response,0.9754077946987664,1.2,-1.2,-1.1821868813141057,1.2,-1.2,high,low,,ISIC_4229473.JPG,,ISIC_0024317.JPG,,26,true,0.4500000000000003,hl,keypress(j),0,false,630119.3999999762,630118.7999999821,618099.408,618198.5,618101.8,630011.8,1,40,32,
sequence,flow.Sequence,6_31,2024-03-07T17:18:40.971Z,,,,,,,,,,,12016.999999982072,completion,,,,,,,high,low,,,,,,,true,,,,,false,630120.1999999881,630118.7999999821,618099.408,618198.5,618101.8,630011.8,1,40,,
trial,html.Screen,6_32_0,2024-03-07T17:18:48.262Z,,,,1,1.2219550761700546,1.2809901875733454,,,true,ll,7399.699999999953,response,-1.0653732408486678,1.2,-1.2,-1.089675540151582,1.2,-1.2,low,low,,ISIC_6463417.JPG,,ISIC_0058315.JPG,,288,true,0.40000000000000024,ll,keypress(f),0,false,637411.6999999881,637411.5,630002.464,630120.599999994,630011.8,637312.348,1,40,33,
sequence,flow.Sequence,6_32,2024-03-07T17:18:48.262Z,,,,,,,,,,,7399.699999999953,completion,,,,,,,low,low,,,,,,,true,,,,,false,637411.6999999881,637411.5,630002.464,630120.3999999762,630011.8,637312.348,1,40,,
trial,html.Screen,6_33_0,2024-03-07T17:18:57.544Z,,,,1,1.2578167348825195,-0.8371819698254004,,,true,lh,9381.152000000002,response,-1.045301444872812,1.2,-1.2,1.0872560254441277,1.2,-1.2,low,high,,ISIC_9613570.JPG,,ISIC_4507700.JPG,,27,true,0.40000000000000024,lh,keypress(e),0,false,646693.7999999821,646693.5,637312.348,637411.8999999762,637312.348,646575.4,1,40,34,
sequence,flow.Sequence,6_33,2024-03-07T17:18:57.545Z,,,,,,,,,,,9381.152000000002,completion,,,,,,,low,high,,,,,,,true,,,,,false,646694.3999999762,646693.5,637312.348,637411.7999999821,637312.348,646575.4,1,40,,
trial,html.Screen,6_34_0,2024-03-07T17:19:04.279Z,,,,1,1.2600330864275875,1.0958628838888655,,,true,ll,6853.199999994016,response,-0.778047987566092,1.2,-1.2,-0.9219271880931648,1.2,-1.2,low,low,,ISIC_0026996.JPG,,ISIC_1499915.JPG,,359,true,0.4500000000000003,ll,keypress(f),0,false,653429,653428.599999994,646568.37,646694.599999994,646575.4,653314.3,1,40,35,
sequence,flow.Sequence,6_34,2024-03-07T17:19:04.280Z,,,,,,,,,,,6853.199999994016,completion,,,,,,,low,low,,,,,,,true,,,,,false,653429.5,653428.599999994,646568.37,646694.5,646575.4,653314.3,1,40,,
trial,html.Screen,6_35_0,2024-03-07T17:19:06.870Z,,,,1,-1.2014901828022857,-1.1484096197304636,,,true,hh,2705.0999999761116,response,1.252716660627398,1.2,-1.2,1.183977080937476,1.2,-1.2,high,high,,ISIC_0067808.JPG,,ISIC_0034194.JPG,,25,true,0.14,hh,keypress(i),0,false,656019.599999994,656019.3999999762,653309.638,653429.7999999821,653314.3,655899.7,1,40,36,
sequence,flow.Sequence,6_35,2024-03-07T17:19:06.870Z,,,,,,,,,,,2705.0999999761116,completion,,,,,,,high,high,,,,,,,true,,,,,false,656019.7999999821,656019.3999999762,653309.638,653429.599999994,653314.3,655899.7,1,40,,
trial,html.Screen,6_36_0,2024-03-07T17:19:09.736Z,,,,1,1.2724293858920366,1.149360738769835,,,true,ll,2985.8000000000466,response,-1.1048559518249943,1.2,-1.2,-1.2252457981338687,1.2,-1.2,low,low,,ISIC_1264725.JPG,,ISIC_0060817.JPG,,30,true,0.13,ll,keypress(f),0,false,658885.7999999821,658885.5,655898.57,656019.7999999821,655899.7,658785.4,1,40,37,
sequence,flow.Sequence,6_36,2024-03-07T17:19:09.737Z,,,,,,,,,,,2985.8000000000466,completion,,,,,,,low,low,,,,,,,true,,,,,false,658886.3999999762,658885.5,655898.57,656019.7999999821,655899.7,658785.4,1,40,,
trial,html.Screen,6_37_0,2024-03-07T17:19:21.128Z,,,,1,0.8830264383952469,-0.8635562538060516,,,true,lh,11491.999999976135,response,-0.8350129142228142,1.2,-1.2,0.8172547818270586,1.2,-1.2,low,high,,ISIC_0032258.JPG,,ISIC_0301568.JPG,,27,true,0.40000000000000024,lh,keypress(e),0,false,670277.6999999881,670277.3999999762,658784.058,658886.6999999881,658785.4,670169.352,1,40,38,
sequence,flow.Sequence,6_37,2024-03-07T17:19:21.129Z,,,,,,,,,,,11491.999999976135,completion,,,,,,,low,high,,,,,,,true,,,,,false,670278.1999999881,670277.3999999762,658784.058,658886.599999994,658785.4,670169.352,1,40,,
trial,html.Screen,6_38_0,2024-03-07T17:19:31.256Z,,,,1,0.8926515927689261,-0.7935960767768927,,,true,lh,10236.347999988124,response,-0.9111352818043872,1.2,-1.2,0.7517932332411794,1.2,-1.2,low,high,,ISIC_8901371.JPG,,ISIC_3346045.JPG,,40,true,0.4500000000000003,lh,keypress(e),0,false,680406.1999999881,680405.6999999881,670169.352,670278.5,670169.352,680304.6,1,40,39,
sequence,flow.Sequence,6_38,2024-03-07T17:19:31.257Z,,,,,,,,,,,10236.347999988124,completion,,,,,,,low,high,,,,,,,true,,,,,false,680406.6999999881,680405.6999999881,670169.352,670278.5,670169.352,680304.6,1,40,,
trial,html.Screen,6_39_0,2024-03-07T17:19:40.888Z,,,,1,0.8110121381849364,-0.7563142141851558,,,true,lh,9732.499999994063,response,-0.9662688541319592,1.2,-1.2,0.929746784178986,1.2,-1.2,low,high,,ISIC_0033605.JPG,,ISIC_0011077.JPG,,40,true,0.4500000000000003,lh,keypress(e),0,false,690037.5,690037.099999994,680295.502,680407,680304.6,689927.8,1,40,40,
sequence,flow.Sequence,6_39,2024-03-07T17:19:40.888Z,,,,,,,,,,,9732.499999994063,completion,,,,,,,low,high,,,,,,,true,,,,,false,690038,690037.099999994,680295.502,680406.8999999762,680304.6,689927.8,1,40,,
practice_loop,flow.Loop,6,2024-03-07T17:19:40.889Z,,,,,,,,,,,340706.70199999405,completion,,,,,,,,,,,,,,,true,,,,,false,690038.3999999762,690037.099999994,349330.398,349428.09999999404,349330.398,689927.8,1,40,,
stair_instructions,html.Screen,7,2024-03-07T17:20:56.444Z,,,,,,,,,,,75666.49999998207,response,,,,,,,,,,,,,,,,,continue,click button,,,765594.7999999821,765594.2999999821,689920.882,690038.5,689927.8,765491.3,,,,
trial,html.Screen,8_0_0,2024-03-07T17:21:07.599Z,,,,2,-0.001445457736793,-0.0165307427449982,,0.04,false,hl,11257.799999993993,response,0.8719231363109603,1.2,-1.2,-0.7704280220140033,1.2,-1.2,high,low,,ISIC_0027350.JPG,,ISIC_0029453.JPG,28,26,false,0.4500000000000003,hh,keypress(i),0,true,776749.1999999881,776749.099999994,765473.362,765594.8999999762,765491.3,776649.4,1,40,1,
sequence,flow.Sequence,8_0,2024-03-07T17:21:07.599Z,,,,,,,,,,,11257.799999993993,completion,,,,,,,high,low,,,,,,,false,,,,,true,776749.3999999762,776749.099999994,765473.362,765594.8999999762,765491.3,776649.4,1,40,,
trial,html.Screen,8_1_0,2024-03-07T17:21:19.239Z,,,,2,-0.0088741920055285,-0.0058246074740588,,0.04,false,ll,11739.799999988056,response,-1.071312313440387,1.15,-1.15,-1.0935391476164529,1.15,-1.2,low,low,,ISIC_4136663.JPG,,ISIC_0063680.JPG,28,29,false,0.11,lh,keypress(e),0,true,788389.3999999762,788389.1999999881,776632.7,776749.3999999762,776649.4,788275.6,1,40,2,
sequence,flow.Sequence,8_1,2024-03-07T17:21:19.240Z,,,,,,,,,,,11739.799999988056,completion,,,,,,,low,low,,,,,,,false,,,,,true,788389.8999999762,788389.1999999881,776632.7,776749.3999999762,776649.4,788275.6,1,40,,
trial,html.Screen,8_2_0,2024-03-07T17:21:30.620Z,,,,2,-0.001445457736793,-0.0165307427449982,,0.04,true,hh,11494.199999982142,response,1.0107375180488247,1.15,-1.15,1.2079382542709534,1.15,-1.2,high,high,,ISIC_0027350.JPG,,ISIC_0025602.JPG,28,27,false,0.14,hh,keypress(i),0,true,799770,799769.7999999821,788266.608,788390.099999994,788275.6,799659.418,1,40,3,
sequence,flow.Sequence,8_2,2024-03-07T17:21:30.620Z,,,,,,,,,,,11494.199999982142,completion,,,,,,,high,high,,,,,,,false,,,,,true,799770.099999994,799769.7999999821,788266.608,788390,788275.6,799659.418,1,40,,
trial,html.Screen,8_3_0,2024-03-07T17:21:40.727Z,,,,2,0.0119001144851157,-0.0063430114540141,,0.04,false,hl,10218.082000000053,response,0.7088606387153258,1.059337886159889,-1.15,-0.948610930521224,1.15,-1.15,high,low,,ISIC_0003822.JPG,,ISIC_0026293.JPG,28,25,false,0.3600000000000002,ll,keypress(f),0,true,809877.8999999762,809877.5,799659.418,799770.1999999881,799659.418,809760,1,40,4,
sequence,flow.Sequence,8_3,2024-03-07T17:21:40.728Z,,,,,,,,,,,10218.082000000053,completion,,,,,,,high,low,,,,,,,false,,,,,true,809878.3999999762,809877.5,799659.418,799770.1999999881,799659.418,809760,1,40,,
trial,html.Screen,8_4_0,2024-03-07T17:21:56.712Z,,,,2,-0.0388181790775959,0.0049623405709465,,0.04,,,16013,timeout,-0.9089402323867112,1.109337886159889,-1.15,0.8034544077281132,1.15,-1.15,low,high,,ISIC_0061880.JPG,,ISIC_3585381.JPG,28,26,false,0.3500000000000002,,,0,true,825861.8999999762,825861.7999999821,809759.014,809878.599999994,809760,825773,1,40,5,
sequence,flow.Sequence,8_4,2024-03-07T17:21:56.713Z,,,,,,,,,,,16101.799999982119,completion,,,,,,,low,high,,,,,,,false,,,,,true,825862,825861.7999999821,809759.014,809878.5,809760,825773,1,40,,
trial,html.Screen,8_5_0,2024-03-07T17:22:01.320Z,,,,2,-0.0388334549081915,0.0303399972963369,,0.04,true,hh,4695.799999982119,response,1.1055382068806878,1.109337886159889,-1.15,1.0166010471189206,1.15,-1.15,high,high,,ISIC_4961708.JPG,,ISIC_5420979.JPG,28,26,false,0.14,hh,keypress(i),0,true,830469.1999999881,830468.7999999821,825756.3,825862,825773,830360.3,1,40,6,
sequence,flow.Sequence,8_5,2024-03-07T17:22:01.320Z,,,,,,,,,,,4695.799999982119,completion,,,,,,,high,high,,,,,,,false,,,,,true,830469.7999999821,830468.7999999821,825756.3,825862,825773,830360.3,1,40,,
trial,html.Screen,8_6_0,2024-03-07T17:22:08.261Z,,,,2,0.0367706518941078,-0.0161069838272154,,0.04,false,lh,7050.3999999880325,response,-0.8987343013179191,1.109337886159889,-1.15,0.8149073454566363,1.0110696269998043,-1.15,low,high,,ISIC_0033419.JPG,,ISIC_0472513.JPG,28,25,false,0.28000000000000014,hh,keypress(i),0,true,837410.8999999762,837410.6999999881,830357.422,830470,830360.3,837299.2,1,40,7,
sequence,flow.Sequence,8_6,2024-03-07T17:22:08.262Z,,,,,,,,,,,7050.3999999880325,completion,,,,,,,low,high,,,,,,,false,,,,,true,837411,837410.6999999881,830357.422,830469.8999999762,830360.3,837299.2,1,40,,
trial,html.Screen,8_7_0,2024-03-07T17:22:17.304Z,,,,2,-0.0088741920055285,-0.0058246074740588,,0.04,false,lh,9153.899999994086,response,-0.9244148283103414,1.109337886159889,-1.15,0.9712966348713286,1.0110696269998043,-1.15,low,high,,ISIC_4136663.JPG,,ISIC_7927525.JPG,28,25,false,0.28000000000000014,hl,keypress(j),0,true,846453.5,846453.099999994,837294.33,837411.099999994,837299.2,846340.1,1,40,8,
sequence,flow.Sequence,8_7,2024-03-07T17:22:17.304Z,,,,,,,,,,,9153.899999994086,completion,,,,,,,low,high,,,,,,,false,,,,,true,846453.8999999762,846453.099999994,837294.33,837411,837299.2,846340.1,1,40,,
trial,html.Screen,8_8_0,2024-03-07T17:22:23.336Z,,,,2,-0.039520186367207,-0.0377961575607372,,0.04,true,ll,6145.400000000023,response,-1.14454137020797,1.109337886159889,-1.15,-1.1082302786512033,1.0610696269998043,-1.15,low,low,,ISIC_6356149.JPG,,ISIC_0065128.JPG,28,27,false,0.1,ll,keypress(f),0,true,852486,852485.5,846333.112,846454.1999999881,846340.1,852378.5,1,40,9,
sequence,flow.Sequence,8_8,2024-03-07T17:22:23.337Z,,,,,,,,,,,6145.400000000023,completion,,,,,,,low,low,,,,,,,false,,,,,true,852486.5,852485.5,846333.112,846454.1999999881,846340.1,852378.5,1,40,,
trial,html.Screen,8_9_0,2024-03-07T17:22:34.296Z,,,,2,0.0119001144851157,-0.0063430114540141,,0.04,true,ll,11067.09999999404,response,-1.061329542878903,1.109337886159889,-1.15,-1.0605755702127622,1.0610696269998043,-1.0763858244295867,low,low,,ISIC_0003822.JPG,,ISIC_0065622.JPG,28,27,false,0.1,ll,keypress(f),0,true,863446,863445.599999994,852361.8,852486.6999999881,852378.5,863337.5,1,40,10,
sequence,flow.Sequence,8_9,2024-03-07T17:22:34.297Z,,,,,,,,,,,11067.09999999404,completion,,,,,,,low,low,,,,,,,false,,,,,true,863446.5,863445.599999994,852361.8,852486.6999999881,852378.5,863337.5,1,40,,
trial,html.Screen,8_10_0,2024-03-07T17:22:41.992Z,,,,2,0.0258224118104549,-0.0029364553353019,,0.04,false,lh,7803.399999976158,response,-0.8987343013179191,1.109337886159889,-1.0109525565458324,0.8149073454566363,1.0610696269998043,-1.0763858244295867,low,high,,ISIC_8325226.JPG,,ISIC_0472513.JPG,28,28,false,0.2500000000000001,hh,keypress(i),0,true,871141.1999999881,871140.8999999762,863328.902,863446.6999999881,863337.5,871038.332,1,40,11,
sequence,flow.Sequence,8_10,2024-03-07T17:22:41.992Z,,,,,,,,,,,7803.399999976158,completion,,,,,,,low,high,,,,,,,false,,,,,true,871141.6999999881,871140.8999999762,863328.902,863446.6999999881,863337.5,871038.332,1,40,,
trial,html.Screen,8_11_0,2024-03-07T17:22:47.256Z,,,,2,0.0286056110007553,0.036125199756515,,0.04,false,hl,5366.867999988026,response,1.199471562817528,1.109337886159889,-1.0609525565458324,-0.8631260534979347,1.0610696269998043,-1.0763858244295867,high,low,,ISIC_6535558.JPG,,ISIC_0030754.JPG,28,25,false,0.3400000000000002,ll,keypress(f),0,true,876405.599999994,876405.1999999881,871038.332,871141.8999999762,871038.332,876298.2,1,40,12,
sequence,flow.Sequence,8_11,2024-03-07T17:22:47.257Z,,,,,,,,,,,5366.867999988026,completion,,,,,,,high,low,,,,,,,false,,,,,true,876406,876405.1999999881,871038.332,871141.7999999821,871038.332,876298.2,1,40,,
trial,html.Screen,8_12_0,2024-03-07T17:22:59.109Z,,,,2,0.0367706518941078,-0.0161069838272154,,0.04,true,hh,11960.800000000047,response,1.0659165756604234,1.159337886159889,-1.0609525565458324,1.0867497316848906,1.0610696269998043,-1.0263858244295867,high,high,,ISIC_0033419.JPG,,ISIC_5807608.JPG,28,27,false,0.13,hh,keypress(i),0,true,888259.099999994,888259,876294.63,876406.2999999821,876298.2,888141.3,1,40,13,
sequence,flow.Sequence,8_12,2024-03-07T17:22:59.110Z,,,,,,,,,,,11960.800000000047,completion,,,,,,,high,high,,,,,,,false,,,,,true,888259.2999999821,888259,876294.63,876406.1999999881,876298.2,888141.3,1,40,,
trial,html.Screen,8_13_0,2024-03-07T17:23:08.743Z,,,,2,0,-0.0102871556606504,,0.04,false,lh,9751.399999988033,response,-1.0153439398566937,1.159337886159889,-1.0609525565458324,0.93001438372942,1.026333153672657,-1.0263858244295867,low,high,,ISIC_1805163.JPG,,ISIC_8211214.JPG,28,25,false,0.2500000000000001,ll,keypress(f),0,true,897893.099999994,897892.6999999881,888132.2,888259.3999999762,888141.3,897792.054,1,40,14,
sequence,flow.Sequence,8_13,2024-03-07T17:23:08.744Z,,,,,,,,,,,9751.399999988033,completion,,,,,,,low,high,,,,,,,false,,,,,true,897893.6999999881,897892.6999999881,888132.2,888259.3999999762,888141.3,897792.054,1,40,,
trial,html.Screen,8_14_0,2024-03-07T17:23:16.264Z,,,,2,-0.0074667911845194,0.018500200317654,,0.04,false,lh,7621.045999994036,response,-0.9244148283103414,1.159337886159889,-1.0609525565458324,0.9712966348713286,1.076333153672657,-1.0263858244295867,low,high,,ISIC_0058723.JPG,,ISIC_7927525.JPG,28,25,false,0.27000000000000013,hl,keypress(j),0,true,905413.3999999762,905413.099999994,897792.054,897893.8999999762,897792.054,905305.4,1,40,15,
sequence,flow.Sequence,8_14,2024-03-07T17:23:16.264Z,,,,,,,,,,,7621.045999994036,completion,,,,,,,low,high,,,,,,,false,,,,,true,905413.8999999762,905413.099999994,897792.054,897893.7999999821,897792.054,905305.4,1,40,,
trial,html.Screen,8_15_0,2024-03-07T17:23:32.259Z,,,,2,-0.0198696495649504,0.0387952353063878,,0.04,,,16013.29999999993,timeout,1.0369885917487718,1.159337886159889,-1.1109525565458325,-0.8486937878412699,1.126333153672657,-1.0263858244295867,high,low,,ISIC_6735970.JPG,,ISIC_6917681.JPG,28,25,false,0.3200000000000002,,,0,true,921408.6999999881,921408.3999999762,905299.74,905414,905305.4,921318.7,1,40,16,
sequence,flow.Sequence,8_15,2024-03-07T17:23:32.260Z,,,,,,,,,,,16102.999999976135,completion,,,,,,,high,low,,,,,,,false,,,,,true,921409.1999999881,921408.3999999762,905299.74,905414,905305.4,921318.7,1,40,,
trial,html.Screen,8_16_0,2024-03-07T17:23:36.424Z,,,,2,-0.0388334549081915,0.0303399972963369,,0.04,true,ll,4254.199999976205,response,-1.0980226451001782,1.159337886159889,-1.1109525565458325,-0.9421419207281913,1.126333153672657,-1.0263858244295867,low,low,,ISIC_4961708.JPG,,ISIC_0060481.JPG,28,29,false,0.1,ll,keypress(f),0,true,925573.1999999881,925572.8999999762,921302.2,921409.5,921318.7,925455.4,1,40,17,
sequence,flow.Sequence,8_16,2024-03-07T17:23:36.424Z,,,,,,,,,,,4254.199999976205,completion,,,,,,,low,low,,,,,,,false,,,,,true,925573.6999999881,925572.8999999762,921302.2,921409.3999999762,921318.7,925455.4,1,40,,
trial,html.Screen,8_17_0,2024-03-07T17:23:42.455Z,,,,2,-0.001445457736793,-0.0165307427449982,,0.04,false,lh,6149.099999999977,response,-1.2081146885025262,1.159337886159889,-1.1109525565458325,1.195668832085049,1.126333153672657,-1.0263858244295867,low,high,,ISIC_0027350.JPG,,ISIC_7369690.JPG,28,25,false,0.3200000000000002,hh,keypress(i),0,true,931604.8999999762,931604.5,925452.73,925573.8999999762,925455.4,931493.7,1,40,18,
sequence,flow.Sequence,8_17,2024-03-07T17:23:42.456Z,,,,,,,,,,,6149.099999999977,completion,,,,,,,low,high,,,,,,,false,,,,,true,931605.2999999821,931604.5,925452.73,925573.7999999821,925455.4,931493.7,1,40,,
trial,html.Screen,8_18_0,2024-03-07T17:23:51.559Z,,,,2,0.0118382036798625,0.0300588245877227,,0.04,false,ll,9214.999999988126,response,-1.0653732408486678,1.159337886159889,-1.1609525565458325,-1.089675540151582,1.126333153672657,-1.0263858244295867,low,low,,ISIC_4748605.JPG,,ISIC_0058315.JPG,28,25,false,0.1,lh,keypress(e),0,true,940709.099999994,940708.6999999881,931489.666,931605.599999994,931493.7,940601.2,1,40,19,
sequence,flow.Sequence,8_18,2024-03-07T17:23:51.560Z,,,,,,,,,,,9214.999999988126,completion,,,,,,,low,low,,,,,,,false,,,,,true,940709.599999994,940708.6999999881,931489.666,931605.5,931493.7,940601.2,1,40,,
trial,html.Screen,8_19_0,2024-03-07T17:23:59.254Z,,,,2,-0.0388334549081915,0.0303399972963369,,0.04,true,hl,7802.699999976205,response,1.2054195059663604,1.159337886159889,-1.1609525565458325,-0.7760611240296147,1.126333153672657,-1.0763858244295867,high,low,,ISIC_4961708.JPG,,ISIC_8712559.JPG,28,26,false,0.3600000000000002,hl,keypress(j),0,true,948404.099999994,948403.8999999762,940594.276,940709.8999999762,940601.2,948290.9,1,40,20,
sequence,flow.Sequence,8_19,2024-03-07T17:23:59.255Z,,,,,,,,,,,7802.699999976205,completion,,,,,,,high,low,,,,,,,false,,,,,true,948404.2999999821,948403.8999999762,940594.276,940709.7999999821,940601.2,948290.9,1,40,,
trial,html.Screen,8_20_0,2024-03-07T17:24:07.288Z,,,,2,-0.0241900387072296,0.0339955304424736,,0.04,false,hl,8146.299999988056,response,0.8719231363109603,1.109337886159889,-1.1609525565458325,-0.7704280220140033,1.126333153672657,-1.0763858244295867,high,low,,ISIC_0010789.JPG,,ISIC_0029453.JPG,28,25,false,0.3400000000000002,hh,keypress(i),0,true,956437.5,956437.1999999881,948285.266,948404.5,948290.9,956331.1,1,40,21,
sequence,flow.Sequence,8_20,2024-03-07T17:24:07.288Z,,,,,,,,,,,8146.299999988056,completion,,,,,,,high,low,,,,,,,false,,,,,true,956438,956437.1999999881,948285.266,948404.5,948290.9,956331.1,1,40,,
trial,html.Screen,8_21_0,2024-03-07T17:24:11.895Z,,,,2,-0.0374659946425444,-0.0086043094957617,,0.04,false,hh,4713.099999988102,response,1.160746324899676,1.109337886159889,-1.1609525565458325,1.1927876559115576,1.126333153672657,-1.1263858244295868,high,high,,ISIC_0033051.JPG,,ISIC_8651053.JPG,28,25,false,0.13,ll,keypress(f),0,true,961044.599999994,961044.1999999881,956324.852,956438.2999999821,956331.1,960934.7,1,40,22,
sequence,flow.Sequence,8_21,2024-03-07T17:24:11.896Z,,,,,,,,,,,4713.099999988102,completion,,,,,,,high,high,,,,,,,false,,,,,true,961045.099999994,961044.1999999881,956324.852,956438.2999999821,956331.1,960934.7,1,40,,
trial,html.Screen,8_22_0,2024-03-07T17:24:19.941Z,,,,2,0.0118382036798625,0.0300588245877227,,0.04,true,lh,8155.899999994086,response,-0.8544507134472948,1.159337886159889,-1.1609525565458325,0.9244388608707323,1.1763331536726571,-1.1263858244295868,low,high,,ISIC_4748605.JPG,,ISIC_3565564.JPG,28,25,false,0.3700000000000002,lh,keypress(e),0,true,969090.7999999821,969090.599999994,960931.756,961045.3999999762,960934.7,968974.7,1,40,23,
sequence,flow.Sequence,8_22,2024-03-07T17:24:19.941Z,,,,,,,,,,,8155.899999994086,completion,,,,,,,low,high,,,,,,,false,,,,,true,969090.8999999762,969090.599999994,960931.756,961045.2999999821,960934.7,968974.7,1,40,,
trial,html.Screen,8_23_0,2024-03-07T17:24:26.021Z,,,,2,-0.039520186367207,-0.0377961575607372,,0.04,true,hh,6195.599999982165,response,1.274417010249866,1.159337886159889,-1.1109525565458325,1.0725495669014795,1.1763331536726571,-1.1263858244295868,high,high,,ISIC_6356149.JPG,,ISIC_8849004.JPG,28,25,false,0.14,hh,keypress(i),0,true,975170.3999999762,975170.2999999821,968968.886,969090.8999999762,968974.7,975063.1,1,40,24,
sequence,flow.Sequence,8_23,2024-03-07T17:24:26.021Z,,,,,,,,,,,6195.599999982165,completion,,,,,,,high,high,,,,,,,false,,,,,true,975170.599999994,975170.2999999821,968968.886,969090.8999999762,968974.7,975063.1,1,40,,
trial,html.Screen,8_24_0,2024-03-07T17:24:36.088Z,,,,2,0.0286056110007553,0.036125199756515,,0.04,true,ll,10174.099999988102,response,-1.011046725964536,1.159337886159889,-1.1109525565458325,-1.2027346117133495,1.1234832885756727,-1.1263858244295868,low,low,,ISIC_6535558.JPG,,ISIC_0000292.JPG,28,32,false,0.1,ll,keypress(f),0,true,985237.3999999762,985237.1999999881,975046.3,975170.599999994,975063.1,985130.37,1,40,25,
sequence,flow.Sequence,8_24,2024-03-07T17:24:36.088Z,,,,,,,,,,,10174.099999988102,completion,,,,,,,low,low,,,,,,,false,,,,,true,985238,985237.1999999881,975046.3,975170.599999994,975063.1,985130.37,1,40,,
trial,html.Screen,8_25_0,2024-03-07T17:24:45.704Z,,,,2,0.0286056110007553,0.036125199756515,,0.04,false,hl,9722.529999976163,response,1.075512775389519,1.159337886159889,-1.1109525565458325,-1.0454702683049502,1.1234832885756727,-1.1263858244295868,high,low,,ISIC_6535558.JPG,,ISIC_0033603.JPG,28,25,false,0.39000000000000024,ll,keypress(f),0,true,994853.2999999821,994852.8999999762,985130.37,985238.1999999881,985130.37,994746.2,1,40,26,
sequence,flow.Sequence,8_25,2024-03-07T17:24:45.704Z,,,,,,,,,,,9722.529999976163,completion,,,,,,,high,low,,,,,,,false,,,,,true,994853.8999999762,994852.8999999762,985130.37,985238.1999999881,985130.37,994746.2,1,40,,
trial,html.Screen,8_26_0,2024-03-07T17:25:01.143Z,,,,2,0.0200295718112167,0.0155559071275806,,0.04,false,hh,15546.099999982165,response,1.2600330864275875,1.159337886159889,-1.1109525565458325,1.0958628838888655,1.1234832885756727,-1.0741024400091497,high,high,,ISIC_0061343.JPG,,ISIC_0026996.JPG,28,26,false,0.14,hl,keypress(j),0,true,1010292.3999999762,1010292.2999999821,994729.1,994854.1999999881,994746.2,1010179.656,1,40,27,
sequence,flow.Sequence,8_26,2024-03-07T17:25:01.143Z,,,,,,,,,,,15546.099999982165,completion,,,,,,,high,high,,,,,,,false,,,,,true,1010292.599999994,1010292.2999999821,994729.1,994854.099999994,994746.2,1010179.656,1,40,,
trial,html.Screen,8_27_0,2024-03-07T17:25:09.880Z,,,,2,0.0220026381002083,-0.0170756452911772,,0.04,false,lh,8849.14399998216,response,-0.8500530224490773,1.159337886159889,-1.1109525565458325,1.0893360711742854,1.1734832885756727,-1.0741024400091497,low,high,,ISIC_5347806.JPG,,ISIC_2998367.JPG,28,25,false,0.3400000000000002,ll,keypress(f),0,true,1019029.099999994,1019028.7999999821,1010179.656,1010292.6999999881,1010179.656,1018915.9,1,40,28,
sequence,flow.Sequence,8_27,2024-03-07T17:25:09.880Z,,,,,,,,,,,8849.14399998216,completion,,,,,,,low,high,,,,,,,false,,,,,true,1019029.599999994,1019028.7999999821,1010179.656,1010292.6999999881,1010179.656,1018915.9,1,40,,
trial,html.Screen,8_28_0,2024-03-07T17:25:20.808Z,,,,2,0.0308384937406319,-0.0038396364323947,,0.04,true,hh,11040.999999976135,response,1.1843968275545205,1.159337886159889,-1.0609525565458324,1.2828739728067764,1.1734832885756727,-1.0741024400091497,high,high,,ISIC_0029825.JPG,,ISIC_0002901.JPG,28,25,false,0.14,hh,keypress(i),0,true,1029957.2999999821,1029956.8999999762,1018909.458,1019029.8999999762,1018915.9,1029841.6,1,40,29,
sequence,flow.Sequence,8_28,2024-03-07T17:25:20.808Z,,,,,,,,,,,11040.999999976135,completion,,,,,,,high,high,,,,,,,false,,,,,true,1029957.7999999821,1029956.8999999762,1018909.458,1019029.7999999821,1018915.9,1029841.6,1,40,,
trial,html.Screen,8_29_0,2024-03-07T17:25:29.751Z,,,,2,-0.0198696495649504,0.0387952353063878,,0.04,true,ll,9058.900000000023,response,-1.0470212693307346,1.1836354001806484,-1.0609525565458324,-1.097091139433204,1.1734832885756727,-1.0741024400091497,low,low,,ISIC_6735970.JPG,,ISIC_0068234.JPG,28,41,false,0.1,ll,keypress(f),0,true,1038900.7999999821,1038900.5,1029833.17,1029958.099999994,1029841.6,1038792.282,1,40,30,
sequence,flow.Sequence,8_29,2024-03-07T17:25:29.752Z,,,,,,,,,,,9058.900000000023,completion,,,,,,,low,low,,,,,,,false,,,,,true,1038901.3999999762,1038900.5,1029833.17,1029958,1029841.6,1038792.282,1,40,,
trial,html.Screen,8_30_0,2024-03-07T17:25:41.992Z,,,,2,-0.0388334549081915,0.0303399972963369,,0.04,false,hl,12348.817999994033,response,0.84290786638064,1.1836354001806484,-1.0609525565458324,-0.7332521189371746,1.1734832885756727,-1.0741024400091497,high,low,,ISIC_4961708.JPG,,ISIC_4708642.JPG,28,25,false,0.3700000000000002,ll,keypress(f),0,true,1051141.3999999762,1051141.099999994,1038792.282,1038901.599999994,1038792.282,1051025.7,1,40,31,
sequence,flow.Sequence,8_30,2024-03-07T17:25:41.992Z,,,,,,,,,,,12348.817999994033,completion,,,,,,,high,low,,,,,,,false,,,,,true,1051142,1051141.099999994,1038792.282,1038901.599999994,1038792.282,1051025.7,1,40,,
trial,html.Screen,8_31_0,2024-03-07T17:25:57.979Z,,,,2,0.0283578106329894,-0.0088840758711548,,0.04,,,16013.600000000093,timeout,-0.9783041799594244,1.1836354001806484,-1.0609525565458324,-0.7939492667783195,1.1734832885756727,-0.8651716291851892,low,low,,ISIC_0060707.JPG,,ISIC_0060446.JPG,28,33,false,0.1,,,0,true,1067128.7999999821,1067128.3999999762,1051015.918,1051142.099999994,1051025.7,1067039.3,1,40,32,
sequence,flow.Sequence,8_31,2024-03-07T17:25:57.980Z,,,,,,,,,,,16102.699999976205,completion,,,,,,,low,low,,,,,,,false,,,,,true,1067129.2999999821,1067128.3999999762,1051015.918,1051142.099999994,1051025.7,1067039.3,1,40,,
trial,html.Screen,8_32_0,2024-03-07T17:26:03.432Z,,,,2,-0.0109416414475118,-0.005246498750811,,0.04,false,hl,5541.599999976112,response,0.937244118871122,1.1836354001806484,-1.0609525565458324,-0.6016155161011499,1.1734832885756727,-0.8651716291851892,high,low,,ISIC_0064279.JPG,,ISIC_0031611.JPG,28,25,false,0.29000000000000015,hh,keypress(i),0,true,1072581.3999999762,1072580.8999999762,1067022.2,1067129.5,1067039.3,1072476.7,1,40,33,
sequence,flow.Sequence,8_32,2024-03-07T17:26:03.432Z,,,,,,,,,,,5541.599999976112,completion,,,,,,,high,low,,,,,,,false,,,,,true,1072581.8999999762,1072580.8999999762,1067022.2,1067129.3999999762,1067039.3,1072476.7,1,40,,
trial,html.Screen,8_33_0,2024-03-07T17:26:10.263Z,,,,2,-0.0065172941585523,0.0118857043117315,,0.04,false,lh,6935.800000000047,response,-1.0116417541846066,1.1836354001806484,-1.0609525565458324,1.033442916947398,1.1734832885756727,-0.9151716291851892,low,high,,ISIC_6119202.JPG,,ISIC_0031389.JPG,28,26,false,0.3300000000000002,ll,keypress(f),0,true,1079412.8999999762,1079412.5,1072473.122,1072582.099999994,1072476.7,1079299.1,1,40,34,
sequence,flow.Sequence,8_33,2024-03-07T17:26:10.264Z,,,,,,,,,,,6935.800000000047,completion,,,,,,,low,high,,,,,,,false,,,,,true,1079413.5,1079412.5,1072473.122,1072582.099999994,1072476.7,1079299.1,1,40,,
trial,html.Screen,8_34_0,2024-03-07T17:26:20.248Z,,,,2,-0.0198696495649504,0.0387952353063878,,0.04,false,hh,10097.699999982025,response,1.077278111180185,1.1836354001806484,-1.0109525565458324,1.1530533996184025,1.1734832885756727,-0.9151716291851892,high,high,,ISIC_6735970.JPG,,ISIC_9525136.JPG,28,25,false,0.15000000000000002,lh,keypress(e),0,true,1089397.199999988,1089396.7999999821,1079294.034,1079413.699999988,1079299.1,1089290.5,1,40,35,
sequence,flow.Sequence,8_34,2024-03-07T17:26:20.248Z,,,,,,,,,,,10097.699999982025,completion,,,,,,,high,high,,,,,,,false,,,,,true,1089397.599999994,1089396.7999999821,1079294.034,1079413.599999994,1079299.1,1089290.5,1,40,,
trial,html.Screen,8_35_0,2024-03-07T17:26:25.239Z,,,,2,0.0119001144851157,-0.0063430114540141,,0.04,true,ll,5097.899999976158,response,-1.0292526683018866,1.1836354001806484,-1.0109525565458324,-0.9026684221154396,1.1734832885756727,-0.9151716291851892,low,low,,ISIC_0003822.JPG,,ISIC_0059314.JPG,28,36,false,0.1,ll,keypress(f),0,true,1094388.599999994,1094388.3999999762,1089283.074,1089397.8999999762,1089290.5,1094277.9,1,40,36,
sequence,flow.Sequence,8_35,2024-03-07T17:26:25.239Z,,,,,,,,,,,5097.899999976158,completion,,,,,,,low,low,,,,,,,false,,,,,true,1094388.8999999762,1094388.3999999762,1089283.074,1089397.7999999821,1089290.5,1094277.9,1,40,,
trial,html.Screen,8_36_0,2024-03-07T17:26:33.208Z,,,,2,-0.039520186367207,-0.0377961575607372,,0.04,false,hl,8078.999999976251,response,0.9237241143561707,1.1836354001806484,-1.0109525565458324,-0.7102087839245512,1.1734832885756727,-0.9151716291851892,high,low,,ISIC_6356149.JPG,,ISIC_0058661.JPG,28,25,false,0.30000000000000016,hh,keypress(i),0,true,1102357.3999999762,1102356.8999999762,1094274.774,1094389.099999994,1094277.9,1102251.3,1,40,37,
sequence,flow.Sequence,8_36,2024-03-07T17:26:33.208Z,,,,,,,,,,,8078.999999976251,completion,,,,,,,high,low,,,,,,,false,,,,,true,1102357.8999999762,1102356.8999999762,1094274.774,1094389,1094277.9,1102251.3,1,40,,
trial,html.Screen,8_37_0,2024-03-07T17:26:44.455Z,,,,2,0.0283578106329894,-0.0088840758711548,,0.04,true,hh,11353.299999993993,response,1.2246024683501224,1.1836354001806484,-1.0109525565458324,1.2904526351590244,1.1734832885756727,-0.9651716291851893,high,high,,ISIC_0060707.JPG,,ISIC_4730066.JPG,28,25,false,0.15000000000000002,hh,keypress(i),0,true,1113604.8999999762,1113604.599999994,1102245.188,1102358.099999994,1102251.3,1113493.9,1,40,38,
sequence,flow.Sequence,8_37,2024-03-07T17:26:44.456Z,,,,,,,,,,,11353.299999993993,completion,,,,,,,high,high,,,,,,,false,,,,,true,1113605.5,1113604.599999994,1102245.188,1102358,1102251.3,1113493.9,1,40,,
trial,html.Screen,8_38_0,2024-03-07T17:26:54.584Z,,,,2,0.0009714874637896,-0.0174815595031679,,0.04,true,hh,10238.999999976251,response,1.001866590114321,1.0570883747575974,-1.0109525565458324,1.080719641270871,1.0570883747575974,-0.9651716291851893,high,high,,ISIC_9848743.JPG,,ISIC_0663941.JPG,28,27,false,0.1,hh,keypress(i),0,true,1123733.2999999821,1123732.8999999762,1113485.124,1113605.699999988,1113493.9,1123618.9,1,40,39,
sequence,flow.Sequence,8_38,2024-03-07T17:26:54.584Z,,,,,,,,,,,10238.999999976251,completion,,,,,,,high,high,,,,,,,false,,,,,true,1123733.8999999762,1123732.8999999762,1113485.124,1113605.699999988,1113493.9,1123618.9,1,40,,
trial,html.Screen,8_39_0,2024-03-07T17:27:05.544Z,,,,2,0.0257631352671967,0.0202837002774028,,0.04,false,ll,11074.399999982212,response,-0.9836672814341636,1.0570883747575974,-1.0109525565458324,-1.0629122718286683,1.0570883747575974,-0.9651716291851893,low,low,,ISIC_0032797.JPG,,ISIC_0062161.JPG,28,38,false,0.1,hh,keypress(i),0,true,1134693.699999988,1134693.2999999821,1123610.802,1123734.199999988,1123618.9,1134577.9,1,40,40,
sequence,flow.Sequence,8_39,2024-03-07T17:27:05.545Z,,,,,,,,,,,11074.399999982212,completion,,,,,,,low,low,,,,,,,false,,,,,true,1134694.3999999762,1134693.2999999821,1123610.802,1123734.099999994,1123618.9,1134577.9,1,40,,
stair_loop,flow.Loop,8,2024-03-07T17:27:05.545Z,,,,,,,,,,,369201.9999999821,completion,,,,,,,,,,,,,,,false,,,,,true,1134694.699999988,1134693.2999999821,765473.362,765594.8999999762,765491.3,1134577.9,1,40,,
exp_instructions,html.Screen,9,2024-03-07T17:27:23.125Z,,,,,,,,,,,17695.89999998221,response,,,,,,,,,,,,,,,,,continue,keypress(Space),,,1152274.199999988,1152273.7999999821,1134569.402,1134694.8999999762,1134577.9,1152160.53,,,,
trial,html.Screen,10_0_0,2024-03-07T17:27:35.438Z,,,,1,-0.0065172941585523,0.0118857043117315,,0.04,false,ll,12427.069999994012,response,-0.9836672814341636,1.1550468163290017,-1.073452556545832,-1.0629122718286683,1.1499137702132625,-1.0182685904644984,low,low,,ISIC_6119202.JPG,8,ISIC_0062161.JPG,28,33,false,0.1,hh,keypress(i),0,false,1164587.699999988,1164587.599999994,1152160.53,1152274.2999999821,1152160.53,1164476.704,5,600,1,
break,html.Screen,10_0_1,2024-03-07T17:27:35.439Z,,,,,,,,,,,NaN,,,,,,,,low,low,,,,,,,false,,,,,false,1164588.199999988,1164588.099999994,,1164587.7999999821,,1164476.704,5,600,,
break_continue,html.Screen,10_0_2,2024-03-07T17:27:35.439Z,,,,,,,,,,,NaN,,,,,,,,low,low,,,,,,,false,,,,,false,1164588.599999994,1164588.2999999821,,1164588.2999999821,,1164476.704,5,600,,
sequence,flow.Sequence,10_0,2024-03-07T17:27:35.439Z,,,,,,,,,,,12427.76999998209,completion,,,,,,,low,low,,,,,,,false,,,,,false,1164588.699999988,1164588.2999999821,1152160.53,1152274.2999999821,1152160.53,1164476.704,5,600,,
trial,html.Screen,10_1_0,2024-03-07T17:27:43.253Z,,,,1,0.0009714874637896,-0.0174815595031679,,0.04,false,lh,7925.695999976248,response,-0.9617893983965208,1.1550468163290017,-1.073452556545832,0.9453006131304652,1.1499137702132625,-1.0182685904644984,low,high,,ISIC_9848743.JPG,9,ISIC_4229473.JPG,28,25,false,0.31000000000000016,ll,keypress(f),0,false,1172402.3999999762,1172402.3999999762,1164476.704,1164588.699999988,1164476.704,1172292.4,5,600,2,
break,html.Screen,10_1_1,2024-03-07T17:27:43.253Z,,,,,,,,,,,NaN,,,,,,,,low,high,,,,,,,false,,,,,false,1172402.8999999762,1172402.699999988,,1172402.5,,1172292.4,5,600,,
break_continue,html.Screen,10_1_2,2024-03-07T17:27:43.254Z,,,,,,,,,,,NaN,,,,,,,,low,high,,,,,,,false,,,,,false,1172403.199999988,1172403,,1172403,,1172292.4,5,600,,
sequence,flow.Sequence,10_1,2024-03-07T17:27:43.254Z,,,,,,,,,,,7926.296000000089,completion,,,,,,,low,high,,,,,,,false,,,,,false,1172403.2999999821,1172403,1164476.704,1164588.699999988,1164476.704,1172292.4,5,600,,
trial,html.Screen,10_2_0,2024-03-07T17:27:54.151Z,,,,1,0.0257631352671967,0.0202837002774028,,0.04,false,hl,11008.100000000093,response,0.9237241143561707,1.1550468163290017,-1.073452556545832,-0.7102087839245512,1.1499137702132625,-1.0182685904644984,high,low,,ISIC_0032797.JPG,8,ISIC_0058661.JPG,28,26,false,0.3200000000000002,hh,keypress(i),0,false,1183300.8999999762,1183300.5,1172286.528,1172403.3999999762,1172292.4,1183184.7,5,600,3,
break,html.Screen,10_2_1,2024-03-07T17:27:54.153Z,,,,,,,,,,,NaN,,,,,,,,high,low,,,,,,,false,,,,,false,1183302.2999999821,1183302,,1183301.2999999821,,1183184.7,5,600,,
break_continue,html.Screen,10_2_2,2024-03-07T17:27:54.154Z,,,,,,,,,,,NaN,,,,,,,,high,low,,,,,,,false,,,,,false,1183303.2999999821,1183302.7999999821,,1183302.5,,1183184.7,5,600,,
sequence,flow.Sequence,10_2,2024-03-07T17:27:54.154Z,,,,,,,,,,,11010.399999982212,completion,,,,,,,high,low,,,,,,,false,,,,,false,1183303.599999994,1183302.7999999821,1172286.528,1172403.3999999762,1172292.4,1183184.7,5,600,,
trial,html.Screen,10_3_0,2024-03-07T17:28:05.015Z,,,,1,-0.0109416414475118,-0.005246498750811,,0.04,false,lh,10979.800000000047,response,-0.8443403196524287,1.1550468163290017,-1.073452556545832,0.8858525429102605,1.1499137702132625,-1.0182685904644984,low,high,,ISIC_0064279.JPG,9,ISIC_8777813.JPG,28,25,false,0.31000000000000016,hh,keypress(i),0,false,1194164.8999999762,1194164.5,1183184.13,1183303.7999999821,1183184.7,1194060.3,5,600,4,
break,html.Screen,10_3_1,2024-03-07T17:28:05.017Z,,,,,,,,,,,NaN,,,,,,,,low,high,,,,,,,false,,,,,false,1194166.3999999762,1194166,,1194165.2999999821,,1194060.3,5,600,,
break_continue,html.Screen,10_3_2,2024-03-07T17:28:05.018Z,,,,,,,,,,,NaN,,,,,,,,low,high,,,,,,,false,,,,,false,1194167.5,1194167.099999994,,1194166.699999988,,1194060.3,5,600,,
sequence,flow.Sequence,10_3,2024-03-07T17:28:05.018Z,,,,,,,,,,,10982.399999994086,completion,,,,,,,low,high,,,,,,,false,,,,,false,1194167.7999999821,1194167.099999994,1183184.13,1183303.699999988,1183184.7,1194060.3,5,600,,
trial,html.Screen,10_4_0,2024-03-07T17:28:12.119Z,,,,1,-0.001445457736793,-0.0165307427449982,,0.04,false,hl,7207.999999982072,response,0.8828738626295417,1.1550468163290017,-1.073452556545832,-0.8288177599439582,1.1499137702132625,-1.0182685904644984,high,low,,ISIC_0027350.JPG,9,ISIC_0056041.JPG,28,26,false,0.3200000000000002,ll,keypress(f),0,false,1201268.699999988,1201268.2999999821,1194059.864,1194168.099999994,1194060.3,1201149.6,5,600,5,
break,html.Screen,10_4_1,2024-03-07T17:28:12.121Z,,,,,,,,,,,NaN,,,,,,,,high,low,,,,,,,false,,,,,false,1201270.2999999821,1201269.8999999762,,1201269.199999988,,1201149.6,5,600,,
break_continue,html.Screen,10_4_2,2024-03-07T17:28:12.122Z,,,,,,,,,,,NaN,,,,,,,,high,low,,,,,,,false,,,,,false,1201271.5,1201271.099999994,,1201270.699999988,,1201149.6,5,600,,
sequence,flow.Sequence,10_4,2024-03-07T17:28:12.122Z,,,,,,,,,,,7210.799999993993,completion,,,,,,,high,low,,,,,,,false,,,,,false,1201272,1201271.099999994,1194059.864,1194168,1194060.3,1201149.6,5,600,,
trial,html.Screen,10_5_0,2024-03-07T17:28:25.352Z,,,,1,-0.0199950873045219,-0.0172506388509166,,0.04,false,ll,13351.099999987986,response,-0.9766645409582418,1.1550468163290017,-1.073452556545832,-1.086167902767275,1.1499137702132625,-1.0182685904644984,low,low,,ISIC_0029906.JPG,9,ISIC_0011526.JPG,28,33,false,0.1,hl,keypress(j),0,false,1214501.199999988,1214500.699999988,1201144.39,1201272.2999999821,1201149.6,1214393.8,5,600,6,
break,html.Screen,10_5_1,2024-03-07T17:28:25.353Z,,,,,,,,,,,NaN,,,,,,,,low,low,,,,,,,false,,,,,false,1214502.699999988,1214502.2999999821,,1214501.699999988,,1214393.8,5,600,,
break_continue,html.Screen,10_5_2,2024-03-07T17:28:25.354Z,,,,,,,,,,,NaN,,,,,,,,low,low,,,,,,,false,,,,,false,1214504,1214503.3999999762,,1214503,,1214393.8,5,600,,
sequence,flow.Sequence,10_5,2024-03-07T17:28:25.355Z,,,,,,,,,,,13353.799999976065,completion,,,,,,,low,low,,,,,,,false,,,,,false,1214504.3999999762,1214503.3999999762,1201144.39,1201272.199999988,1201149.6,1214393.8,5,600,,
trial,html.Screen,10_6_0,2024-03-07T17:28:34.103Z,,,,1,0.0308384937406319,-0.0038396364323947,,0.04,false,lh,8858.699999999953,response,-1.2646773654288392,1.1550468163290017,-1.073452556545832,0.952963803634235,1.1499137702132625,-1.0182685904644984,low,high,,ISIC_0029825.JPG,9,ISIC_1996356.JPG,28,25,false,0.31000000000000016,ll,keypress(f),0,false,1223252.8999999762,1223252.5,1214391.27,1214504.599999994,1214393.8,1223144.49,5,600,7,
break,html.Screen,10_6_1,2024-03-07T17:28:34.105Z,,,,,,,,,,,NaN,,,,,,,,low,high,,,,,,,false,,,,,false,1223254.199999988,1223254,,1223253.2999999821,,1223144.49,5,600,,
break_continue,html.Screen,10_6_2,2024-03-07T17:28:34.106Z,,,,,,,,,,,NaN,,,,,,,,low,high,,,,,,,false,,,,,false,1223255.2999999821,1223254.8999999762,,1223254.599999994,,1223144.49,5,600,,
sequence,flow.Sequence,10_6,2024-03-07T17:28:34.106Z,,,,,,,,,,,8861.099999976112,completion,,,,,,,low,high,,,,,,,false,,,,,false,1223255.599999994,1223254.8999999762,1214391.27,1214504.5,1214393.8,1223144.49,5,600,,
trial,html.Screen,10_7_0,2024-03-07T17:28:38.552Z,,,,1,-0.0374659946425444,-0.0086043094957617,,0.04,false,hh,4556.4099999761675,response,1.2804054832904397,1.1550468163290017,-1.073452556545832,1.171271535505083,1.1499137702132625,-1.0182685904644984,high,high,,ISIC_0033051.JPG,8,ISIC_7889838.JPG,28,27,false,0.14,ll,keypress(f),0,false,1227701.2999999821,1227700.8999999762,1223144.49,1223255.7999999821,1223144.49,1227588,5,600,8,
break,html.Screen,10_7_1,2024-03-07T17:28:38.553Z,,,,,,,,,,,NaN,,,,,,,,high,high,,,,,,,false,,,,,false,1227702.7999999821,1227702.2999999821,,1227701.699999988,,1227588,5,600,,
break_continue,html.Screen,10_7_2,2024-03-07T17:28:38.554Z,,,,,,,,,,,NaN,,,,,,,,high,high,,,,,,,false,,,,,false,1227703.7999999821,1227703.5,,1227703.099999994,,1227588,5,600,,
sequence,flow.Sequence,10_7,2024-03-07T17:28:38.555Z,,,,,,,,,,,4559.010000000009,completion,,,,,,,high,high,,,,,,,false,,,,,false,1227704.199999988,1227703.5,1223144.49,1223255.7999999821,1223144.49,1227588,5,600,,
trial,html.Screen,10_8_0,2024-03-07T17:28:52.760Z,,,,1,0.0367706518941078,-0.0161069838272154,,0.04,true,lh,14321,response,-1.2594580992890123,1.1550468163290017,-1.073452556545832,0.8833175387485132,1.1499137702132625,-1.0182685904644984,low,high,,ISIC_0033419.JPG,8,ISIC_0011933.JPG,28,25,false,0.31000000000000016,lh,keypress(e),0,false,1241909.5,1241909,1227585.538,1227704.5,1227588,1241799.9,5,600,9,
break,html.Screen,10_8_1,2024-03-07T17:28:52.761Z,,,,,,,,,,,NaN,,,,,,,,low,high,,,,,,,false,,,,,false,1241911,1241910.5,,1241909.7999999821,,1241799.9,5,600,,
break_continue,html.Screen,10_8_2,2024-03-07T17:28:52.762Z,,,,,,,,,,,NaN,,,,,,,,low,high,,,,,,,false,,,,,false,1241912.099999994,1241911.5,,1241911.199999988,,1241799.9,5,600,,
sequence,flow.Sequence,10_8,2024-03-07T17:28:52.763Z,,,,,,,,,,,14323.5,completion,,,,,,,low,high,,,,,,,false,,,,,false,1241912.3999999762,1241911.5,1227585.538,1227704.2999999821,1227588,1241799.9,5,600,,
trial,html.Screen,10_9_0,2024-03-07T17:29:08.712Z,,,,1,-0.0088741920055285,-0.0058246074740588,,0.04,true,ll,16060.600000000093,response,-1.0879680624915455,1.1550468163290017,-1.073452556545832,-0.9819300422707804,1.1499137702132625,-1.0182685904644984,low,low,,ISIC_4136663.JPG,10,ISIC_0011369.JPG,28,33,false,0.1,ll,keypress(f),0,false,1257860.8999999762,1257860.5,1241782.8,1241912.599999994,1241799.9,1257762.8,5,600,10,
break,html.Screen,10_9_1,2024-03-07T17:29:08.713Z,,,,,,,,,,,NaN,,,,,,,,low,low,,,,,,,false,,,,,false,1257862.099999994,1257861.7999999821,,1257861.2999999821,,1257762.8,5,600,,
break_continue,html.Screen,10_9_2,2024-03-07T17:29:08.714Z,,,,,,,,,,,NaN,,,,,,,,low,low,,,,,,,false,,,,,false,1257863,1257862.5,,1257862.2999999821,,1257762.8,5,600,,
sequence,flow.Sequence,10_9,2024-03-07T17:29:08.714Z,,,,,,,,,,,16062.600000000093,completion,,,,,,,low,low,,,,,,,false,,,,,false,1257863.199999988,1257862.5,1241782.8,1241912.5,1241799.9,1257762.8,5,600,,
trial,html.Screen,10_10_0,2024-03-07T17:29:21.880Z,,,,1,-0.0164027439304477,0.0082910758715273,,0.04,false,lh,13266.099999976112,response,-0.90812608370647,1.1550468163290017,-1.073452556545832,1.2720026872926935,1.1499137702132625,-1.0182685904644984,low,high,,ISIC_7381224.JPG,8,ISIC_0450295.JPG,28,25,false,0.31000000000000016,ll,keypress(f),0,false,1271029.2999999821,1271028.8999999762,1257746.2,1257863.5,1257762.8,1270923.8,5,600,11,
break,html.Screen,10_10_1,2024-03-07T17:29:21.881Z,,,,,,,,,,,NaN,,,,,,,,low,high,,,,,,,false,,,,,false,1271030.7999999821,1271030.3999999762,,1271029.699999988,,1270923.8,5,600,,
break_continue,html.Screen,10_10_2,2024-03-07T17:29:21.883Z,,,,,,,,,,,NaN,,,,,,,,low,high,,,,,,,false,,,,,false,1271032,1271031.5,,1271031.099999994,,1270923.8,5,600,,
sequence,flow.Sequence,10_10,2024-03-07T17:29:21.883Z,,,,,,,,,,,13268.699999999953,completion,,,,,,,low,high,,,,,,,false,,,,,false,1271032.2999999821,1271031.5,1257746.2,1257863.3999999762,1257762.8,1270923.8,5,600,,
trial,html.Screen,10_11_0,2024-03-07T17:29:37.877Z,,,,1,0.0009714874637896,-0.0174815595031679,,0.04,,,16013.199999999953,timeout,-0.8867328775712738,1.1550468163290017,-1.073452556545832,1.0063426986460375,1.1499137702132625,-1.0182685904644984,low,high,,ISIC_9848743.JPG,9,ISIC_0055759.JPG,28,25,false,0.31000000000000016,,,0,false,1287026.5,1287026.199999988,1270921.306,1271032.599999994,1270923.8,1286937,5,600,12,
break,html.Screen,10_11_1,2024-03-07T17:29:37.878Z,,,,,,,,,,,NaN,,,,,,,,low,high,,,,,,,false,,,,,false,1287027.2999999821,1287027.099999994,,1287026.7999999821,,1286937,5,600,,
break_continue,html.Screen,10_11_2,2024-03-07T17:29:37.878Z,,,,,,,,,,,NaN,,,,,,,,low,high,,,,,,,false,,,,,false,1287027.7999999821,1287027.599999994,,1287027.3999999762,,1286937,5,600,,
sequence,flow.Sequence,10_11,2024-03-07T17:29:37.879Z,,,,,,,,,,,16103.799999993993,completion,,,,,,,low,high,,,,,,,false,,,,,false,1287028,1287027.599999994,1270921.306,1271032.5,1270923.8,1286937,5,600,,
trial,html.Screen,10_12_0,2024-03-07T17:29:41.176Z,,,,1,-0.0374659946425444,-0.0086043094957617,,0.04,true,ll,3387.5,response,-1.0980226451001782,1.1550468163290017,-1.073452556545832,-0.9421419207281913,1.1499137702132625,-1.0182685904644984,low,low,,ISIC_0033051.JPG,8,ISIC_0060481.JPG,28,33,false,0.1,ll,keypress(f),0,false,1290325,1290324.5,1286920.2,1287028,1286937,1290220.764,5,600,13,
break,html.Screen,10_12_1,2024-03-07T17:29:41.177Z,,,,,,,,,,,NaN,,,,,,,,low,low,,,,,,,false,,,,,false,1290326.5,1290326.099999994,,1290325.3999999762,,1290220.764,5,600,,
break_continue,html.Screen,10_12_2,2024-03-07T17:29:41.178Z,,,,,,,,,,,NaN,,,,,,,,low,low,,,,,,,false,,,,,false,1290327.599999994,1290327.099999994,,1290326.7999999821,,1290220.764,5,600,,
sequence,flow.Sequence,10_12,2024-03-07T17:29:41.179Z,,,,,,,,,,,3390.0999999940395,completion,,,,,,,low,low,,,,,,,false,,,,,false,1290327.7999999821,1290327.099999994,1286920.2,1287028,1286937,1290220.764,5,600,,
trial,html.Screen,10_13_0,2024-03-07T17:29:49.848Z,,,,1,-0.0374659946425444,-0.0086043094957617,,0.04,false,hl,8776.435999988113,response,0.989300717252516,1.1550468163290017,-1.073452556545832,-0.7908280206937478,1.1499137702132625,-1.0182685904644984,high,low,,ISIC_0033051.JPG,9,ISIC_6416533.JPG,28,26,false,0.3200000000000002,ll,keypress(f),0,false,1298997.699999988,1298997.199999988,1290220.764,1290328.099999994,1290220.764,1298880.2,5,600,14,
break,html.Screen,10_13_1,2024-03-07T17:29:49.850Z,,,,,,,,,,,NaN,,,,,,,,high,low,,,,,,,false,,,,,false,1298999.099999994,1298998.7999999821,,1298998.099999994,,1298880.2,5,600,,
break_continue,html.Screen,10_13_2,2024-03-07T17:29:49.851Z,,,,,,,,,,,NaN,,,,,,,,high,low,,,,,,,false,,,,,false,1299000.099999994,1298999.699999988,,1298999.3999999762,,1298880.2,5,600,,
sequence,flow.Sequence,10_13,2024-03-07T17:29:49.851Z,,,,,,,,,,,8778.935999988113,completion,,,,,,,high,low,,,,,,,false,,,,,false,1299000.5,1298999.699999988,1290220.764,1290328,1290220.764,1298880.2,5,600,,
trial,html.Screen,10_14_0,2024-03-07T17:29:54.246Z,,,,1,0.0308384937406319,-0.0038396364323947,,0.04,true,hh,4514.899999994086,response,1.2600330864275875,1.1550468163290017,-1.073452556545832,1.0958628838888655,1.1499137702132625,-1.0182685904644984,high,high,,ISIC_0029825.JPG,9,ISIC_0026996.JPG,28,27,false,0.14,hh,keypress(i),0,false,1303395.2999999821,1303395.099999994,1298878.588,1299000.5,1298880.2,1303283.8,5,600,15,
break,html.Screen,10_14_1,2024-03-07T17:29:54.246Z,,,,,,,,,,,NaN,,,,,,,,high,high,,,,,,,false,,,,,false,1303395.599999994,1303395.599999994,,1303395.3999999762,,1303283.8,5,600,,
break_continue,html.Screen,10_14_2,2024-03-07T17:29:54.246Z,,,,,,,,,,,NaN,,,,,,,,high,high,,,,,,,false,,,,,false,1303395.7999999821,1303395.699999988,,1303395.599999994,,1303283.8,5,600,,
sequence,flow.Sequence,10_14,2024-03-07T17:29:54.247Z,,,,,,,,,,,4515.499999988126,completion,,,,,,,high,high,,,,,,,false,,,,,false,1303395.8999999762,1303395.699999988,1298878.588,1299000.5,1298880.2,1303283.8,5,600,,
trial,html.Screen,10_15_0,2024-03-07T17:30:10.238Z,,,,1,-0.0074667911845194,0.018500200317654,,0.04,,,16013.300000000047,timeout,1.2253191093367526,1.1550468163290017,-1.073452556545832,1.241905252673026,1.1499137702132625,-1.0182685904644984,high,high,,ISIC_0058723.JPG,9,ISIC_1195689.JPG,28,27,false,0.14,,,0,false,1319386.8999999762,1319386.5,1303267,1303395.8999999762,1303283.8,1319297.1,5,600,16,
break,html.Screen,10_15_1,2024-03-07T17:30:10.239Z,,,,,,,,,,,NaN,,,,,,,,high,high,,,,,,,false,,,,,false,1319388.3999999762,1319388,,1319387.3999999762,,1319297.1,5,600,,
break_continue,html.Screen,10_15_2,2024-03-07T17:30:10.240Z,,,,,,,,,,,NaN,,,,,,,,high,high,,,,,,,false,,,,,false,1319389.5,1319389,,1319388.699999988,,1319297.1,5,600,,
sequence,flow.Sequence,10_15,2024-03-07T17:30:10.241Z,,,,,,,,,,,16105.199999999953,completion,,,,,,,high,high,,,,,,,false,,,,,false,1319389.699999988,1319389,1303267,1303395.8999999762,1303283.8,1319297.1,5,600,,
trial,html.Screen,10_16_0,2024-03-07T17:30:22.392Z,,,,1,-0.039520186367207,-0.0377961575607372,,0.04,true,lh,12243.599999987986,response,-0.9662688541319592,1.1550468163290017,-1.073452556545832,0.929746784178986,1.1499137702132625,-1.0182685904644984,low,high,,ISIC_6356149.JPG,9,ISIC_0011077.JPG,28,25,false,0.31000000000000016,lh,keypress(e),0,false,1331541.199999988,1331540.699999988,1319280.3,1319390,1319297.1,1331423.7,5,600,17,
break,html.Screen,10_16_1,2024-03-07T17:30:22.394Z,,,,,,,,,,,NaN,,,,,,,,low,high,,,,,,,false,,,,,false,1331543,1331542.5,,1331541.699999988,,1331423.7,5,600,,
break_continue,html.Screen,10_16_2,2024-03-07T17:30:22.395Z,,,,,,,,,,,NaN,,,,,,,,low,high,,,,,,,false,,,,,false,1331544,1331543.699999988,,1331543.2999999821,,1331423.7,5,600,,
sequence,flow.Sequence,10_16,2024-03-07T17:30:22.395Z,,,,,,,,,,,12246.599999987986,completion,,,,,,,low,high,,,,,,,false,,,,,false,1331544.2999999821,1331543.699999988,1319280.3,1319389.8999999762,1319297.1,1331423.7,5,600,,
trial,html.Screen,10_17_0,2024-03-07T17:30:28.712Z,,,,1,-0.0388181790775959,0.0049623405709465,,0.04,false,hl,6436.699999976205,response,1.1898494014853933,1.1550468163290017,-1.073452556545832,-0.7016654052924971,1.1499137702132625,-1.0182685904644984,high,low,,ISIC_0061880.JPG,9,ISIC_6324832.JPG,28,26,false,0.3200000000000002,hh,keypress(i),0,false,1337860.8999999762,1337860.3999999762,1331422.048,1331544.3999999762,1331423.7,1337745.6,5,600,18,
break,html.Screen,10_17_1,2024-03-07T17:30:28.713Z,,,,,,,,,,,NaN,,,,,,,,high,low,,,,,,,false,,,,,false,1337862.2999999821,1337861.8999999762,,1337861.199999988,,1337745.6,5,600,,
break_continue,html.Screen,10_17_2,2024-03-07T17:30:28.715Z,,,,,,,,,,,NaN,,,,,,,,high,low,,,,,,,false,,,,,false,1337863.7999999821,1337863.199999988,,1337862.8999999762,,1337745.6,5,600,,
sequence,flow.Sequence,10_17,2024-03-07T17:30:28.715Z,,,,,,,,,,,6439.499999988126,completion,,,,,,,high,low,,,,,,,false,,,,,false,1337864.099999994,1337863.199999988,1331422.048,1331544.3999999762,1331423.7,1337745.6,5,600,,
trial,html.Screen,10_18_0,2024-03-07T17:30:35.576Z,,,,1,0.0286056110007553,0.036125199756515,,0.04,false,ll,6979.099999987986,response,-1.0593040390975434,1.1550468163290017,-1.073452556545832,-1.0413442695273454,1.1499137702132625,-1.0182685904644984,low,low,,ISIC_6535558.JPG,9,ISIC_0061293.JPG,28,33,false,0.1,hh,keypress(i),0,false,1344725,1344724.699999988,1337741.088,1337864.2999999821,1337745.6,1344617.9,5,600,19,
break,html.Screen,10_18_1,2024-03-07T17:30:35.577Z,,,,,,,,,,,NaN,,,,,,,,low,low,,,,,,,false,,,,,false,1344726.199999988,1344726,,1344725.2999999821,,1344617.9,5,600,,
break_continue,html.Screen,10_18_2,2024-03-07T17:30:35.578Z,,,,,,,,,,,NaN,,,,,,,,low,low,,,,,,,false,,,,,false,1344727.099999994,1344726.7999999821,,1344726.5,,1344617.9,5,600,,
sequence,flow.Sequence,10_18,2024-03-07T17:30:35.578Z,,,,,,,,,,,6981.1999999820255,completion,,,,,,,low,low,,,,,,,false,,,,,false,1344727.3999999762,1344726.7999999821,1337741.088,1337864.2999999821,1337745.6,1344617.9,5,600,,
trial,html.Screen,10_19_0,2024-03-07T17:30:48.264Z,,,,1,-0.0088741920055285,-0.0058246074740588,,0.04,false,lh,12794.699999994133,response,-0.7872534775441857,1.1550468163290017,-1.073452556545832,0.8441107693833454,1.1499137702132625,-1.0182685904644984,low,high,,ISIC_4136663.JPG,8,ISIC_0028788.JPG,28,25,false,0.31000000000000016,hh,keypress(i),0,false,1357413,1357412.599999994,1344615.338,1344727.599999994,1344617.9,1357295,5,600,20,
break,html.Screen,10_19_1,2024-03-07T17:30:48.265Z,,,,,,,,,,,NaN,,,,,,,,low,high,,,,,,,false,,,,,false,1357414.3999999762,1357414,,1357413.3999999762,,1357295,5,600,,
break_continue,html.Screen,10_19_2,2024-03-07T17:30:48.266Z,,,,,,,,,,,NaN,,,,,,,,low,high,,,,,,,false,,,,,false,1357415.3999999762,1357414.8999999762,,1357414.599999994,,1357295,5,600,,
sequence,flow.Sequence,10_19,2024-03-07T17:30:48.266Z,,,,,,,,,,,12796.999999976251,completion,,,,,,,low,high,,,,,,,false,,,,,false,1357415.599999994,1357414.8999999762,1344615.338,1344727.599999994,1344617.9,1357295,5,600,,
trial,html.Screen,10_20_0,2024-03-07T17:30:57.432Z,,,,1,-0.0199950873045219,-0.0172506388509166,,0.04,false,lh,9285.399999976158,response,-1.0788024398087033,1.1550468163290017,-1.073452556545832,0.9911875460374616,1.1499137702132625,-1.0182685904644984,low,high,,ISIC_0029906.JPG,9,ISIC_5951430.JPG,28,25,false,0.31000000000000016,ll,keypress(f),0,false,1366580.7999999821,1366580.3999999762,1357292.992,1357415.8999999762,1357295,1366469.3,5,600,21,
break,html.Screen,10_20_1,2024-03-07T17:30:57.433Z,,,,,,,,,,,NaN,,,,,,,,low,high,,,,,,,false,,,,,false,1366582.199999988,1366581.7999999821,,1366581.199999988,,1366469.3,5,600,,
break_continue,html.Screen,10_20_2,2024-03-07T17:30:57.434Z,,,,,,,,,,,NaN,,,,,,,,low,high,,,,,,,false,,,,,false,1366583.099999994,1366582.699999988,,1366582.2999999821,,1366469.3,5,600,,
sequence,flow.Sequence,10_20,2024-03-07T17:30:57.434Z,,,,,,,,,,,9287.699999988079,completion,,,,,,,low,high,,,,,,,false,,,,,false,1366583.5,1366582.699999988,1357292.992,1357415.7999999821,1357295,1366469.3,5,600,,
trial,html.Screen,10_21_0,2024-03-07T17:31:05.207Z,,,,1,-0.0199950873045219,-0.0172506388509166,,0.04,true,ll,7886.599999976112,response,-1.061329542878903,1.1550468163290017,-1.073452556545832,-1.0605755702127622,1.1499137702132625,-1.0182685904644984,low,low,,ISIC_0029906.JPG,9,ISIC_0065622.JPG,28,33,false,0.1,ll,keypress(f),0,false,1374356.099999994,1374355.8999999762,1366462.274,1366583.699999988,1366469.3,1374242.3,5,600,22,
break,html.Screen,10_21_1,2024-03-07T17:31:05.208Z,,,,,,,,,,,NaN,,,,,,,,low,low,,,,,,,false,,,,,false,1374357.199999988,1374356.7999999821,,1374356.5,,1374242.3,5,600,,
break_continue,html.Screen,10_21_2,2024-03-07T17:31:05.209Z,,,,,,,,,,,NaN,,,,,,,,low,low,,,,,,,false,,,,,false,1374357.8999999762,1374357.599999994,,1374357.3999999762,,1374242.3,5,600,,
sequence,flow.Sequence,10_21,2024-03-07T17:31:05.209Z,,,,,,,,,,,7888.299999993993,completion,,,,,,,low,low,,,,,,,false,,,,,false,1374358,1374357.599999994,1366462.274,1366583.599999994,1366469.3,1374242.3,5,600,,
trial,html.Screen,10_22_0,2024-03-07T17:31:10.070Z,,,,1,-0.0388181790775959,0.0049623405709465,,0.04,false,hl,4976.799999993993,response,0.8719231363109603,1.1550468163290017,-1.073452556545832,-0.7704280220140033,1.1499137702132625,-1.0182685904644984,high,low,,ISIC_0061880.JPG,9,ISIC_0029453.JPG,28,26,false,0.3200000000000002,hh,keypress(i),0,false,1379219.3999999762,1379219.099999994,1374236.696,1374358.199999988,1374242.3,1379113.2,5,600,23,
break,html.Screen,10_22_1,2024-03-07T17:31:10.071Z,,,,,,,,,,,NaN,,,,,,,,high,low,,,,,,,false,,,,,false,1379220.099999994,1379219.8999999762,,1379219.599999994,,1379113.2,5,600,,
break_continue,html.Screen,10_22_2,2024-03-07T17:31:10.071Z,,,,,,,,,,,NaN,,,,,,,,high,low,,,,,,,false,,,,,false,1379220.699999988,1379220.3999999762,,1379220.199999988,,1379113.2,5,600,,
sequence,flow.Sequence,10_22,2024-03-07T17:31:10.072Z,,,,,,,,,,,4978.099999976112,completion,,,,,,,high,low,,,,,,,false,,,,,false,1379220.7999999821,1379220.3999999762,1374236.696,1374358.199999988,1374242.3,1379113.2,5,600,,
trial,html.Screen,10_23_0,2024-03-07T17:31:18.807Z,,,,1,0.0257631352671967,0.0202837002774028,,0.04,false,ll,8843.099999982165,response,-1.0679712388489528,1.1550468163290017,-1.073452556545832,-1.0509600192807842,1.1499137702132625,-1.0182685904644984,low,low,,ISIC_0032797.JPG,10,ISIC_0015180.JPG,28,33,false,0.1,lh,keypress(e),0,false,1387956.599999994,1387956.2999999821,1379096.6,1379220.8999999762,1379113.2,1387854.3,5,600,24,
break,html.Screen,10_23_1,2024-03-07T17:31:18.809Z,,,,,,,,,,,NaN,,,,,,,,low,low,,,,,,,false,,,,,false,1387958.099999994,1387957.699999988,,1387957.099999994,,1387854.3,5,600,,
break_continue,html.Screen,10_23_2,2024-03-07T17:31:18.810Z,,,,,,,,,,,NaN,,,,,,,,low,low,,,,,,,false,,,,,false,1387959.199999988,1387958.699999988,,1387958.3999999762,,1387854.3,5,600,,
sequence,flow.Sequence,10_23,2024-03-07T17:31:18.810Z,,,,,,,,,,,8845.499999988126,completion,,,,,,,low,low,,,,,,,false,,,,,false,1387959.2999999821,1387958.699999988,1379096.6,1379220.7999999821,1379113.2,1387854.3,5,600,,
trial,html.Screen,10_24_0,2024-03-07T17:31:34.056Z,,,,1,-0.0164027439304477,0.0082910758715273,,0.04,false,lh,15350.099999976112,response,-0.8500530224490773,1.1550468163290017,-1.073452556545832,1.0893360711742854,1.1499137702132625,-1.0182685904644984,low,high,,ISIC_7381224.JPG,8,ISIC_2998367.JPG,28,25,false,0.31000000000000016,hh,keypress(i),0,false,1403204.8999999762,1403204.3999999762,1387833.856,1387959.2999999821,1387854.3,1403099.7,5,600,25,
break,html.Screen,10_24_1,2024-03-07T17:31:34.057Z,,,,,,,,,,,NaN,,,,,,,,low,high,,,,,,,false,,,,,false,1403206.5,1403206,,1403205.3999999762,,1403099.7,5,600,,
break_continue,html.Screen,10_24_2,2024-03-07T17:31:34.058Z,,,,,,,,,,,NaN,,,,,,,,low,high,,,,,,,false,,,,,false,1403207.5,1403207.099999994,,1403206.7999999821,,1403099.7,5,600,,
sequence,flow.Sequence,10_24,2024-03-07T17:31:34.059Z,,,,,,,,,,,15352.799999993993,completion,,,,,,,low,high,,,,,,,false,,,,,false,1403207.699999988,1403207.099999994,1387833.856,1387959.2999999821,1387854.3,1403099.7,5,600,,
trial,html.Screen,10_25_0,2024-03-07T17:31:43.048Z,,,,1,0.0220026381002083,-0.0170756452911772,,0.04,true,ll,9096.599999982165,response,-1.0333845898785206,1.1550468163290017,-1.073452556545832,-0.998838774713298,1.1499137702132625,-1.0182685904644984,low,low,,ISIC_5347806.JPG,8,ISIC_0010486.JPG,28,33,false,0.1,ll,keypress(f),0,false,1412196.699999988,1412196.2999999821,1403082.6,1403208,1403099.7,1412090.1,5,600,26,
break,html.Screen,10_25_1,2024-03-07T17:31:43.049Z,,,,,,,,,,,NaN,,,,,,,,low,low,,,,,,,false,,,,,false,1412197.8999999762,1412197.599999994,,1412197,,1412090.1,5,600,,
break_continue,html.Screen,10_25_2,2024-03-07T17:31:43.050Z,,,,,,,,,,,NaN,,,,,,,,low,low,,,,,,,false,,,,,false,1412198.699999988,1412198.3999999762,,1412198,,1412090.1,5,600,,
sequence,flow.Sequence,10_25,2024-03-07T17:31:43.050Z,,,,,,,,,,,9098.699999976205,completion,,,,,,,low,low,,,,,,,false,,,,,false,1412199,1412198.3999999762,1403082.6,1403207.8999999762,1403099.7,1412090.1,5,600,,
trial,html.Screen,10_26_0,2024-03-07T17:31:46.392Z,,,,1,0.0119001144851157,-0.0063430114540141,,0.04,true,ll,3450.899999999907,response,-1.0665699221890637,1.1550468163290017,-1.073452556545832,-1.0106762707163983,1.1499137702132625,-1.0182685904644984,low,low,,ISIC_0003822.JPG,8,ISIC_1630301.JPG,28,33,false,0.1,ll,keypress(f),0,false,1415541.3999999762,1415541,1412073.5,1412199.2999999821,1412090.1,1415441.106,5,600,27,
break,html.Screen,10_26_1,2024-03-07T17:31:46.394Z,,,,,,,,,,,NaN,,,,,,,,low,low,,,,,,,false,,,,,false,1415543,1415542.5,,1415541.7999999821,,1415441.106,5,600,,
break_continue,html.Screen,10_26_2,2024-03-07T17:31:46.395Z,,,,,,,,,,,NaN,,,,,,,,low,low,,,,,,,false,,,,,false,1415544,1415543.599999994,,1415543.199999988,,1415441.106,5,600,,
sequence,flow.Sequence,10_26,2024-03-07T17:31:46.395Z,,,,,,,,,,,3453.4999999939464,completion,,,,,,,low,low,,,,,,,false,,,,,false,1415544.2999999821,1415543.599999994,1412073.5,1412199.199999988,1412090.1,1415441.106,5,600,,
trial,html.Screen,10_27_0,2024-03-07T17:32:02.397Z,,,,1,0.0044063257337227,0.0172548282859886,,0.04,,,16015.094000000041,timeout,-0.7714570894008278,1.1550468163290017,-1.073452556545832,0.9113656554657036,1.1499137702132625,-1.0182685904644984,low,high,,ISIC_7413786.JPG,9,ISIC_4529092.JPG,28,25,false,0.31000000000000016,,,0,false,1431546.2999999821,1431545.8999999762,1415441.106,1415544.5,1415441.106,1431456.2,5,600,28,
break,html.Screen,10_27_1,2024-03-07T17:32:02.399Z,,,,,,,,,,,NaN,,,,,,,,low,high,,,,,,,false,,,,,false,1431547.5,1431547.199999988,,1431546.699999988,,1431456.2,5,600,,
break_continue,html.Screen,10_27_2,2024-03-07T17:32:02.400Z,,,,,,,,,,,NaN,,,,,,,,low,high,,,,,,,false,,,,,false,1431548.8999999762,1431548.3999999762,,1431547.7999999821,,1431456.2,5,600,,
sequence,flow.Sequence,10_27,2024-03-07T17:32:02.400Z,,,,,,,,,,,16107.293999976246,completion,,,,,,,low,high,,,,,,,false,,,,,false,1431549.199999988,1431548.3999999762,1415441.106,1415544.5,1415441.106,1431456.2,5,600,,
trial,html.Screen,10_28_0,2024-03-07T17:32:07.592Z,,,,1,-0.0374659946425444,-0.0086043094957617,,0.04,true,ll,5283.999999988126,response,-1.0980226451001782,1.1550468163290017,-1.073452556545832,-0.9421419207281913,1.1499137702132625,-1.0182685904644984,low,low,,ISIC_0033051.JPG,9,ISIC_0060481.JPG,28,33,false,0.1,ll,keypress(f),0,false,1436740.599999994,1436740.199999988,1431439.6,1431549.5,1431456.2,1436627.1,5,600,29,
break,html.Screen,10_28_1,2024-03-07T17:32:07.593Z,,,,,,,,,,,NaN,,,,,,,,low,low,,,,,,,false,,,,,false,1436742.199999988,1436741.7999999821,,1436741,,1436627.1,5,600,,
break_continue,html.Screen,10_28_2,2024-03-07T17:32:07.594Z,,,,,,,,,,,NaN,,,,,,,,low,low,,,,,,,false,,,,,false,1436743.199999988,1436742.7999999821,,1436742.5,,1436627.1,5,600,,
sequence,flow.Sequence,10_28,2024-03-07T17:32:07.595Z,,,,,,,,,,,5286.599999982165,completion,,,,,,,low,low,,,,,,,false,,,,,false,1436743.599999994,1436742.7999999821,1431439.6,1431549.3999999762,1431456.2,1436627.1,5,600,,
trial,html.Screen,10_29_0,2024-03-07T17:32:19.000Z,,,,1,0.0257631352671967,0.0202837002774028,,0.04,false,lh,11521.699999982025,response,-0.9244148283103414,1.1550468163290017,-1.073452556545832,0.9712966348713286,1.1499137702132625,-1.0182685904644984,low,high,,ISIC_0032797.JPG,9,ISIC_7927525.JPG,28,25,false,0.31000000000000016,hh,keypress(i),0,false,1448149.099999994,1448148.7999999821,1436623.666,1436743.699999988,1436627.1,1448036.6,5,600,30,
break,html.Screen,10_29_1,2024-03-07T17:32:19.002Z,,,,,,,,,,,NaN,,,,,,,,low,high,,,,,,,false,,,,,false,1448150.5,1448150.199999988,,1448149.5,,1448036.6,5,600,,
break_continue,html.Screen,10_29_2,2024-03-07T17:32:19.003Z,,,,,,,,,,,NaN,,,,,,,,low,high,,,,,,,false,,,,,false,1448151.5,1448151,,1448150.7999999821,,1448036.6,5,600,,
sequence,flow.Sequence,10_29,2024-03-07T17:32:19.003Z,,,,,,,,,,,11523.899999999907,completion,,,,,,,low,high,,,,,,,false,,,,,false,1448151.7999999821,1448151,1436623.666,1436743.699999988,1436627.1,1448036.6,5,600,,
trial,html.Screen,10_30_0,2024-03-07T17:32:21.336Z,,,,1,-0.039520186367207,-0.0377961575607372,,0.04,true,hh,2447.899999999907,response,1.1441960791049337,1.1550468163290017,-1.073452556545832,1.0156321899655198,1.1499137702132625,-1.0182685904644984,high,high,,ISIC_6356149.JPG,9,ISIC_4023381.JPG,28,27,false,0.14,hh,keypress(i),0,false,1450484.8999999762,1450484.5,1448035.576,1448152,1448036.6,1450371.7,5,600,31,
break,html.Screen,10_30_1,2024-03-07T17:32:21.338Z,,,,,,,,,,,NaN,,,,,,,,high,high,,,,,,,false,,,,,false,1450486.599999994,1450486.2999999821,,1450485.2999999821,,1450371.7,5,600,,
break_continue,html.Screen,10_30_2,2024-03-07T17:32:21.339Z,,,,,,,,,,,NaN,,,,,,,,high,high,,,,,,,false,,,,,false,1450487.699999988,1450487.2999999821,,1450486.8999999762,,1450371.7,5,600,,
sequence,flow.Sequence,10_30,2024-03-07T17:32:21.339Z,,,,,,,,,,,2450.6999999820255,completion,,,,,,,high,high,,,,,,,false,,,,,false,1450488.099999994,1450487.2999999821,1448035.576,1448151.8999999762,1448036.6,1450371.7,5,600,,
trial,html.Screen,10_31_0,2024-03-07T17:32:37.326Z,,,,1,-0.0109416414475118,-0.005246498750811,,0.04,,,16013.300000000047,timeout,-0.8443403196524287,1.1550468163290017,-1.073452556545832,0.8858525429102605,1.1499137702132625,-1.0182685904644984,low,high,,ISIC_0064279.JPG,9,ISIC_8777813.JPG,28,25,false,0.31000000000000016,,,0,false,1466475,1466474.5,1450370.88,1450488.3999999762,1450371.7,1466385,5,600,32,
break,html.Screen,10_31_1,2024-03-07T17:32:37.328Z,,,,,,,,,,,NaN,,,,,,,,low,high,,,,,,,false,,,,,false,1466476.3999999762,1466476.099999994,,1466475.3999999762,,1466385,5,600,,
break_continue,html.Screen,10_31_2,2024-03-07T17:32:37.328Z,,,,,,,,,,,NaN,,,,,,,,low,high,,,,,,,false,,,,,false,1466477.3999999762,1466477,,1466476.699999988,,1466385,5,600,,
sequence,flow.Sequence,10_31,2024-03-07T17:32:37.329Z,,,,,,,,,,,16105.300000000047,completion,,,,,,,low,high,,,,,,,false,,,,,false,1466477.699999988,1466477,1450370.88,1450488.2999999821,1450371.7,1466385,5,600,,
trial,html.Screen,10_32_0,2024-03-07T17:32:43.176Z,,,,1,0.0200295718112167,0.0155559071275806,,0.04,true,ll,5939.899999976158,response,-1.0849202097813322,1.1550468163290017,-1.073452556545832,-1.0851127310415287,1.1499137702132625,-1.0182685904644984,low,low,,ISIC_0061343.JPG,9,ISIC_0010289.JPG,28,33,false,0.1,ll,keypress(f),0,false,1472325.3999999762,1472324.8999999762,1466368.5,1466477.8999999762,1466385,1472223,5,600,33,
break,html.Screen,10_32_1,2024-03-07T17:32:43.178Z,,,,,,,,,,,NaN,,,,,,,,low,low,,,,,,,false,,,,,false,1472326.8999999762,1472326.3999999762,,1472325.7999999821,,1472223,5,600,,
break_continue,html.Screen,10_32_2,2024-03-07T17:32:43.179Z,,,,,,,,,,,NaN,,,,,,,,low,low,,,,,,,false,,,,,false,1472328.099999994,1472327.599999994,,1472327.2999999821,,1472223,5,600,,
sequence,flow.Sequence,10_32,2024-03-07T17:32:43.180Z,,,,,,,,,,,5942.5999999940395,completion,,,,,,,low,low,,,,,,,false,,,,,false,1472328.599999994,1472327.599999994,1466368.5,1466477.7999999821,1466385,1472223,5,600,,
trial,html.Screen,10_33_0,2024-03-07T17:32:57.416Z,,,,1,0.0009714874637896,-0.0174815595031679,,0.04,false,hl,14341.299999982119,response,1.0369885917487718,1.1550468163290017,-1.073452556545832,-0.8486937878412699,1.1499137702132625,-1.0182685904644984,high,low,,ISIC_9848743.JPG,9,ISIC_6917681.JPG,28,26,false,0.3200000000000002,ll,keypress(f),0,false,1486564.599999994,1486564.2999999821,1472219.106,1472328.8999999762,1472223,1486451.5,5,600,34,
break,html.Screen,10_33_1,2024-03-07T17:32:57.417Z,,,,,,,,,,,NaN,,,,,,,,high,low,,,,,,,false,,,,,false,1486566.099999994,1486565.699999988,,1486565,,1486451.5,5,600,,
break_continue,html.Screen,10_33_2,2024-03-07T17:32:57.418Z,,,,,,,,,,,NaN,,,,,,,,high,low,,,,,,,false,,,,,false,1486567,1486566.699999988,,1486566.199999988,,1486451.5,5,600,,
sequence,flow.Sequence,10_33,2024-03-07T17:32:57.419Z,,,,,,,,,,,14343.699999988079,completion,,,,,,,high,low,,,,,,,false,,,,,false,1486567.2999999821,1486566.699999988,1472219.106,1472328.8999999762,1472223,1486451.5,5,600,,
trial,html.Screen,10_34_0,2024-03-07T17:33:10.680Z,,,,1,-0.0109416414475118,-0.005246498750811,,0.04,true,ll,13377.199999988079,response,-1.0454436589399478,1.1550468163290017,-1.073452556545832,-1.110086733022912,1.1499137702132625,-1.0182685904644984,low,low,,ISIC_0064279.JPG,10,ISIC_0053916.JPG,28,33,false,0.1,ll,keypress(f),0,false,1499829.199999988,1499828.699999988,1486448.13,1486567.5,1486451.5,1499712.4,5,600,35,
break,html.Screen,10_34_1,2024-03-07T17:33:10.682Z,,,,,,,,,,,NaN,,,,,,,,low,low,,,,,,,false,,,,,false,1499830.5,1499830.199999988,,1499829.5,,1499712.4,5,600,,
break_continue,html.Screen,10_34_2,2024-03-07T17:33:10.683Z,,,,,,,,,,,NaN,,,,,,,,low,low,,,,,,,false,,,,,false,1499831.5,1499831.099999994,,1499830.699999988,,1499712.4,5,600,,
sequence,flow.Sequence,10_34,2024-03-07T17:33:10.683Z,,,,,,,,,,,13379.59999999404,completion,,,,,,,low,low,,,,,,,false,,,,,false,1499831.7999999821,1499831.099999994,1486448.13,1486567.5,1486451.5,1499712.4,5,600,,
trial,html.Screen,10_35_0,2024-03-07T17:33:23.736Z,,,,1,0,-0.0102871556606504,,0.04,true,ll,13172.399999982212,response,-1.0980226451001782,1.1550468163290017,-1.073452556545832,-0.9421419207281913,1.1499137702132625,-1.0182685904644984,low,low,,ISIC_1805163.JPG,8,ISIC_0060481.JPG,28,33,false,0.1,ll,keypress(f),0,false,1512885.099999994,1512884.7999999821,1499709.902,1499832,1499712.4,1512773.2,5,600,36,
break,html.Screen,10_35_1,2024-03-07T17:33:23.738Z,,,,,,,,,,,NaN,,,,,,,,low,low,,,,,,,false,,,,,false,1512886.599999994,1512886.2999999821,,1512885.5,,1512773.2,5,600,,
break_continue,html.Screen,10_35_2,2024-03-07T17:33:23.739Z,,,,,,,,,,,NaN,,,,,,,,low,low,,,,,,,false,,,,,false,1512887.599999994,1512887.199999988,,1512886.7999999821,,1512773.2,5,600,,
sequence,flow.Sequence,10_35,2024-03-07T17:33:23.739Z,,,,,,,,,,,13174.799999988172,completion,,,,,,,low,low,,,,,,,false,,,,,false,1512887.8999999762,1512887.199999988,1499709.902,1499832,1499712.4,1512773.2,5,600,,
trial,html.Screen,10_36_0,2024-03-07T17:33:29.816Z,,,,1,0.0367744112927588,0.0324865661712824,,0.04,false,lh,6191.199999976205,response,-1.168911077628813,1.1550468163290017,-1.073452556545832,1.2181838235193114,1.1499137702132625,-1.0182685904644984,low,high,,ISIC_4523565.JPG,9,ISIC_7358691.JPG,28,25,false,0.31000000000000016,hl,keypress(j),0,false,1518964.699999988,1518964.3999999762,1512770.91,1512888.199999988,1512773.2,1518862.6,5,600,37,
break,html.Screen,10_36_1,2024-03-07T17:33:29.817Z,,,,,,,,,,,NaN,,,,,,,,low,high,,,,,,,false,,,,,false,1518966.2999999821,1518965.7999999821,,1518965.099999994,,1518862.6,5,600,,
break_continue,html.Screen,10_36_2,2024-03-07T17:33:29.819Z,,,,,,,,,,,NaN,,,,,,,,low,high,,,,,,,false,,,,,false,1518967.3999999762,1518966.7999999821,,1518966.5,,1518862.6,5,600,,
sequence,flow.Sequence,10_36,2024-03-07T17:33:29.819Z,,,,,,,,,,,6193.599999982165,completion,,,,,,,low,high,,,,,,,false,,,,,false,1518967.699999988,1518966.7999999821,1512770.91,1512888.099999994,1512773.2,1518862.6,5,600,,
trial,html.Screen,10_37_0,2024-03-07T17:33:38.296Z,,,,1,-0.0164027439304477,0.0082910758715273,,0.04,false,lh,8581.699999982025,response,-1.2020012168275056,1.1550468163290017,-1.073452556545832,0.923753102263735,1.1499137702132625,-1.0182685904644984,low,high,,ISIC_7381224.JPG,9,ISIC_0000022.JPG,28,25,false,0.31000000000000016,ll,keypress(f),0,false,1527444.599999994,1527444.2999999821,1518857.43,1518968,1518862.6,1527335.2,5,600,38,
break,html.Screen,10_37_1,2024-03-07T17:33:38.297Z,,,,,,,,,,,NaN,,,,,,,,low,high,,,,,,,false,,,,,false,1527445.8999999762,1527445.5,,1527445,,1527335.2,5,600,,
break_continue,html.Screen,10_37_2,2024-03-07T17:33:38.298Z,,,,,,,,,,,NaN,,,,,,,,low,high,,,,,,,false,,,,,false,1527446.7999999821,1527446.2999999821,,1527446,,1527335.2,5,600,,
sequence,flow.Sequence,10_37,2024-03-07T17:33:38.298Z,,,,,,,,,,,8583.699999982025,completion,,,,,,,low,high,,,,,,,false,,,,,false,1527447.099999994,1527446.2999999821,1518857.43,1518967.7999999821,1518862.6,1527335.2,5,600,,
trial,html.Screen,10_38_0,2024-03-07T17:33:46.469Z,,,,1,-0.0109416414475118,-0.005246498750811,,0.04,false,ll,8282.499999988126,response,-1.1615479475206127,1.1550468163290017,-1.073452556545832,-0.958261725041355,1.1499137702132625,-1.0182685904644984,low,low,,ISIC_0064279.JPG,8,ISIC_0064427.JPG,28,33,false,0.1,hl,keypress(j),0,false,1535617.7999999821,1535617.699999988,1527318.7,1527447.199999988,1527335.2,1535508.6,5,600,39,
break,html.Screen,10_38_1,2024-03-07T17:33:46.469Z,,,,,,,,,,,NaN,,,,,,,,low,low,,,,,,,false,,,,,false,1535618.199999988,1535618.099999994,,1535617.8999999762,,1535508.6,5,600,,
break_continue,html.Screen,10_38_2,2024-03-07T17:33:46.470Z,,,,,,,,,,,NaN,,,,,,,,low,low,,,,,,,false,,,,,false,1535618.599999994,1535618.3999999762,,1535618.2999999821,,1535508.6,5,600,,
sequence,flow.Sequence,10_38,2024-03-07T17:33:46.470Z,,,,,,,,,,,8283.199999976205,completion,,,,,,,low,low,,,,,,,false,,,,,false,1535618.699999988,1535618.3999999762,1527318.7,1527447.099999994,1527335.2,1535508.6,5,600,,
