sender,sender_type,sender_id,timestamp,meta,,age,blockNo,c1,c2,condition,control_tolerance,correct,correctResponse,duration,ended_on,f1,f1_high,f1_low,f2,f2_high,f2_low,feature_level1,feature_level2,gender,img_left,img_reveal,img_right,n_control_images,n_target_images,practice,range_tolerance,response,response_action,selection_duration,staircase,time_commit,time_end,time_render,time_run,time_show,time_switch,total_blocks,total_trials,trialNo,url
informed_consent,html.Screen,0,2023-11-29T17:43:02.837Z,"{""labjs_version"":""20.2.4"",""labjs_build"":{""flavor"":""development"",""commit"":""f5b4a49f956347addd546a832a3327688c2c0fef""},""location"":""https://labjs.felixhenninger.com/api/labjs_preview/index.html"",""userAgent"":""Mozilla/5.0 (Windows NT 10.0; Win64; x64) AppleWebKit/537.36 (KHTML, like Gecko) Chrome/119.0.0.0 Safari/537.36"",""platform"":""Win32"",""language"":""en-US"",""locale"":""en-US"",""timeZone"":""America/Chicago"",""timezoneOffset"":360,""screen_width"":1920,""screen_height"":1080,""scroll_width"":945,""scroll_height"":918,""window_innerWidth"":945,""window_innerHeight"":966,""devicePixelRatio"":1}",,,,,,,,,,41443.11600004768,response,,,,,,,,,,,,,,,,,consent,click button,,,42187.10000014305,42178.700000047684,718.952,957.6000001430511,735.584,41960.199,,,,{}
Demography form,html.Form,1,2023-11-29T17:43:10.222Z,,,18,,,,,,,,7611.001000047683,form submission,,,,,,,,,female,,,,,,,,,,,,49571.40000009537,49571.200000047684,41943.644,42187.299999952316,41960.199,49350.922,,,,
Welcome,html.Screen,2,2023-11-29T17:44:13.495Z,,,,,,,"[""bor"",""col""]",,,,63491.87799995232,response,,,,,,,,,,,,,,,,,continue,click button,,,112843.5,112842.79999995232,49334.224,49571.5,49350.922,112631.135,,,,
demo_instructions,html.Screen,3,2023-11-29T17:44:55.863Z,,,,,,,,,,,42579.865000000005,response,,,,,,,,,,,,,,,,,continue,click button,,,155211.5,155211,112614.481,112843.79999995232,112631.135,154989.978,,,,
trial,html.Screen,4_0_0,2023-11-29T17:45:14.604Z,,,,0,-1.0769708994456726,-1.2196503533725178,,,true,hh,18961.922000095365,response,1.2724293858920366,1.2,-1.2,1.149360738769835,1.2,-1.2,high,high,,ISIC_0063824.JPG,,ISIC_1264725.JPG,,25,true,0.14,hh,keypress(i),100,false,173952.10000014305,173951.90000009537,154973.553,155211.70000004768,154989.978,173742.099,1,16,1,
sequence,flow.Sequence,4_0,2023-11-29T17:45:14.604Z,,,,,,,,,,,18961.922000095365,completion,,,,,,,high,high,,,,,,,true,,,,,false,173952.29999995232,173951.90000009537,154973.553,155211.70000004768,154989.978,173742.099,1,16,,
trial,html.Screen,4_1_0,2023-11-29T17:45:21.826Z,,,,0,-1.0915173513546716,-1.266840220031473,,,true,hh,7432.001000143064,response,1.109799097093339,1.2,-1.2,1.091507924157762,1.2,-1.2,high,high,,ISIC_8241457.JPG,,ISIC_0765584.JPG,,25,true,0.14,hh,keypress(i),100,false,181174.5,181174.10000014305,173725.442,173952.40000009537,173742.099,180966.123,1,16,2,
sequence,flow.Sequence,4_1,2023-11-29T17:45:21.827Z,,,,,,,,,,,7432.001000143064,completion,,,,,,,high,high,,,,,,,true,,,,,false,181175,181174.10000014305,173725.442,173952.29999995232,173742.099,180966.123,1,16,,
trial,html.Screen,4_2_0,2023-11-29T17:45:29.839Z,,,,0,-1.2194553326562725,-1.2381726989215684,,,true,hh,8220.977000143059,response,1.2219550761700546,1.2,-1.2,1.2809901875733454,1.2,-1.2,high,high,,ISIC_0068975.JPG,,ISIC_6463417.JPG,,25,true,0.14,hh,keypress(i),100,false,189187.40000009537,189187.10000014305,180949.337,181175.40000009537,180966.123,188990.729,1,16,3,
sequence,flow.Sequence,4_2,2023-11-29T17:45:29.840Z,,,,,,,,,,,8220.977000143059,completion,,,,,,,high,high,,,,,,,true,,,,,false,189188.10000014305,189187.10000014305,180949.337,181175.20000004768,180966.123,188990.729,1,16,,
trial,html.Screen,4_3_0,2023-11-29T17:45:33.597Z,,,,0,-1.186629690487006,-1.3269945600040771,,,true,hh,3953.771000000008,response,1.160746324899676,1.2,-1.2,1.1927876559115576,1.2,-1.2,high,high,,ISIC_0015390.JPG,,ISIC_8651053.JPG,,25,true,0.14,hh,keypress(i),100,false,192944.79999995232,192944.5,188974.176,189188.40000009537,188990.729,192744.494,1,16,4,
sequence,flow.Sequence,4_3,2023-11-29T17:45:33.597Z,,,,,,,,,,,3953.771000000008,completion,,,,,,,high,high,,,,,,,true,,,,,false,192945.29999995232,192944.5,188974.176,189188.29999995232,188990.729,192744.494,1,16,,
trial,html.Screen,4_4_0,2023-11-29T17:45:48.309Z,,,,0,1.2804054832904397,1.171271535505083,,,true,ll,14912.606000143045,response,-1.0849202097813322,1.2,-1.2,-1.0851127310415287,1.2,-1.2,low,low,,ISIC_7889838.JPG,,ISIC_0010289.JPG,,30,true,0.13,ll,keypress(f),100,false,207657.5,207657.10000014305,192727.911,192945.60000014305,192744.494,207459.346,1,16,5,
sequence,flow.Sequence,4_4,2023-11-29T17:45:48.309Z,,,,,,,,,,,14912.606000143045,completion,,,,,,,low,low,,,,,,,true,,,,,false,207657.70000004768,207657.10000014305,192727.911,192945.5,192744.494,207459.346,1,16,,
trial,html.Screen,4_5_0,2023-11-29T17:45:52.957Z,,,,0,1.2541318165695772,1.085289936617366,,,true,ll,4845.65400000001,response,-1.1017564906891342,1.2,-1.2,-1.293633394635193,1.2,-1.2,low,low,,ISIC_4277207.JPG,,ISIC_0029026.JPG,,40,true,0.14,ll,keypress(f),100,false,212305.40000009537,212305,207442.641,207657.90000009537,207459.346,212097.21,1,16,6,
sequence,flow.Sequence,4_5,2023-11-29T17:45:52.957Z,,,,,,,,,,,4845.65400000001,completion,,,,,,,low,low,,,,,,,true,,,,,false,212305.70000004768,212305,207442.641,207657.90000009537,207459.346,212097.21,1,16,,
trial,html.Screen,4_6_0,2023-11-29T17:46:00.233Z,,,,0,1.1843968275545205,1.2828739728067764,,,true,ll,7483.390000143059,response,-1.1936751736668425,1.2,-1.2,-1.2584308630745344,1.2,-1.2,low,low,,ISIC_0002901.JPG,,ISIC_0061265.JPG,,40,true,0.14,ll,keypress(f),100,false,219580.79999995232,219580.60000014305,212080.48,212305.90000009537,212097.21,219371.253,1,16,7,
sequence,flow.Sequence,4_6,2023-11-29T17:46:00.234Z,,,,,,,,,,,7483.390000143059,completion,,,,,,,low,low,,,,,,,true,,,,,false,219581.10000014305,219580.60000014305,212080.48,212305.79999995232,212097.21,219371.253,1,16,,
trial,html.Screen,4_7_0,2023-11-29T17:46:49.586Z,,,,0,1.2100527057059796,1.2159112471537263,,,true,ll,49562.04699995232,response,-1.061329542878903,1.2,-1.2,-1.0605755702127622,1.2,-1.2,low,low,,ISIC_0008055.JPG,,ISIC_0065622.JPG,,40,true,0.14,ll,keypress(f),100,false,268933.5,268933.2999999523,219354.479,219581.20000004768,219371.253,268737.352,1,16,8,
sequence,flow.Sequence,4_7,2023-11-29T17:46:49.586Z,,,,,,,,,,,49562.04699995232,completion,,,,,,,low,low,,,,,,,true,,,,,false,268933.7999999523,268933.2999999523,219354.479,219581.20000004768,219371.253,268737.352,1,16,,
trial,html.Screen,4_8_0,2023-11-29T17:47:22.286Z,,,,0,1.199471562817528,-0.8631260534979347,,,true,lh,32894.4479999523,response,-1.2020012168275056,1.2,-1.2,0.923753102263735,1.2,-1.2,low,high,,ISIC_0030754.JPG,,ISIC_0000022.JPG,,27,true,0.40000000000000024,lh,keypress(e),100,false,301632.10000014305,301631.7999999523,268720.528,268933.90000009537,268737.352,301419.929,1,16,9,
sequence,flow.Sequence,4_8,2023-11-29T17:47:22.286Z,,,,,,,,,,,32894.4479999523,completion,,,,,,,low,high,,,,,,,true,,,,,false,301632.40000009537,301631.7999999523,268720.528,268933.7999999523,268737.352,301419.929,1,16,,
trial,html.Screen,4_9_0,2023-11-29T17:47:30.218Z,,,,0,0.7882758084023446,-0.8296405881378283,,,true,lh,8144.27100004768,response,-0.9138670886161264,1.2,-1.2,0.8414121478342018,1.2,-1.2,low,high,,ISIC_0065882.JPG,,ISIC_6709052.JPG,,40,true,0.4500000000000003,lh,keypress(e),100,false,309564.40000009537,309564.2000000477,301403.38,301632.60000014305,301419.929,309361.209,1,16,10,
sequence,flow.Sequence,4_9,2023-11-29T17:47:30.219Z,,,,,,,,,,,8144.27100004768,completion,,,,,,,low,high,,,,,,,true,,,,,false,309564.90000009537,309564.2000000477,301403.38,301632.5,301419.929,309361.209,1,16,,
trial,html.Screen,4_10_0,2023-11-29T17:47:37.624Z,,,,0,0.7991459998473059,-1.0280788723474688,,,true,lh,7608.49100004771,response,-0.9111352818043872,1.2,-1.2,0.7517932332411794,1.2,-1.2,low,high,,ISIC_7951202.JPG,,ISIC_3346045.JPG,,40,true,0.4500000000000003,lh,keypress(e),100,false,316969.90000009537,316969.7000000477,309344.524,309565.10000014305,309361.209,316768.733,1,16,11,
sequence,flow.Sequence,4_10,2023-11-29T17:47:37.624Z,,,,,,,,,,,7608.49100004771,completion,,,,,,,low,high,,,,,,,true,,,,,false,316970,316969.7000000477,309344.524,309565,309361.209,316768.733,1,16,,
trial,html.Screen,4_11_0,2023-11-29T17:47:52.310Z,,,,0,1.075512775389519,-1.0454702683049502,,,true,lh,14887.66700009536,response,-0.8047295996345292,1.2,-1.2,1.551750455622795,1.2,-1.2,low,high,,ISIC_0033603.JPG,,ISIC_7717907.JPG,,40,true,0.4500000000000003,lh,keypress(e),100,false,331656.60000014305,331656.40000009537,316751.94,316970.10000014305,316768.733,331449.933,1,16,12,
sequence,flow.Sequence,4_11,2023-11-29T17:47:52.311Z,,,,,,,,,,,14887.66700009536,completion,,,,,,,low,high,,,,,,,true,,,,,false,331656.7999999523,331656.40000009537,316751.94,316970,316768.733,331449.933,1,16,,
trial,html.Screen,4_12_0,2023-11-29T17:48:51.971Z,,,,0,-0.8067116931297591,1.215898074058027,,,true,hl,59866.66700014303,response,1.0369885917487718,1.2,-1.2,-0.8486937878412699,1.2,-1.2,high,low,,ISIC_1457687.JPG,,ISIC_6917681.JPG,,26,true,0.4500000000000003,hl,keypress(j),100,false,391316.7000000477,391316.60000014305,331433.31,331656.7999999523,331449.933,391109.697,1,16,13,
sequence,flow.Sequence,4_12,2023-11-29T17:48:51.971Z,,,,,,,,,,,59866.66700014303,completion,,,,,,,high,low,,,,,,,true,,,,,false,391316.7999999523,391316.60000014305,331433.31,331656.7999999523,331449.933,391109.697,1,16,,
trial,html.Screen,4_13_0,2023-11-29T17:49:07.065Z,,,,0,-0.8443403196524287,0.8858525429102605,,,true,hl,15300.10299995233,response,1.3046390428588206,1.2,-1.2,-0.7942099232219556,1.2,-1.2,high,low,,ISIC_8777813.JPG,,ISIC_0013096.JPG,,26,true,0.4500000000000003,hl,keypress(j),100,false,406410,406409.7999999523,391093.022,391316.90000009537,391109.697,406208.124,1,16,14,
sequence,flow.Sequence,4_13,2023-11-29T17:49:07.065Z,,,,,,,,,,,15300.10299995233,completion,,,,,,,high,low,,,,,,,true,,,,,false,406410.2999999523,406409.7999999523,391093.022,391316.90000009537,391109.697,406208.124,1,16,,
trial,html.Screen,4_14_0,2023-11-29T17:49:15.350Z,,,,0,-0.8867328775712738,1.0063426986460375,,,true,hl,8486.076000047673,response,0.7883321712536753,1.2,-1.2,-1.0011430756825364,1.2,-1.2,high,low,,ISIC_0055759.JPG,,ISIC_9828853.JPG,,26,true,0.4500000000000003,hl,keypress(j),100,false,414694.40000009537,414694.2000000477,406191.491,406410.40000009537,406208.124,414483.107,1,16,15,
sequence,flow.Sequence,4_14,2023-11-29T17:49:15.350Z,,,,,,,,,,,8486.076000047673,completion,,,,,,,high,low,,,,,,,true,,,,,false,414694.7000000477,414694.2000000477,406191.491,406410.2999999523,406208.124,414483.107,1,16,,
trial,html.Screen,4_15_0,2023-11-29T17:49:22.903Z,,,,0,-0.9138670886161264,0.8414121478342018,,,true,hl,7764.692999952298,response,1.075512775389519,1.2,-1.2,-1.0454702683049502,1.2,-1.2,high,low,,ISIC_6709052.JPG,,ISIC_0033603.JPG,,26,true,0.4500000000000003,hl,keypress(j),100,false,422248,422247.7999999523,414466.413,414694.90000009537,414483.107,422040.642,1,16,16,
sequence,flow.Sequence,4_15,2023-11-29T17:49:22.903Z,,,,,,,,,,,7764.692999952298,completion,,,,,,,high,low,,,,,,,true,,,,,false,422248.10000014305,422247.7999999523,414466.413,414694.90000009537,414483.107,422040.642,1,16,,
demonstration_loop,flow.Loop,4,2023-11-29T17:49:22.903Z,,,,,,,,,,,267257.8219999523,completion,,,,,,,,,,,,,,,true,,,,,false,422248.2000000477,422247.7999999523,154973.553,155211.60000014305,154989.978,422040.642,1,16,,
practice_instructions,html.Screen,5,2023-11-29T17:49:39.291Z,,,,,,,,,,,16586.45800014306,response,,,,,,,,,,,,,,,,,continue,click button,,,438635.90000009537,438627.10000014305,422023.987,422248.2000000477,422040.642,438440.367,,,,
trial,html.Screen,6_0_0,2023-11-29T17:49:55.104Z,,,,1,1.3046390428588206,-0.7942099232219556,,,,,15782.45299999998,timeout,-1.045301444872812,1.2,-1.2,1.0872560254441277,1.2,-1.2,low,high,,ISIC_0013096.JPG,,ISIC_4507700.JPG,,27,true,0.40000000000000024,,,0,false,454448,454448,438390.614,438636,438440.367,454222.82,1,40,1,
sequence,flow.Sequence,6_0,2023-11-29T17:49:55.104Z,,,,,,,,,,,16007.632999999973,completion,,,,,,,low,high,,,,,,,true,,,,,false,454448.2999999523,454448,438390.614,438636,438440.367,454222.82,1,40,,
trial,html.Screen,6_1_0,2023-11-29T17:50:02.103Z,,,,1,-1.2118207001489876,-1.3164676315545727,,,true,hh,7223.979999952309,response,1.0355093302574103,1.2,-1.2,1.40734292812672,1.2,-1.2,high,high,,ISIC_0066476.JPG,,ISIC_0046729.JPG,,265,true,0.4500000000000003,hh,keypress(i),0,false,461446.90000009537,461446.7999999523,454206.207,454448.2999999523,454222.82,461246.513,1,40,2,
sequence,flow.Sequence,6_1,2023-11-29T17:50:02.103Z,,,,,,,,,,,7223.979999952309,completion,,,,,,,high,high,,,,,,,true,,,,,false,461447.10000014305,461446.7999999523,454206.207,454448.2999999523,454222.82,461246.513,1,40,,
trial,html.Screen,6_2_0,2023-11-29T17:50:09.307Z,,,,1,0.8110121381849364,-0.7563142141851558,,,true,lh,7404.88700009539,response,-0.8307508446051526,1.2,-1.2,1.1707575338936729,1.2,-1.2,low,high,,ISIC_0033605.JPG,,ISIC_0028606.JPG,,27,true,0.40000000000000024,lh,keypress(e),0,false,468651.5,468651.40000009537,461229.871,461447.10000014305,461246.513,468437.074,1,40,3,
sequence,flow.Sequence,6_2,2023-11-29T17:50:09.308Z,,,,,,,,,,,7404.88700009539,completion,,,,,,,low,high,,,,,,,true,,,,,false,468651.7000000477,468651.40000009537,461229.871,461447.10000014305,461246.513,468437.074,1,40,,
trial,html.Screen,6_3_0,2023-11-29T17:50:17.740Z,,,,1,-1.268445326285509,-1.173734476257662,,,true,hh,8647.126000047661,response,0.8178051779856842,1.2,-1.2,1.1045470843295,1.2,-1.2,high,high,,ISIC_5216586.JPG,,ISIC_1608727.JPG,,265,true,0.4500000000000003,hh,keypress(i),0,false,477084.40000009537,477084.2000000477,468420.262,468651.7999999523,468437.074,476862.2,1,40,4,
sequence,flow.Sequence,6_3,2023-11-29T17:50:17.741Z,,,,,,,,,,,8647.126000047661,completion,,,,,,,high,high,,,,,,,true,,,,,false,477084.7000000477,477084.2000000477,468420.262,468651.7999999523,468437.074,476862.2,1,40,,
trial,html.Screen,6_4_0,2023-11-29T17:50:23.629Z,,,,1,-1.268445326285509,-1.173734476257662,,,true,hh,6110.500000047672,response,1.252716660627398,1.2,-1.2,1.183977080937476,1.2,-1.2,high,high,,ISIC_5216586.JPG,,ISIC_0034194.JPG,,25,true,0.14,hh,keypress(i),0,false,482973.10000014305,482972.7000000477,476845.329,477084.7999999523,476862.2,482751.369,1,40,5,
sequence,flow.Sequence,6_4,2023-11-29T17:50:23.630Z,,,,,,,,,,,6110.500000047672,completion,,,,,,,high,high,,,,,,,true,,,,,false,482973.90000009537,482972.7000000477,476845.329,477084.7999999523,476862.2,482751.369,1,40,,
trial,html.Screen,6_5_0,2023-11-29T17:50:31.204Z,,,,1,-1.1668613502915044,-1.327068780840367,,,true,hh,7796.531000095361,response,1.2724293858920366,1.2,-1.2,1.149360738769835,1.2,-1.2,high,high,,ISIC_0054459.JPG,,ISIC_1264725.JPG,,25,true,0.14,hh,keypress(i),0,false,490547.90000009537,490547.90000009537,482734.743,482974.2000000477,482751.369,490342.314,1,40,6,
sequence,flow.Sequence,6_5,2023-11-29T17:50:31.204Z,,,,,,,,,,,7796.531000095361,completion,,,,,,,high,high,,,,,,,true,,,,,false,490548.2000000477,490547.90000009537,482734.743,482974,482751.369,490342.314,1,40,,
trial,html.Screen,6_6_0,2023-11-29T17:50:43.084Z,,,,1,-0.8987343013179191,0.8149073454566363,,,true,hl,12085.586000095354,response,0.7991459998473059,1.2,-1.2,-1.0280788723474688,1.2,-1.2,high,low,,ISIC_0472513.JPG,,ISIC_7951202.JPG,,26,true,0.4500000000000003,hl,keypress(j),0,false,502428,502427.90000009537,490308.97,490548.2000000477,490342.314,502204.212,1,40,7,
sequence,flow.Sequence,6_6,2023-11-29T17:50:43.084Z,,,,,,,,,,,12085.586000095354,completion,,,,,,,high,low,,,,,,,true,,,,,false,502428.2000000477,502427.90000009537,490308.97,490548.2000000477,490342.314,502204.212,1,40,,
trial,html.Screen,6_7_0,2023-11-29T17:50:52.300Z,,,,1,0.7882758084023446,-0.8296405881378283,,,true,lh,9439.988000047684,response,-1.0153439398566937,1.2,-1.2,0.93001438372942,1.2,-1.2,low,high,,ISIC_0065882.JPG,,ISIC_8211214.JPG,,27,true,0.40000000000000024,lh,keypress(e),0,false,511644.40000009537,511644.2000000477,502187.31,502428.2000000477,502204.212,511430.114,1,40,8,
sequence,flow.Sequence,6_7,2023-11-29T17:50:52.301Z,,,,,,,,,,,9439.988000047684,completion,,,,,,,low,high,,,,,,,true,,,,,false,511644.7000000477,511644.2000000477,502187.31,502428.2000000477,502204.212,511430.114,1,40,,
trial,html.Screen,6_8_0,2023-11-29T17:50:59.893Z,,,,1,1.0887164761389951,-1.5357518752548716,,,true,lh,7806.286000095366,response,-0.7856143618373893,1.2,-1.2,1.0273608829432213,1.2,-1.2,low,high,,ISIC_0028127.JPG,,ISIC_9303849.JPG,,40,true,0.4500000000000003,lh,keypress(e),0,false,519236.7999999523,519236.40000009537,511413.301,511644.7999999523,511430.114,519021.101,1,40,9,
sequence,flow.Sequence,6_8,2023-11-29T17:50:59.894Z,,,,,,,,,,,7806.286000095366,completion,,,,,,,low,high,,,,,,,true,,,,,false,519237.10000014305,519236.40000009537,511413.301,511644.7999999523,511430.114,519021.101,1,40,,
trial,html.Screen,6_9_0,2023-11-29T17:51:05.804Z,,,,1,1.1989130276493527,1.2666195460149832,,,true,ll,6126.499000143027,response,-0.8470981587059541,1.2,-1.2,-1.0762788364457982,1.2,-1.2,low,low,,ISIC_0031705.JPG,,ISIC_0011013.JPG,,359,true,0.4500000000000003,ll,keypress(f),0,false,525147.7999999523,525147.600000143,519004.449,519237.2000000477,519021.101,524926.919,1,40,10,
sequence,flow.Sequence,6_9,2023-11-29T17:51:05.804Z,,,,,,,,,,,6126.499000143027,completion,,,,,,,low,low,,,,,,,true,,,,,false,525147.9000000954,525147.600000143,519004.449,519237.10000014305,519021.101,524926.919,1,40,,
trial,html.Screen,6_10_0,2023-11-29T17:51:10.804Z,,,,1,-1.236306205926646,-1.116612676102794,,,true,hh,5220.880999952322,response,1.2724293858920366,1.2,-1.2,1.149360738769835,1.2,-1.2,high,high,,ISIC_0054341.JPG,,ISIC_1264725.JPG,,25,true,0.14,hh,keypress(i),0,false,530147.9000000954,530147.7999999523,524910.168,525148.100000143,524926.919,529931.976,1,40,11,
sequence,flow.Sequence,6_10,2023-11-29T17:51:10.805Z,,,,,,,,,,,5220.880999952322,completion,,,,,,,high,high,,,,,,,true,,,,,false,530148,530147.7999999523,524910.168,525148,524926.919,529931.976,1,40,,
trial,html.Screen,6_11_0,2023-11-29T17:51:14.940Z,,,,1,1.160746324899676,1.1927876559115576,,,true,ll,4351.823999952292,response,-1.186629690487006,1.2,-1.2,-1.3269945600040771,1.2,-1.2,low,low,,ISIC_8651053.JPG,,ISIC_0015390.JPG,,30,true,0.13,ll,keypress(f),0,false,534283.7999999523,534283.7999999523,529915.148,530148,529931.976,534069.421,1,40,12,
sequence,flow.Sequence,6_11,2023-11-29T17:51:14.941Z,,,,,,,,,,,4351.823999952292,completion,,,,,,,low,low,,,,,,,true,,,,,false,534283.9000000954,534283.7999999523,529915.148,530148,529931.976,534069.421,1,40,,
trial,html.Screen,6_12_0,2023-11-29T17:51:23.445Z,,,,1,-0.8067116931297591,1.215898074058027,,,true,hl,8718.979000095394,response,1.2362557973341337,1.2,-1.2,-1.2548266183352603,1.2,-1.2,high,low,,ISIC_1457687.JPG,,ISIC_0033886.JPG,,26,true,0.4500000000000003,hl,keypress(j),0,false,542788.600000143,542788.4000000954,534052.808,534284.100000143,534069.421,542577.945,1,40,13,
sequence,flow.Sequence,6_12,2023-11-29T17:51:23.445Z,,,,,,,,,,,8718.979000095394,completion,,,,,,,high,low,,,,,,,true,,,,,false,542788.7999999523,542788.4000000954,534052.808,534284,534069.421,542577.945,1,40,,
trial,html.Screen,6_13_0,2023-11-29T17:51:37.789Z,,,,1,0.7991459998473059,-1.0280788723474688,,,true,lh,14553.955000095419,response,-1.2594580992890123,1.2,-1.2,0.8833175387485132,1.2,-1.2,low,high,,ISIC_7951202.JPG,,ISIC_0011933.JPG,,27,true,0.40000000000000024,lh,keypress(e),0,false,557132,557131.9000000954,542561.142,542789,542577.945,556925.646,1,40,14,
sequence,flow.Sequence,6_13,2023-11-29T17:51:37.789Z,,,,,,,,,,,14553.955000095419,completion,,,,,,,low,high,,,,,,,true,,,,,false,557132.2000000477,557131.9000000954,542561.142,542789,542577.945,556925.646,1,40,,
trial,html.Screen,6_14_0,2023-11-29T17:51:47.133Z,,,,1,-1.168911077628813,1.2181838235193114,,,true,hl,9550.653999952367,response,0.8472024037189965,1.2,-1.2,-0.986370061404882,1.2,-1.2,high,low,,ISIC_7358691.JPG,,ISIC_0054355.JPG,,26,true,0.4500000000000003,hl,keypress(j),0,false,566476.4000000954,566476.2999999523,556892.22,557132.2000000477,556925.646,566251.688,1,40,15,
sequence,flow.Sequence,6_14,2023-11-29T17:51:47.133Z,,,,,,,,,,,9550.653999952367,completion,,,,,,,high,low,,,,,,,true,,,,,false,566476.7000000477,566476.2999999523,556892.22,557132.2000000477,556925.646,566251.688,1,40,,
trial,html.Screen,6_15_0,2023-11-29T17:51:51.741Z,,,,1,-1.236306205926646,-1.116612676102794,,,true,hh,4832.611999952351,response,1.5947156807053404,1.2,-1.2,1.0785174776187512,1.2,-1.2,high,high,,ISIC_0054341.JPG,,ISIC_2454898.JPG,,203,true,0.40000000000000024,hh,keypress(i),0,false,571084.5,571084.2999999523,566234.781,566476.7999999523,566251.688,570873.104,1,40,16,
sequence,flow.Sequence,6_15,2023-11-29T17:51:51.741Z,,,,,,,,,,,4832.611999952351,completion,,,,,,,high,high,,,,,,,true,,,,,false,571084.7000000477,571084.2999999523,566234.781,566476.7000000477,566251.688,570873.104,1,40,,
trial,html.Screen,6_16_0,2023-11-29T17:51:57.821Z,,,,1,1.1989130276493527,1.2666195460149832,,,true,ll,6290.89599999995,response,-1.1746004947382946,1.2,-1.2,-1.2207657619249948,1.2,-1.2,low,low,,ISIC_0031705.JPG,,ISIC_0012069.JPG,,30,true,0.13,ll,keypress(f),0,false,577164.100000143,577164,570856.299,571084.9000000954,570873.104,576945.748,1,40,17,
sequence,flow.Sequence,6_16,2023-11-29T17:51:57.822Z,,,,,,,,,,,6290.89599999995,completion,,,,,,,low,low,,,,,,,true,,,,,false,577164.2999999523,577164,570856.299,571084.7999999523,570873.104,576945.748,1,40,,
trial,html.Screen,6_17_0,2023-11-29T17:52:05.749Z,,,,1,1.2600330864275875,1.0958628838888655,,,true,ll,8146.251999999979,response,-1.2691569063625474,1.2,-1.2,-1.1264228993232308,1.2,-1.2,low,low,,ISIC_0026996.JPG,,ISIC_4980656.JPG,,40,true,0.14,ll,keypress(f),0,false,585092.100000143,585092,576929.042,577164.2999999523,576945.748,584870.3,1,40,18,
sequence,flow.Sequence,6_17,2023-11-29T17:52:05.749Z,,,,,,,,,,,8146.251999999979,completion,,,,,,,low,low,,,,,,,true,,,,,false,585092.2000000477,585092,576929.042,577164.2999999523,576945.748,584870.3,1,40,,
trial,html.Screen,6_18_0,2023-11-29T17:52:12.830Z,,,,1,1.2219550761700546,1.2809901875733454,,,true,ll,7301.99999995227,response,-1.071085024260525,1.2,-1.2,-1.3393124611420348,1.2,-1.2,low,low,,ISIC_6463417.JPG,,ISIC_0072496.JPG,,40,true,0.14,ll,keypress(f),0,false,592172.5,592172.2999999523,584853.619,585092.2999999523,584870.3,591960.727,1,40,19,
sequence,flow.Sequence,6_18,2023-11-29T17:52:12.830Z,,,,,,,,,,,7301.99999995227,completion,,,,,,,low,low,,,,,,,true,,,,,false,592172.7999999523,592172.2999999523,584853.619,585092.2999999523,584870.3,591960.727,1,40,,
trial,html.Screen,6_19_0,2023-11-29T17:52:18.429Z,,,,1,0.8513427412482127,-0.9295303568095064,,,true,lh,5811.273000000045,response,-0.9089402323867112,1.2,-1.2,0.8034544077281132,1.2,-1.2,low,high,,ISIC_0034164.JPG,,ISIC_3585381.JPG,,27,true,0.40000000000000024,lh,keypress(e),0,false,597772.2000000477,597772,591944.153,592172.7999999523,591960.727,597549.655,1,40,20,
sequence,flow.Sequence,6_19,2023-11-29T17:52:18.430Z,,,,,,,,,,,5811.273000000045,completion,,,,,,,low,high,,,,,,,true,,,,,false,597772.2000000477,597772,591944.153,592172.7999999523,591960.727,597549.655,1,40,,
trial,html.Screen,6_20_0,2023-11-29T17:52:22.965Z,,,,1,1.3246728710248594,1.1527736000922424,,,true,ll,4757.945000143023,response,-1.0642195369108791,1.2,-1.2,-1.0897657776277234,1.2,-1.2,low,low,,ISIC_6876281.JPG,,ISIC_0071988.JPG,,359,true,0.4500000000000003,ll,keypress(f),0,false,602307.7000000477,602307.600000143,597533.107,597772.4000000954,597549.655,602087.523,1,40,21,
sequence,flow.Sequence,6_20,2023-11-29T17:52:22.965Z,,,,,,,,,,,4757.945000143023,completion,,,,,,,low,low,,,,,,,true,,,,,false,602307.7999999523,602307.600000143,597533.107,597772.2999999523,597549.655,602087.523,1,40,,
trial,html.Screen,6_21_0,2023-11-29T17:52:33.109Z,,,,1,-1.168911077628813,1.2181838235193114,,,true,hl,10364.577000143006,response,0.8828738626295417,1.2,-1.2,-0.8288177599439582,1.2,-1.2,high,low,,ISIC_7358691.JPG,,ISIC_0056041.JPG,,26,true,0.4500000000000003,hl,keypress(j),0,false,612452.2000000477,612452.100000143,602070.884,602307.9000000954,602087.523,612247.703,1,40,22,
sequence,flow.Sequence,6_21,2023-11-29T17:52:33.110Z,,,,,,,,,,,10364.577000143006,completion,,,,,,,high,low,,,,,,,true,,,,,false,612452.2999999523,612452.100000143,602070.884,602307.9000000954,602087.523,612247.703,1,40,,
trial,html.Screen,6_22_0,2023-11-29T17:52:41.349Z,,,,1,-0.8307508446051526,1.1707575338936729,,,true,hl,8444.29700000002,response,1.058275612142778,1.2,-1.2,-0.7824898568540655,1.2,-1.2,high,low,,ISIC_0028606.JPG,,ISIC_4906385.JPG,,26,true,0.4500000000000003,hl,keypress(j),0,false,620692.100000143,620692,612214.193,612452.4000000954,612247.703,620472.591,1,40,23,
sequence,flow.Sequence,6_22,2023-11-29T17:52:41.349Z,,,,,,,,,,,8444.29700000002,completion,,,,,,,high,low,,,,,,,true,,,,,false,620692.2000000477,620692,612214.193,612452.4000000954,612247.703,620472.591,1,40,,
trial,html.Screen,6_23_0,2023-11-29T17:52:49.733Z,,,,1,-0.9617893983965208,0.9453006131304652,,,true,hl,8603.208999952301,response,0.8513427412482127,1.2,-1.2,-0.9295303568095064,1.2,-1.2,high,low,,ISIC_4229473.JPG,,ISIC_0034164.JPG,,26,true,0.4500000000000003,hl,keypress(j),0,false,629075.7999999523,629075.7999999523,620455.763,620692.2000000477,620472.591,628864.334,1,40,24,
sequence,flow.Sequence,6_23,2023-11-29T17:52:49.733Z,,,,,,,,,,,8603.208999952301,completion,,,,,,,high,low,,,,,,,true,,,,,false,629076,629075.7999999523,620455.763,620692.2000000477,620472.591,628864.334,1,40,,
trial,html.Screen,6_24_0,2023-11-29T17:52:59.390Z,,,,1,-0.8500530224490773,1.0893360711742854,,,true,hl,9867.866000047652,response,0.7518277461369444,1.2,-1.2,-1.3860759020802074,1.2,-1.2,high,low,,ISIC_2998367.JPG,,ISIC_7967397.JPG,,26,true,0.4500000000000003,hl,keypress(j),0,false,638732.4000000954,638732.2000000477,628847.571,629076,628864.334,638524.007,1,40,25,
sequence,flow.Sequence,6_24,2023-11-29T17:52:59.391Z,,,,,,,,,,,9867.866000047652,completion,,,,,,,high,low,,,,,,,true,,,,,false,638732.7000000477,638732.2000000477,628847.571,629076,628864.334,638524.007,1,40,,
trial,html.Screen,6_25_0,2023-11-29T17:53:08.431Z,,,,1,1.0453124399868816,-0.8986747280184286,,,true,lh,9248.493000000017,response,-0.8987343013179191,1.2,-1.2,0.8149073454566363,1.2,-1.2,low,high,,ISIC_0013967.JPG,,ISIC_0472513.JPG,,27,true,0.40000000000000024,lh,keypress(e),0,false,647772.7000000477,647772.5,638490.605,638732.7000000477,638524.007,647549.702,1,40,26,
sequence,flow.Sequence,6_25,2023-11-29T17:53:08.431Z,,,,,,,,,,,9248.493000000017,completion,,,,,,,low,high,,,,,,,true,,,,,false,647773,647772.5,638490.605,638732.7000000477,638524.007,647549.702,1,40,,
trial,html.Screen,6_26_0,2023-11-29T17:53:13.718Z,,,,1,1.2804054832904397,1.171271535505083,,,true,ll,5510.597999952268,response,-0.9766645409582418,1.2,-1.2,-1.086167902767275,1.2,-1.2,low,low,,ISIC_7889838.JPG,,ISIC_0011526.JPG,,359,true,0.4500000000000003,ll,keypress(f),0,false,653060.5,653060.2999999523,647532.936,647773,647549.702,652855.001,1,40,27,
sequence,flow.Sequence,6_26,2023-11-29T17:53:13.719Z,,,,,,,,,,,5510.597999952268,completion,,,,,,,low,low,,,,,,,true,,,,,false,653060.7999999523,653060.2999999523,647532.936,647773,647549.702,652855.001,1,40,,
trial,html.Screen,6_27_0,2023-11-29T17:53:21.446Z,,,,1,1.0369885917487718,-0.8486937878412699,,,true,lh,7933.099000143004,response,-1.0788024398087033,1.2,-1.2,0.9911875460374616,1.2,-1.2,low,high,,ISIC_6917681.JPG,,ISIC_5951430.JPG,,27,true,0.40000000000000024,lh,keypress(e),0,false,660788.2999999523,660788.100000143,652821.562,653060.9000000954,652855.001,660562.733,1,40,28,
sequence,flow.Sequence,6_27,2023-11-29T17:53:21.446Z,,,,,,,,,,,7933.099000143004,completion,,,,,,,low,high,,,,,,,true,,,,,false,660788.4000000954,660788.100000143,652821.562,653060.9000000954,652855.001,660562.733,1,40,,
trial,html.Screen,6_28_0,2023-11-29T17:53:24.902Z,,,,1,1.252716660627398,1.183977080937476,,,true,ll,3681.2669999999925,response,-0.7742949091713104,1.2,-1.2,-1.6317000030334892,1.2,-1.2,low,low,,ISIC_0034194.JPG,,ISIC_0032960.JPG,,359,true,0.4500000000000003,ll,keypress(f),0,false,664244.100000143,664244,660546.107,660788.5,660562.733,664032.847,1,40,29,
sequence,flow.Sequence,6_28,2023-11-29T17:53:24.902Z,,,,,,,,,,,3681.2669999999925,completion,,,,,,,low,low,,,,,,,true,,,,,false,664244.4000000954,664244,660546.107,660788.4000000954,660562.733,664032.847,1,40,,
trial,html.Screen,6_29_0,2023-11-29T17:53:28.439Z,,,,1,-1.1441767540243375,-1.0949087392471728,,,true,hh,3747.6530000000494,response,1.274417010249866,1.2,-1.2,1.0725495669014795,1.2,-1.2,high,high,,ISIC_0054146.JPG,,ISIC_8849004.JPG,,25,true,0.14,hh,keypress(i),0,false,667780.7999999523,667780.5,664016.37,664244.4000000954,664032.847,667569.749,1,40,30,
sequence,flow.Sequence,6_29,2023-11-29T17:53:28.439Z,,,,,,,,,,,3747.6530000000494,completion,,,,,,,high,high,,,,,,,true,,,,,false,667781,667780.5,664016.37,664244.4000000954,664032.847,667569.749,1,40,,
trial,html.Screen,6_30_0,2023-11-29T17:53:33.294Z,,,,1,-1.1302628852630028,-1.288906469447243,,,true,hh,5066.151000095415,response,1.160746324899676,1.2,-1.2,1.1927876559115576,1.2,-1.2,high,high,,ISIC_0071050.JPG,,ISIC_8651053.JPG,,25,true,0.14,hh,keypress(i),0,false,672636,672635.9000000954,667553.058,667781.100000143,667569.749,672424.596,1,40,31,
sequence,flow.Sequence,6_30,2023-11-29T17:53:33.294Z,,,,,,,,,,,5066.151000095415,completion,,,,,,,high,high,,,,,,,true,,,,,false,672636.100000143,672635.9000000954,667553.058,667781.100000143,667569.749,672424.596,1,40,,
trial,html.Screen,6_31_0,2023-11-29T17:53:41.670Z,,,,1,1.0329549150636406,-1.01584100839286,,,true,lh,8587.703999952297,response,-1.2594580992890123,1.2,-1.2,0.8833175387485132,1.2,-1.2,low,high,,ISIC_0054670.JPG,,ISIC_0011933.JPG,,27,true,0.40000000000000024,lh,keypress(e),0,false,681012.600000143,681012.2999999523,672407.973,672636.100000143,672424.596,680799.647,1,40,32,
sequence,flow.Sequence,6_31,2023-11-29T17:53:41.671Z,,,,,,,,,,,8587.703999952297,completion,,,,,,,low,high,,,,,,,true,,,,,false,681012.7000000477,681012.2999999523,672407.973,672636.100000143,672424.596,680799.647,1,40,,
trial,html.Screen,6_32_0,2023-11-29T17:53:49.718Z,,,,1,-0.8544507134472948,0.9244388608707323,,,true,hl,8260.25300009537,response,0.8472024037189965,1.2,-1.2,-0.986370061404882,1.2,-1.2,high,low,,ISIC_3565564.JPG,,ISIC_0054355.JPG,,26,true,0.4500000000000003,hl,keypress(j),0,false,689060,689059.9000000954,680782.819,681012.7999999523,680799.647,688840.994,1,40,33,
sequence,flow.Sequence,6_32,2023-11-29T17:53:49.718Z,,,,,,,,,,,8260.25300009537,completion,,,,,,,high,low,,,,,,,true,,,,,false,689060.2000000477,689059.9000000954,680782.819,681012.7999999523,680799.647,688840.994,1,40,,
trial,html.Screen,6_33_0,2023-11-29T17:53:54.703Z,,,,1,1.2804054832904397,1.171271535505083,,,true,ll,5203.506000000052,response,-0.8706540396413559,1.2,-1.2,-0.8221719983776423,1.2,-1.2,low,low,,ISIC_7889838.JPG,,ISIC_0067953.JPG,,288,true,0.40000000000000024,ll,keypress(f),0,false,694044.7999999523,694044.5,688824.431,689060.2999999523,688840.994,693846.048,1,40,34,
sequence,flow.Sequence,6_33,2023-11-29T17:53:54.703Z,,,,,,,,,,,5203.506000000052,completion,,,,,,,low,low,,,,,,,true,,,,,false,694045.2999999523,694044.5,688824.431,689060.2000000477,688840.994,693846.048,1,40,,
trial,html.Screen,6_34_0,2023-11-29T17:54:01.607Z,,,,1,-0.8350129142228142,0.8172547818270586,,,true,hl,7102.751999952365,response,0.9754077946987664,1.2,-1.2,-1.1821868813141057,1.2,-1.2,high,low,,ISIC_0301568.JPG,,ISIC_0024317.JPG,,26,true,0.4500000000000003,hl,keypress(j),0,false,700949.100000143,700948.7999999523,693812.803,694045.600000143,693846.048,700736.338,1,40,35,
sequence,flow.Sequence,6_34,2023-11-29T17:54:01.608Z,,,,,,,,,,,7102.751999952365,completion,,,,,,,high,low,,,,,,,true,,,,,false,700949.5,700948.7999999523,693812.803,694045.4000000954,693846.048,700736.338,1,40,,
trial,html.Screen,6_35_0,2023-11-29T17:54:04.966Z,,,,1,-1.268445326285509,-1.173734476257662,,,true,hh,3571.5620000953786,response,1.2976858999596654,1.2,-1.2,0.8605012383520609,1.2,-1.2,high,high,,ISIC_5216586.JPG,,ISIC_0071508.JPG,,203,true,0.40000000000000024,hh,keypress(i),0,false,704308,704307.9000000954,700719.672,700949.600000143,700736.338,704089.623,1,40,36,
sequence,flow.Sequence,6_35,2023-11-29T17:54:04.966Z,,,,,,,,,,,3571.5620000953786,completion,,,,,,,high,high,,,,,,,true,,,,,false,704308,704307.9000000954,700719.672,700949.5,700736.338,704089.623,1,40,,
trial,html.Screen,6_36_0,2023-11-29T17:54:16.918Z,,,,1,0.9653573371180936,-0.854766800381037,,,true,lh,12170.47700014303,response,-0.8067116931297591,1.2,-1.2,1.215898074058027,1.2,-1.2,low,high,,ISIC_9640145.JPG,,ISIC_1457687.JPG,,27,true,0.40000000000000024,lh,keypress(e),0,false,716260.2999999523,716260.100000143,704072.901,704308.100000143,704089.623,716034.919,1,40,37,
sequence,flow.Sequence,6_36,2023-11-29T17:54:16.919Z,,,,,,,,,,,12170.47700014303,completion,,,,,,,low,high,,,,,,,true,,,,,false,716260.4000000954,716260.100000143,704072.901,704308.100000143,704089.623,716034.919,1,40,,
trial,html.Screen,6_37_0,2023-11-29T17:54:22.247Z,,,,1,-1.186629690487006,-1.3269945600040771,,,true,hh,5553.880999952322,response,0.8778738400881212,1.2,-1.2,0.8629033386879579,1.2,-1.2,high,high,,ISIC_0015390.JPG,,ISIC_5607702.JPG,,265,true,0.4500000000000003,hh,keypress(i),0,false,721589,721588.7999999523,716018.198,716260.5,716034.919,721373.628,1,40,38,
sequence,flow.Sequence,6_37,2023-11-29T17:54:22.248Z,,,,,,,,,,,5553.880999952322,completion,,,,,,,high,high,,,,,,,true,,,,,false,721589.4000000954,721588.7999999523,716018.198,716260.5,716034.919,721373.628,1,40,,
trial,html.Screen,6_38_0,2023-11-29T17:54:28.447Z,,,,1,1.1409143352872226,1.1323007949069106,,,true,ll,6414.572000047658,response,-1.1441767540243375,1.2,-1.2,-1.0949087392471728,1.2,-1.2,low,low,,ISIC_0030291.JPG,,ISIC_0054146.JPG,,30,true,0.13,ll,keypress(f),0,false,727788.2999999523,727788.2000000477,721356.975,721589.600000143,721373.628,727579.805,1,40,39,
sequence,flow.Sequence,6_38,2023-11-29T17:54:28.447Z,,,,,,,,,,,6414.572000047658,completion,,,,,,,low,low,,,,,,,true,,,,,false,727788.600000143,727788.2000000477,721356.975,721589.5,721373.628,727579.805,1,40,,
trial,html.Screen,6_39_0,2023-11-29T17:54:36.207Z,,,,1,-0.8443403196524287,0.8858525429102605,,,true,hl,7968.595000095316,response,0.8828738626295417,1.2,-1.2,-0.8288177599439582,1.2,-1.2,high,low,,ISIC_8777813.JPG,,ISIC_0056041.JPG,,26,true,0.4500000000000003,hl,keypress(j),0,false,735548.4000000954,735548.4000000954,727546.398,727788.600000143,727579.805,735337.587,1,40,40,
sequence,flow.Sequence,6_39,2023-11-29T17:54:36.207Z,,,,,,,,,,,7968.595000095316,completion,,,,,,,high,low,,,,,,,true,,,,,false,735548.7000000477,735548.4000000954,727546.398,727788.600000143,727579.805,735337.587,1,40,,
practice_loop,flow.Loop,6,2023-11-29T17:54:36.207Z,,,,,,,,,,,297108.03300009534,completion,,,,,,,,,,,,,,,true,,,,,false,735548.7999999523,735548.4000000954,438390.614,438635.90000009537,438440.367,735337.587,1,40,,
stair_instructions,html.Screen,7,2023-11-29T17:55:02.439Z,,,,,,,,,,,26441.912999999942,response,,,,,,,,,,,,,,,,,continue,click button,,,761780.100000143,761779.5,735320.869,735548.9000000954,735337.587,761563.836,,,,
trial,html.Screen,8_0_0,2023-11-29T17:55:18.219Z,,,,2,-0.0109416414475118,-0.005246498750811,,0.04,false,hl,15996.364000047673,response,1.0887164761389951,1.2,-1.2,-1.5357518752548716,1.2,-1.2,high,low,,ISIC_0064279.JPG,,ISIC_0028127.JPG,28,26,false,0.4500000000000003,hh,keypress(i),0,true,777560.2999999523,777560.2000000477,761547.127,761780.2000000477,761563.836,777346.28,1,40,1,
sequence,flow.Sequence,8_0,2023-11-29T17:55:18.220Z,,,,,,,,,,,15996.364000047673,completion,,,,,,,high,low,,,,,,,false,,,,,true,777560.600000143,777560.2000000477,761547.127,761780.2000000477,761563.836,777346.28,1,40,,
trial,html.Screen,8_1_0,2023-11-29T17:55:25.020Z,,,,2,-0.0388334549081915,0.0303399972963369,,0.04,true,hh,7014.719999999972,response,1.0943527860463682,1.15,-1.15,1.124481746658104,1.15,-1.2,high,high,,ISIC_4961708.JPG,,ISIC_0438136.JPG,28,27,false,0.14,hh,keypress(i),0,true,784361.100000143,784361,777329.567,777560.600000143,777346.28,784153.13,1,40,2,
sequence,flow.Sequence,8_1,2023-11-29T17:55:25.020Z,,,,,,,,,,,7014.719999999972,completion,,,,,,,high,high,,,,,,,false,,,,,true,784361.2999999523,784361,777329.567,777560.600000143,777346.28,784153.13,1,40,,
trial,html.Screen,8_2_0,2023-11-29T17:55:36.328Z,,,,2,-0.039520186367207,-0.0377961575607372,,0.04,false,hl,11515.270000095363,response,0.7308116448711435,1.059417266352236,-1.15,-0.908713834988551,1.15,-1.15,high,low,,ISIC_6356149.JPG,,ISIC_7811951.JPG,28,25,false,0.3600000000000002,lh,keypress(e),0,true,795668.5,795668.4000000954,784119.615,784361.4000000954,784153.13,795447.732,1,40,3,
sequence,flow.Sequence,8_2,2023-11-29T17:55:36.328Z,,,,,,,,,,,11515.270000095363,completion,,,,,,,high,low,,,,,,,false,,,,,true,795668.7999999523,795668.4000000954,784119.615,784361.4000000954,784153.13,795447.732,1,40,,
trial,html.Screen,8_3_0,2023-11-29T17:55:42.839Z,,,,2,0.0009714874637896,-0.0174815595031679,,0.04,false,hh,6732.468000047724,response,1.0257168197307909,1.1094172663522361,-1.15,1.0403166496930305,1.15,-1.15,high,high,,ISIC_9848743.JPG,,ISIC_1690909.JPG,28,26,false,0.14,lh,keypress(e),0,true,802180.2999999523,802180.2000000477,795431.001,795668.9000000954,795447.732,801954.246,1,40,4,
sequence,flow.Sequence,8_3,2023-11-29T17:55:42.839Z,,,,,,,,,,,6732.468000047724,completion,,,,,,,high,high,,,,,,,false,,,,,true,802180.4000000954,802180.2000000477,795431.001,795668.7999999523,795447.732,801954.246,1,40,,
trial,html.Screen,8_4_0,2023-11-29T17:55:58.615Z,,,,2,0.0258224118104549,-0.0029364553353019,,0.04,,,15782.470999999903,timeout,0.8828738626295417,1.1594172663522362,-1.15,-0.8288177599439582,1.0323991981755671,-1.15,high,low,,ISIC_8325226.JPG,,ISIC_0056041.JPG,28,25,false,0.40000000000000024,,,0,true,817956.100000143,817955.9000000954,801937.439,802180.4000000954,801954.246,817736.717,1,40,5,
sequence,flow.Sequence,8_4,2023-11-29T17:55:58.615Z,,,,,,,,,,,16001.654000095325,completion,,,,,,,high,low,,,,,,,false,,,,,true,817956.5,817955.9000000954,801937.439,802180.4000000954,801954.246,817736.717,1,40,,
trial,html.Screen,8_5_0,2023-11-29T17:56:02.721Z,,,,2,-0.0199950873045219,-0.0172506388509166,,0.04,true,ll,4324.483000047738,response,-1.061329542878903,1.1594172663522362,-1.15,-1.0605755702127622,1.0323991981755671,-1.15,low,low,,ISIC_0029906.JPG,,ISIC_0065622.JPG,28,27,false,0.1,ll,keypress(f),0,true,822061.4000000954,822061.2000000477,817720.268,817956.600000143,817736.717,821840.872,1,40,6,
sequence,flow.Sequence,8_5,2023-11-29T17:56:02.722Z,,,,,,,,,,,4324.483000047738,completion,,,,,,,low,low,,,,,,,false,,,,,true,822061.7999999523,822061.2000000477,817720.268,817956.600000143,817736.717,821840.872,1,40,,
trial,html.Screen,8_6_0,2023-11-29T17:56:12.377Z,,,,2,-0.0164027439304477,0.0082910758715273,,0.04,false,lh,9875.528000095394,response,-1.423867498658875,1.1594172663522362,-1.15,0.7901771595160324,1.0323991981755671,-1.15,low,high,,ISIC_7381224.JPG,,ISIC_3136228.JPG,28,25,false,0.29000000000000015,hh,keypress(i),0,true,831716.5,831716.4000000954,821824.138,822062,821840.872,831500.563,1,40,7,
sequence,flow.Sequence,8_6,2023-11-29T17:56:12.377Z,,,,,,,,,,,9875.528000095394,completion,,,,,,,low,high,,,,,,,false,,,,,true,831716.600000143,831716.4000000954,821824.138,822061.9000000954,821840.872,831500.563,1,40,,
trial,html.Screen,8_7_0,2023-11-29T17:56:17.513Z,,,,2,0.0044063257337227,0.0172548282859886,,0.04,true,ll,5352.037000143086,response,-1.1195710731537871,1.1594172663522362,-1.15,-1.1961732733209125,1.0323991981755671,-1.15,low,low,,ISIC_7413786.JPG,,ISIC_0067170.JPG,28,27,false,0.1,ll,keypress(f),0,true,836852.7000000477,836852.600000143,831483.698,831716.7000000477,831500.563,836639.103,1,40,8,
sequence,flow.Sequence,8_7,2023-11-29T17:56:17.513Z,,,,,,,,,,,5352.037000143086,completion,,,,,,,low,low,,,,,,,false,,,,,true,836852.9000000954,836852.600000143,831483.698,831716.7000000477,831500.563,836639.103,1,40,,
trial,html.Screen,8_8_0,2023-11-29T17:56:25.433Z,,,,2,-0.0388181790775959,0.0049623405709465,,0.04,true,ll,8133.6969999523135,response,-1.14454137020797,1.1594172663522362,-1.15,-1.1082302786512033,1.0323991981755671,-1.1078721732373498,low,low,,ISIC_0061880.JPG,,ISIC_0065128.JPG,28,27,false,0.1,ll,keypress(f),0,true,844773,844772.7999999523,836622.221,836853.100000143,836639.103,844564.614,1,40,9,
sequence,flow.Sequence,8_8,2023-11-29T17:56:25.433Z,,,,,,,,,,,8133.6969999523135,completion,,,,,,,low,low,,,,,,,false,,,,,true,844773.2999999523,844772.7999999523,836622.221,836853,836639.103,844564.614,1,40,,
trial,html.Screen,8_9_0,2023-11-29T17:56:33.593Z,,,,2,-0.0241900387072296,0.0339955304424736,,0.04,true,lh,8367.986000143108,response,-0.8867328775712738,1.1594172663522362,-1.0763858244295867,1.0063426986460375,1.0323991981755671,-1.1078721732373498,low,high,,ISIC_0010789.JPG,,ISIC_0055759.JPG,28,25,false,0.2500000000000001,lh,keypress(e),0,true,852932.7999999523,852932.600000143,844530.225,844773.5,844564.614,852721.688,1,40,10,
sequence,flow.Sequence,8_9,2023-11-29T17:56:33.593Z,,,,,,,,,,,8367.986000143108,completion,,,,,,,low,high,,,,,,,false,,,,,true,852933.100000143,852932.600000143,844530.225,844773.4000000954,844564.614,852721.688,1,40,,
trial,html.Screen,8_10_0,2023-11-29T17:56:42.377Z,,,,2,-0.0109416414475118,-0.005246498750811,,0.04,false,lh,8994.912000143086,response,-1.004142980655507,1.1594172663522362,-1.0763858244295867,0.7749773174967559,0.9823991981755671,-1.1078721732373498,low,high,,ISIC_0064279.JPG,,ISIC_3936223.JPG,28,26,false,0.2400000000000001,hh,keypress(i),0,true,861716.7999999523,861716.600000143,852705.129,852933.100000143,852721.688,861497.189,1,40,11,
sequence,flow.Sequence,8_10,2023-11-29T17:56:42.377Z,,,,,,,,,,,8994.912000143086,completion,,,,,,,low,high,,,,,,,false,,,,,true,861717.100000143,861716.600000143,852705.129,852933.100000143,852721.688,861497.189,1,40,,
trial,html.Screen,8_11_0,2023-11-29T17:56:48.864Z,,,,2,0.0367744112927588,0.0324865661712824,,0.04,true,ll,6707.011000047671,response,-1.063036912656269,1.1594172663522362,-1.1263858244295868,-1.1534875859179432,0.9823991981755671,-1.1078721732373498,low,low,,ISIC_4523565.JPG,,ISIC_0010772.JPG,28,32,false,0.1,ll,keypress(f),0,true,868204.2999999523,868204.2000000477,861480.54,861717.2000000477,861497.189,867987.026,1,40,12,
sequence,flow.Sequence,8_11,2023-11-29T17:56:48.864Z,,,,,,,,,,,6707.011000047671,completion,,,,,,,low,low,,,,,,,false,,,,,true,868204.4000000954,868204.2000000477,861480.54,861717.2000000477,861497.189,867987.026,1,40,,
trial,html.Screen,8_12_0,2023-11-29T17:56:56.200Z,,,,2,-0.0388181790775959,0.0049623405709465,,0.04,false,lh,7553.273999952362,response,-0.8500530224490773,1.1594172663522362,-1.1263858244295868,1.0893360711742854,0.9823991981755671,-1.058262249287106,low,high,,ISIC_0061880.JPG,,ISIC_2998367.JPG,28,26,false,0.28000000000000014,hh,keypress(i),0,true,875540.5,875540.2999999523,867970.335,868204.600000143,867987.026,875327.872,1,40,13,
sequence,flow.Sequence,8_12,2023-11-29T17:56:56.201Z,,,,,,,,,,,7553.273999952362,completion,,,,,,,low,high,,,,,,,false,,,,,true,875540.7000000477,875540.2999999523,867970.335,868204.600000143,867987.026,875327.872,1,40,,
trial,html.Screen,8_13_0,2023-11-29T17:57:05.233Z,,,,2,0.0367706518941078,-0.0161069838272154,,0.04,true,ll,9244.728000143077,response,-1.14454137020797,1.1594172663522362,-1.1763858244295868,-1.1082302786512033,0.932399198175567,-1.058262249287106,low,low,,ISIC_0033419.JPG,,ISIC_0065128.JPG,28,25,false,0.11,ll,keypress(f),0,true,884572.7000000477,884572.600000143,875311.001,875540.7999999523,875327.872,884353.4,1,40,14,
sequence,flow.Sequence,8_13,2023-11-29T17:57:05.234Z,,,,,,,,,,,9244.728000143077,completion,,,,,,,low,low,,,,,,,false,,,,,true,884572.7999999523,884572.600000143,875311.001,875540.7000000477,875327.872,884353.4,1,40,,
trial,html.Screen,8_14_0,2023-11-29T17:57:10.994Z,,,,2,-0.0199950873045219,-0.0172506388509166,,0.04,true,hh,5979.30000004766,response,1.1072126870290426,1.1594172663522362,-1.1763858244295868,0.9917482735105084,0.932399198175567,-1.058262249287106,high,high,,ISIC_0029906.JPG,,ISIC_0071754.JPG,28,25,false,0.12,hh,keypress(i),0,true,890332.9000000954,890332.7000000477,884336.631,884572.9000000954,884353.4,890109.194,1,40,15,
sequence,flow.Sequence,8_14,2023-11-29T17:57:10.994Z,,,,,,,,,,,5979.30000004766,completion,,,,,,,high,high,,,,,,,false,,,,,true,890333.2000000477,890332.7000000477,884336.631,884572.9000000954,884353.4,890109.194,1,40,,
trial,html.Screen,8_15_0,2023-11-29T17:57:17.697Z,,,,2,-0.0241900387072296,0.0339955304424736,,0.04,true,hh,6927.105999952299,response,1.2101243893950622,1.1594172663522362,-1.1763858244295868,0.9721089662087676,0.932399198175567,-1.058262249287106,high,high,,ISIC_0010789.JPG,,ISIC_0760740.JPG,28,25,false,0.12,hh,keypress(i),0,true,897036.5,897036.2999999523,890092.383,890333.2999999523,890109.194,896815.857,1,40,16,
sequence,flow.Sequence,8_15,2023-11-29T17:57:17.697Z,,,,,,,,,,,6927.105999952299,completion,,,,,,,high,high,,,,,,,false,,,,,true,897036.600000143,897036.2999999523,890092.383,890333.2999999523,890109.194,896815.857,1,40,,
trial,html.Screen,8_16_0,2023-11-29T17:57:30.082Z,,,,2,0.0367706518941078,-0.0161069838272154,,0.04,true,lh,12605.543000095407,response,-1.0926414044454305,0.9319286198596379,-1.1763858244295868,0.7741624649032207,0.9319286198596379,-1.058262249287106,low,high,,ISIC_0033419.JPG,,ISIC_2355513.JPG,28,25,false,0.27000000000000013,lh,keypress(e),0,true,909421.600000143,909421.4000000954,896799.185,897036.7000000477,896815.857,909211.663,1,40,17,
sequence,flow.Sequence,8_16,2023-11-29T17:57:30.083Z,,,,,,,,,,,12605.543000095407,completion,,,,,,,low,high,,,,,,,false,,,,,true,909422,909421.4000000954,896799.185,897036.7000000477,896815.857,909211.663,1,40,,
trial,html.Screen,8_17_0,2023-11-29T17:57:36.082Z,,,,2,0.0258224118104549,-0.0029364553353019,,0.04,true,hh,6209.5370000477415,response,0.8664556873113695,0.9319286198596379,-1.1263858244295868,0.9753511680199736,0.9319286198596379,-1.058262249287106,high,high,,ISIC_8325226.JPG,,ISIC_0340453.JPG,28,37,false,0.1,hh,keypress(i),0,true,915421.4000000954,915421.2000000477,909194.75,909422.2000000477,909211.663,915200.997,1,40,18,
sequence,flow.Sequence,8_17,2023-11-29T17:57:36.082Z,,,,,,,,,,,6209.5370000477415,completion,,,,,,,high,high,,,,,,,false,,,,,true,915421.7999999523,915421.2000000477,909194.75,909422.100000143,909211.663,915200.997,1,40,,
trial,html.Screen,8_18_0,2023-11-29T17:57:43.042Z,,,,2,-0.0374659946425444,-0.0086043094957617,,0.04,false,ll,7180.20300004771,response,-1.0679712388489528,0.9319286198596379,-1.1263858244295868,-1.0509600192807842,0.8709034276656715,-1.058262249287106,low,low,,ISIC_0033051.JPG,,ISIC_0015180.JPG,28,33,false,0.1,lh,keypress(e),0,true,922381.4000000954,922381.2000000477,915184.391,915421.9000000954,915200.997,922157.936,1,40,19,
sequence,flow.Sequence,8_18,2023-11-29T17:57:43.042Z,,,,,,,,,,,7180.20300004771,completion,,,,,,,low,low,,,,,,,false,,,,,true,922381.7999999523,922381.2000000477,915184.391,915421.9000000954,915200.997,922157.936,1,40,,
trial,html.Screen,8_19_0,2023-11-29T17:57:50.569Z,,,,2,0.0044063257337227,0.0172548282859886,,0.04,false,ll,7750.064000000013,response,-1.1243896694621007,0.9319286198596379,-1.1263858244295868,-1.1772340944704969,0.8709034276656715,-1.1082622492871061,low,low,,ISIC_7413786.JPG,,ISIC_0062765.JPG,28,32,false,0.1,hl,keypress(j),0,true,929908.100000143,929908,922141.081,922381.9000000954,922157.936,929682.105,1,40,20,
sequence,flow.Sequence,8_19,2023-11-29T17:57:50.569Z,,,,,,,,,,,7750.064000000013,completion,,,,,,,low,low,,,,,,,false,,,,,true,929908.2000000477,929908,922141.081,922381.9000000954,922157.936,929682.105,1,40,,
trial,html.Screen,8_20_0,2023-11-29T17:57:56.177Z,,,,2,-0.0088741920055285,-0.0058246074740588,,0.04,true,hl,5834.395000000019,response,0.8828738626295417,0.9319286198596379,-1.1763858244295868,-0.8288177599439582,0.8709034276656715,-1.1082622492871061,high,low,,ISIC_4136663.JPG,,ISIC_0056041.JPG,28,28,false,0.28000000000000014,hl,keypress(j),0,true,935516.5,935516.5,929665.36,929908.2999999523,929682.105,935304.549,1,40,21,
sequence,flow.Sequence,8_20,2023-11-29T17:57:56.177Z,,,,,,,,,,,5834.395000000019,completion,,,,,,,high,low,,,,,,,false,,,,,true,935516.600000143,935516.5,929665.36,929908.2999999523,929682.105,935304.549,1,40,,
trial,html.Screen,8_21_0,2023-11-29T17:58:00.522Z,,,,2,-0.001445457736793,-0.0165307427449982,,0.04,true,ll,4556.250999952317,response,-1.0980226451001782,0.8819286198596379,-1.1763858244295868,-0.9421419207281913,0.8709034276656715,-0.9530259272072275,low,low,,ISIC_0027350.JPG,,ISIC_0060481.JPG,28,30,false,0.11,ll,keypress(f),0,true,939860.9000000954,939860.7999999523,935287.743,935516.7000000477,935304.549,939642.1,1,40,22,
sequence,flow.Sequence,8_21,2023-11-29T17:58:00.523Z,,,,,,,,,,,4556.250999952317,completion,,,,,,,low,low,,,,,,,false,,,,,true,939861.2000000477,939860.7999999523,935287.743,935516.600000143,935304.549,939642.1,1,40,,
trial,html.Screen,8_22_0,2023-11-29T17:58:06.362Z,,,,2,0.0308384937406319,-0.0038396364323947,,0.04,false,hl,6058.000000143074,response,0.7411887874358276,0.8819286198596379,-1.1763858244295868,-0.7869222465141029,0.8709034276656715,-0.9530259272072275,high,low,,ISIC_0029825.JPG,,ISIC_6255113.JPG,28,28,false,0.20000000000000007,ll,keypress(f),0,true,945700.100000143,945700.100000143,939625.329,939861.2999999523,939642.1,945481.373,1,40,23,
sequence,flow.Sequence,8_22,2023-11-29T17:58:06.362Z,,,,,,,,,,,6058.000000143074,completion,,,,,,,high,low,,,,,,,false,,,,,true,945700.2999999523,945700.100000143,939625.329,939861.2999999523,939642.1,945481.373,1,40,,
trial,html.Screen,8_23_0,2023-11-29T17:58:10.514Z,,,,2,0.0009714874637896,-0.0174815595031679,,0.04,true,hh,4371.426999952295,response,0.8778738400881212,0.9319286198596379,-1.1763858244295868,0.8629033386879579,0.8709034276656715,-0.814532083621147,high,high,,ISIC_9848743.JPG,,ISIC_5607702.JPG,28,42,false,0.1,hh,keypress(i),0,true,949853,949852.7999999523,945464.59,945700.2999999523,945481.373,949635.456,1,40,24,
sequence,flow.Sequence,8_23,2023-11-29T17:58:10.515Z,,,,,,,,,,,4371.426999952295,completion,,,,,,,high,high,,,,,,,false,,,,,true,949853.2999999523,949852.7999999523,945464.59,945700.2999999523,945481.373,949635.456,1,40,,
trial,html.Screen,8_24_0,2023-11-29T17:58:16.531Z,,,,2,0.0076984477620101,0.0069458408496562,,0.04,false,hl,6233.944000095362,response,0.8472024037189965,0.9319286198596379,-1.1763858244295868,-0.986370061404882,0.8709034276656715,-0.814532083621147,high,low,,ISIC_0000434.JPG,,ISIC_0054355.JPG,28,26,false,0.18000000000000005,lh,keypress(e),0,true,955869.600000143,955869.4000000954,949618.885,949853.4000000954,949635.456,955658.112,1,40,25,
sequence,flow.Sequence,8_24,2023-11-29T17:58:16.531Z,,,,,,,,,,,6233.944000095362,completion,,,,,,,high,low,,,,,,,false,,,,,true,955870,955869.4000000954,949618.885,949853.2999999523,949635.456,955658.112,1,40,,
trial,html.Screen,8_25_0,2023-11-29T17:58:23.506Z,,,,2,0.0283578106329894,-0.0088840758711548,,0.04,false,lh,7186.288000095403,response,-1.423867498658875,0.981928619859638,-1.1763858244295868,0.7901771595160324,0.8709034276656715,-0.8645320836211471,low,high,,ISIC_0060707.JPG,,ISIC_3136228.JPG,28,26,false,0.2600000000000001,hh,keypress(i),0,true,962844.5,962844.4000000954,955641.429,955870.100000143,955658.112,962631.734,1,40,26,
sequence,flow.Sequence,8_25,2023-11-29T17:58:23.506Z,,,,,,,,,,,7186.288000095403,completion,,,,,,,low,high,,,,,,,false,,,,,true,962844.600000143,962844.4000000954,955641.429,955870.100000143,955658.112,962631.734,1,40,,
trial,html.Screen,8_26_0,2023-11-29T17:58:32.995Z,,,,2,0.0076984477620101,0.0069458408496562,,0.04,false,hl,9701.265999999945,response,0.8926515927689261,0.981928619859638,-1.1763858244295868,-0.7935960767768927,0.776540249101995,-0.8645320836211471,high,low,,ISIC_0000434.JPG,,ISIC_8901371.JPG,28,27,false,0.20000000000000007,ll,keypress(f),0,true,972333.2999999523,972333,962615.024,962844.7999999523,962631.734,972107.951,1,40,27,
sequence,flow.Sequence,8_26,2023-11-29T17:58:32.995Z,,,,,,,,,,,9701.265999999945,completion,,,,,,,high,low,,,,,,,false,,,,,true,972333.600000143,972333,962615.024,962844.7999999523,962631.734,972107.951,1,40,,
trial,html.Screen,8_27_0,2023-11-29T17:58:37.059Z,,,,2,0.0283578106329894,-0.0088840758711548,,0.04,true,ll,4289.048999999999,response,-1.2531360283508035,1.031928619859638,-1.1763858244295868,-0.9293537837759512,0.776540249101995,-0.8645320836211471,low,low,,ISIC_0060707.JPG,,ISIC_0060091.JPG,28,25,false,0.1,ll,keypress(f),0,true,976397.100000143,976397,972091.158,972333.7000000477,972107.951,976178.659,1,40,28,
sequence,flow.Sequence,8_27,2023-11-29T17:58:37.059Z,,,,,,,,,,,4289.048999999999,completion,,,,,,,low,low,,,,,,,false,,,,,true,976397.4000000954,976397,972091.158,972333.7000000477,972107.951,976178.659,1,40,,
trial,html.Screen,8_28_0,2023-11-29T17:58:45.074Z,,,,2,0.0044063257337227,0.0172548282859886,,0.04,true,hl,8233.841000000015,response,1.3046390428588206,1.031928619859638,-1.1763858244295868,-0.7942099232219556,0.776540249101995,-1.0412449060633773,high,low,,ISIC_7413786.JPG,,ISIC_0013096.JPG,28,26,false,0.30000000000000016,hl,keypress(j),0,true,984412.600000143,984412.5,976161.915,976397.5,976178.659,984186.655,1,40,29,
sequence,flow.Sequence,8_28,2023-11-29T17:58:45.074Z,,,,,,,,,,,8233.841000000015,completion,,,,,,,high,low,,,,,,,false,,,,,true,984412.7000000477,984412.5,976161.915,976397.5,976178.659,984186.655,1,40,,
trial,html.Screen,8_29_0,2023-11-29T17:58:53.658Z,,,,2,-0.001445457736793,-0.0165307427449982,,0.04,true,hh,8809.545000047656,response,1.094656220068169,1.031928619859638,-1.1763858244295868,0.6792859365548365,0.776540249101995,-1.0412449060633773,high,high,,ISIC_0027350.JPG,,ISIC_0001875.JPG,28,42,false,0.1,hh,keypress(i),0,true,992996.4000000954,992996.2000000477,984169.828,984412.7999999523,984186.655,992778.581,1,40,30,
sequence,flow.Sequence,8_29,2023-11-29T17:58:53.658Z,,,,,,,,,,,8809.545000047656,completion,,,,,,,high,high,,,,,,,false,,,,,true,992996.600000143,992996.2000000477,984169.828,984412.7999999523,984186.655,992778.581,1,40,,
trial,html.Screen,8_30_0,2023-11-29T17:59:03.866Z,,,,2,0.0258224118104549,-0.0029364553353019,,0.04,true,lh,10425.71899995231,response,-1.2646773654288392,0.8369710783115027,-1.1763858244295868,0.952963803634235,0.776540249101995,-1.0412449060633773,low,high,,ISIC_8325226.JPG,,ISIC_1996356.JPG,28,25,false,0.2400000000000001,lh,keypress(e),0,true,1003204.4000000954,1003204.2999999523,992761.913,992996.600000143,992778.581,1002988.943,1,40,31,
sequence,flow.Sequence,8_30,2023-11-29T17:59:03.867Z,,,,,,,,,,,10425.71899995231,completion,,,,,,,low,high,,,,,,,false,,,,,true,1003204.600000143,1003204.2999999523,992761.913,992996.600000143,992778.581,1002988.943,1,40,,
trial,html.Screen,8_31_0,2023-11-29T17:59:10.563Z,,,,2,0.0308384937406319,-0.0038396364323947,,0.04,true,hh,6912.157000143081,response,0.8778738400881212,0.8369710783115027,-1.1263858244295868,0.8629033386879579,0.7661248700945358,-1.0412449060633773,high,high,,ISIC_0029825.JPG,,ISIC_5607702.JPG,28,54,false,0.1,hh,keypress(i),0,true,1009901.4000000954,1009901.100000143,1002972.141,1003204.600000143,1002988.943,1009678.906,1,40,32,
sequence,flow.Sequence,8_31,2023-11-29T17:59:10.564Z,,,,,,,,,,,6912.157000143081,completion,,,,,,,high,high,,,,,,,false,,,,,true,1009901.7000000477,1009901.100000143,1002972.141,1003204.600000143,1002988.943,1009678.906,1,40,,
trial,html.Screen,8_32_0,2023-11-29T17:59:16.723Z,,,,2,0.0119001144851157,-0.0063430114540141,,0.04,true,ll,6381.594000000041,response,-1.0665699221890637,0.8369710783115027,-1.1263858244295868,-1.0106762707163983,0.7661248700945358,-1.0412449060633773,low,low,,ISIC_0003822.JPG,,ISIC_1630301.JPG,28,31,false,0.1,ll,keypress(f),0,true,1016060.600000143,1016060.5,1009662.165,1009901.9000000954,1009678.906,1015835.008,1,40,33,
sequence,flow.Sequence,8_32,2023-11-29T17:59:16.723Z,,,,,,,,,,,6381.594000000041,completion,,,,,,,low,low,,,,,,,false,,,,,true,1016060.7999999523,1016060.5,1009662.165,1009901.9000000954,1009678.906,1015835.008,1,40,,
trial,html.Screen,8_33_0,2023-11-29T17:59:25.507Z,,,,2,0.0220026381002083,-0.0170756452911772,,0.04,false,hl,9009.59200014302,response,0.6428017625736049,0.8369710783115027,-1.1263858244295868,-0.8080600569333839,0.7661248700945358,-0.9886230964527309,high,low,,ISIC_5347806.JPG,,ISIC_9244047.JPG,28,26,false,0.20000000000000007,lh,keypress(e),0,true,1024844.7999999523,1024844.600000143,1015818.292,1016060.9000000954,1015835.008,1024627.2,1,40,34,
sequence,flow.Sequence,8_33,2023-11-29T17:59:25.507Z,,,,,,,,,,,9009.59200014302,completion,,,,,,,high,low,,,,,,,false,,,,,true,1024845.100000143,1024844.600000143,1015818.292,1016060.7999999523,1015835.008,1024627.2,1,40,,
trial,html.Screen,8_34_0,2023-11-29T17:59:35.107Z,,,,2,-0.0374659946425444,-0.0086043094957617,,0.04,false,hh,9817.50000004773,response,0.8428710898223032,0.8869710783115028,-1.1263858244295868,0.7657532100141601,0.7661248700945358,-1.038623096452731,high,high,,ISIC_0033051.JPG,,ISIC_7141361.JPG,28,55,false,0.1,lh,keypress(e),0,true,1034444.9000000954,1034444.7000000477,1024610.454,1024845.2999999523,1024627.2,1034220.094,1,40,35,
sequence,flow.Sequence,8_34,2023-11-29T17:59:35.107Z,,,,,,,,,,,9817.50000004773,completion,,,,,,,high,high,,,,,,,false,,,,,true,1034445.100000143,1034444.7000000477,1024610.454,1024845.2000000477,1024627.2,1034220.094,1,40,,
trial,html.Screen,8_35_0,2023-11-29T17:59:45.587Z,,,,2,0.0367744112927588,0.0324865661712824,,0.04,false,lh,10704.606000047643,response,-0.9198276163642348,0.9369710783115028,-1.1263858244295868,0.7754915110667046,0.7161248700945357,-1.038623096452731,low,high,,ISIC_4523565.JPG,,ISIC_7840728.JPG,28,26,false,0.21000000000000008,hh,keypress(i),0,true,1044924.9000000954,1044924.7000000477,1034203.351,1034445.2000000477,1034220.094,1044713.909,1,40,36,
sequence,flow.Sequence,8_35,2023-11-29T17:59:45.587Z,,,,,,,,,,,10704.606000047643,completion,,,,,,,low,high,,,,,,,false,,,,,true,1044925,1044924.7000000477,1034203.351,1034445.2000000477,1034220.094,1044713.909,1,40,,
trial,html.Screen,8_36_0,2023-11-29T17:59:52.987Z,,,,2,-0.0074667911845194,0.018500200317654,,0.04,true,lh,7610.491000095382,response,-1.0601612613194336,0.9369710783115028,-1.1763858244295868,0.5836198587596447,0.7161248700945357,-1.038623096452731,low,high,,ISIC_0058723.JPG,,ISIC_0014790.JPG,28,26,false,0.22000000000000008,lh,keypress(e),0,true,1052324.5,1052324.4000000954,1044697.159,1044925.100000143,1044713.909,1052104.642,1,40,37,
sequence,flow.Sequence,8_36,2023-11-29T17:59:52.987Z,,,,,,,,,,,7610.491000095382,completion,,,,,,,low,high,,,,,,,false,,,,,true,1052324.7000000477,1052324.4000000954,1044697.159,1044925.100000143,1044713.909,1052104.642,1,40,,
trial,html.Screen,8_37_0,2023-11-29T18:00:00.611Z,,,,2,0.0220026381002083,-0.0170756452911772,,0.04,false,lh,7843.958000143059,response,-1.004142980655507,0.9369710783115028,-1.1763858244295868,0.7749773174967559,0.6661248700945357,-1.038623096452731,low,high,,ISIC_5347806.JPG,,ISIC_3936223.JPG,28,25,false,0.21000000000000008,ll,keypress(f),0,true,1059948.7000000477,1059948.600000143,1052087.879,1052324.7000000477,1052104.642,1059728.915,1,40,38,
sequence,flow.Sequence,8_37,2023-11-29T18:00:00.612Z,,,,,,,,,,,7843.958000143059,completion,,,,,,,low,high,,,,,,,false,,,,,true,1059949,1059948.600000143,1052087.879,1052324.7000000477,1052104.642,1059728.915,1,40,,
trial,html.Screen,8_38_0,2023-11-29T18:00:04.707Z,,,,2,-0.0374659946425444,-0.0086043094957617,,0.04,true,hh,4315.48500009533,response,0.952659927954878,0.9369710783115028,-0.9821521209874702,0.6264369455684102,0.7161248700945357,-1.038623096452731,high,high,,ISIC_0033051.JPG,,ISIC_0033152.JPG,28,61,false,0.1,hh,keypress(i),0,true,1064044.5,1064044.4000000954,1059712.265,1059949.100000143,1059728.915,1063833.15,1,40,39,
sequence,flow.Sequence,8_38,2023-11-29T18:00:04.707Z,,,,,,,,,,,4315.48500009533,completion,,,,,,,high,high,,,,,,,false,,,,,true,1064044.600000143,1064044.4000000954,1059712.265,1059949.100000143,1059728.915,1063833.15,1,40,,
trial,html.Screen,8_39_0,2023-11-29T18:00:10.467Z,,,,2,0.0200295718112167,0.0155559071275806,,0.04,false,hl,5971.050000047777,response,0.6928402368686908,0.9369710783115028,-0.9821521209874702,-0.8182069330979422,0.7161248700945357,-1.038623096452731,high,low,,ISIC_0061343.JPG,,ISIC_0046615.JPG,28,26,false,0.2600000000000001,ll,keypress(f),0,true,1069804.4000000954,1069804.2000000477,1063816.536,1064044.7000000477,1063833.15,1069588.794,1,40,40,
sequence,flow.Sequence,8_39,2023-11-29T18:00:10.467Z,,,,,,,,,,,5971.050000047777,completion,,,,,,,high,low,,,,,,,false,,,,,true,1069804.4000000954,1069804.2000000477,1063816.536,1064044.600000143,1063833.15,1069588.794,1,40,,
stair_loop,flow.Loop,8,2023-11-29T18:00:10.467Z,,,,,,,,,,,308240.3640000477,completion,,,,,,,,,,,,,,,false,,,,,true,1069804.5,1069804.2000000477,761547.127,761780.2000000477,761563.836,1069588.794,1,40,,
exp_instructions,html.Screen,9,2023-11-29T18:00:52.035Z,,,,,,,,,,,41783.50599995232,response,,,,,,,,,,,,,,,,,continue,keypress(Space),,,1111372.7999999523,1111372.2999999523,1069572.154,1069804.600000143,1069588.794,1111163.782,,,,
trial,html.Screen,10_0_0,2023-11-29T18:00:58.886Z,,,,1,-0.0065172941585523,0.0118857043117315,,0.04,false,hl,7059.418000047794,response,0.8828738626295417,0.9269498490855703,-1.1444624540853756,-0.8288177599439582,0.7851622821177414,-0.9831780363646653,high,low,,ISIC_6119202.JPG,9,ISIC_0056041.JPG,28,28,false,0.2400000000000001,ll,keypress(f),0,false,1118223.4000000954,1118223.2000000477,1111129.454,1111372.9000000954,1111163.782,1118003.948,5,600,1,
break,html.Screen,10_0_1,2023-11-29T18:00:58.886Z,,,,,,,,,,,NaN,,,,,,,,high,low,,,,,,,false,,,,,false,1118223.7999999523,1118223.7000000477,,1118223.5,,1118003.948,5,600,,
break_continue,html.Screen,10_0_2,2023-11-29T18:00:58.887Z,,,,,,,,,,,NaN,,,,,,,,high,low,,,,,,,false,,,,,false,1118224.100000143,1118224,,1118223.9000000954,,1118003.948,5,600,,
sequence,flow.Sequence,10_0,2023-11-29T18:00:58.887Z,,,,,,,,,,,7060.21800000011,completion,,,,,,,high,low,,,,,,,false,,,,,false,1118224.2000000477,1118224,1111129.454,1111372.9000000954,1111163.782,1118003.948,5,600,,
trial,html.Screen,10_1_0,2023-11-29T18:01:03.692Z,,,,1,-0.0109416414475118,-0.005246498750811,,0.04,false,hl,5024.952000095276,response,0.7246771568562105,0.9269498490855703,-1.1444624540853756,-0.9161385080362604,0.7851622821177414,-0.9831780363646653,high,low,,ISIC_0064279.JPG,9,ISIC_0028225.JPG,28,28,false,0.2400000000000001,lh,keypress(e),0,false,1123029,1123028.9000000954,1117987.389,1118224.2999999523,1118003.948,1122808.739,5,600,2,
break,html.Screen,10_1_1,2023-11-29T18:01:03.693Z,,,,,,,,,,,NaN,,,,,,,,high,low,,,,,,,false,,,,,false,1123029.5,1123029.4000000954,,1123029.100000143,,1122808.739,5,600,,
break_continue,html.Screen,10_1_2,2023-11-29T18:01:03.693Z,,,,,,,,,,,NaN,,,,,,,,high,low,,,,,,,false,,,,,false,1123029.9000000954,1123029.7999999523,,1123029.600000143,,1122808.739,5,600,,
sequence,flow.Sequence,10_1,2023-11-29T18:01:03.693Z,,,,,,,,,,,5025.851999952225,completion,,,,,,,high,low,,,,,,,false,,,,,false,1123030,1123029.7999999523,1117987.389,1118224.2999999523,1118003.948,1122808.739,5,600,,
trial,html.Screen,10_2_0,2023-11-29T18:01:11.996Z,,,,1,-0.001445457736793,-0.0165307427449982,,0.04,false,ll,8523.661000095308,response,-1.0642195369108791,0.9269498490855703,-1.1444624540853756,-1.0897657776277234,0.7851622821177414,-0.9831780363646653,low,low,,ISIC_0027350.JPG,9,ISIC_0071988.JPG,28,30,false,0.11,hl,keypress(j),0,false,1131332.5,1131332.4000000954,1122792.242,1123030.100000143,1122808.739,1131117.042,5,600,3,
break,html.Screen,10_2_1,2023-11-29T18:01:11.996Z,,,,,,,,,,,NaN,,,,,,,,low,low,,,,,,,false,,,,,false,1131333,1131332.7999999523,,1131332.7000000477,,1131117.042,5,600,,
break_continue,html.Screen,10_2_2,2023-11-29T18:01:11.997Z,,,,,,,,,,,NaN,,,,,,,,low,low,,,,,,,false,,,,,false,1131333.2000000477,1131333.100000143,,1131333,,1131117.042,5,600,,
sequence,flow.Sequence,10_2,2023-11-29T18:01:11.997Z,,,,,,,,,,,8524.361000142992,completion,,,,,,,low,low,,,,,,,false,,,,,false,1131333.2999999523,1131333.100000143,1122792.242,1123030.100000143,1122808.739,1131117.042,5,600,,
trial,html.Screen,10_3_0,2023-11-29T18:01:18.861Z,,,,1,-0.0164027439304477,0.0082910758715273,,0.04,false,hl,7080.257999952417,response,0.7308116448711435,0.9269498490855703,-1.1444624540853756,-0.908713834988551,0.7851622821177414,-0.9831780363646653,high,low,,ISIC_7381224.JPG,10,ISIC_7811951.JPG,28,28,false,0.2400000000000001,ll,keypress(f),0,false,1138197.5,1138197.2999999523,1131100.347,1131333.2999999523,1131117.042,1137973.96,5,600,4,
break,html.Screen,10_3_1,2023-11-29T18:01:18.862Z,,,,,,,,,,,NaN,,,,,,,,high,low,,,,,,,false,,,,,false,1138198.2000000477,1138198,,1138197.7000000477,,1137973.96,5,600,,
break_continue,html.Screen,10_3_2,2023-11-29T18:01:18.862Z,,,,,,,,,,,NaN,,,,,,,,high,low,,,,,,,false,,,,,false,1138198.600000143,1138198.4000000954,,1138198.2999999523,,1137973.96,5,600,,
sequence,flow.Sequence,10_3,2023-11-29T18:01:18.862Z,,,,,,,,,,,7081.358000095468,completion,,,,,,,high,low,,,,,,,false,,,,,false,1138198.9000000954,1138198.4000000954,1131100.347,1131333.2999999523,1131117.042,1137973.96,5,600,,
trial,html.Screen,10_4_0,2023-11-29T18:01:23.589Z,,,,1,0.0076984477620101,0.0069458408496562,,0.04,true,hl,4951.140000143088,response,1.075512775389519,0.9269498490855703,-1.1444624540853756,-1.0454702683049502,0.7851622821177414,-0.9831780363646653,high,low,,ISIC_0000434.JPG,10,ISIC_0033603.JPG,28,28,false,0.2400000000000001,hl,keypress(j),0,false,1142925.2000000477,1142925.100000143,1137957.287,1138199,1137973.96,1142712,5,600,5,
break,html.Screen,10_4_1,2023-11-29T18:01:23.590Z,,,,,,,,,,,NaN,,,,,,,,high,low,,,,,,,false,,,,,false,1142926.2000000477,1142926,,1142925.600000143,,1142712,5,600,,
break_continue,html.Screen,10_4_2,2023-11-29T18:01:23.590Z,,,,,,,,,,,NaN,,,,,,,,high,low,,,,,,,false,,,,,false,1142926.9000000954,1142926.5,,1142926.4000000954,,1142712,5,600,,
sequence,flow.Sequence,10_4,2023-11-29T18:01:23.590Z,,,,,,,,,,,4952.540000000037,completion,,,,,,,high,low,,,,,,,false,,,,,false,1142927.100000143,1142926.5,1137957.287,1138198.9000000954,1137973.96,1142712,5,600,,
trial,html.Screen,10_5_0,2023-11-29T18:01:27.357Z,,,,1,0.0286056110007553,0.036125199756515,,0.04,false,ll,3981,response,-1.219634566983089,0.9269498490855703,-1.1444624540853756,-1.0648460966097275,0.7851622821177414,-0.9831780363646653,low,low,,ISIC_6535558.JPG,9,ISIC_0030552.JPG,28,30,false,0.11,hh,keypress(i),0,false,1146693.100000143,1146693,1142695.274,1142927.2000000477,1142712,1146482.446,5,600,6,
break,html.Screen,10_5_1,2023-11-29T18:01:27.357Z,,,,,,,,,,,NaN,,,,,,,,low,low,,,,,,,false,,,,,false,1146693.9000000954,1146693.7000000477,,1146693.4000000954,,1146482.446,5,600,,
break_continue,html.Screen,10_5_2,2023-11-29T18:01:27.358Z,,,,,,,,,,,NaN,,,,,,,,low,low,,,,,,,false,,,,,false,1146694.2999999523,1146694.2000000477,,1146694,,1146482.446,5,600,,
sequence,flow.Sequence,10_5,2023-11-29T18:01:27.358Z,,,,,,,,,,,3982.2000000476837,completion,,,,,,,low,low,,,,,,,false,,,,,false,1146694.5,1146694.2000000477,1142695.274,1142927.2000000477,1142712,1146482.446,5,600,,
trial,html.Screen,10_6_0,2023-11-29T18:01:34.156Z,,,,1,-0.0088741920055285,-0.0058246074740588,,0.04,false,hh,7010.35399995232,response,0.8372379817368715,0.9269498490855703,-1.1444624540853756,0.8148867547702584,0.7851622821177414,-0.9831780363646653,high,high,,ISIC_4136663.JPG,9,ISIC_0024277.JPG,28,49,false,0.1,ll,keypress(f),0,false,1153492.9000000954,1153492.7999999523,1146465.776,1146694.7000000477,1146482.446,1153272.59,5,600,7,
break,html.Screen,10_6_1,2023-11-29T18:01:34.157Z,,,,,,,,,,,NaN,,,,,,,,high,high,,,,,,,false,,,,,false,1153493.2999999523,1153493.2999999523,,1153493.100000143,,1153272.59,5,600,,
break_continue,html.Screen,10_6_2,2023-11-29T18:01:34.157Z,,,,,,,,,,,NaN,,,,,,,,high,high,,,,,,,false,,,,,false,1153493.7000000477,1153493.600000143,,1153493.5,,1153272.59,5,600,,
sequence,flow.Sequence,10_6,2023-11-29T18:01:34.157Z,,,,,,,,,,,7011.154000143055,completion,,,,,,,high,high,,,,,,,false,,,,,false,1153493.7999999523,1153493.600000143,1146465.776,1146694.600000143,1146482.446,1153272.59,5,600,,
trial,html.Screen,10_7_0,2023-11-29T18:01:41.028Z,,,,1,0.0076984477620101,0.0069458408496562,,0.04,false,hl,7092.2099999522325,response,0.8110121381849364,0.9269498490855703,-1.1444624540853756,-0.7563142141851558,0.7851622821177414,-0.9831780363646653,high,low,,ISIC_0000434.JPG,8,ISIC_0033605.JPG,28,28,false,0.2400000000000001,hh,keypress(i),0,false,1160365,1160364.7999999523,1153255.841,1153494,1153272.59,1160146.118,5,600,8,
break,html.Screen,10_7_1,2023-11-29T18:01:41.029Z,,,,,,,,,,,NaN,,,,,,,,high,low,,,,,,,false,,,,,false,1160365.5,1160365.4000000954,,1160365.2000000477,,1160146.118,5,600,,
break_continue,html.Screen,10_7_2,2023-11-29T18:01:41.029Z,,,,,,,,,,,NaN,,,,,,,,high,low,,,,,,,false,,,,,false,1160365.9000000954,1160365.7999999523,,1160365.7000000477,,1160146.118,5,600,,
sequence,flow.Sequence,10_7,2023-11-29T18:01:41.029Z,,,,,,,,,,,7093.2099999522325,completion,,,,,,,high,low,,,,,,,false,,,,,false,1160366,1160365.7999999523,1153255.841,1153493.9000000954,1153272.59,1160146.118,5,600,,
trial,html.Screen,10_8_0,2023-11-29T18:01:46.684Z,,,,1,0.0367744112927588,0.0324865661712824,,0.04,true,ll,5874.482000143034,response,-1.1103777034815996,0.9269498490855703,-1.1444624540853756,-1.018282939602391,0.7851622821177414,-0.9831780363646653,low,low,,ISIC_4523565.JPG,9,ISIC_3094758.JPG,28,30,false,0.11,ll,keypress(f),0,false,1166020.7000000477,1166020.600000143,1160129.507,1160366.100000143,1160146.118,1165801.77,5,600,9,
break,html.Screen,10_8_1,2023-11-29T18:01:46.684Z,,,,,,,,,,,NaN,,,,,,,,low,low,,,,,,,false,,,,,false,1166021.100000143,1166021,,1166020.7999999523,,1165801.77,5,600,,
break_continue,html.Screen,10_8_2,2023-11-29T18:01:46.685Z,,,,,,,,,,,NaN,,,,,,,,low,low,,,,,,,false,,,,,false,1166021.2999999523,1166021.2000000477,,1166021.2000000477,,1165801.77,5,600,,
sequence,flow.Sequence,10_8,2023-11-29T18:01:46.685Z,,,,,,,,,,,5875.082000047667,completion,,,,,,,low,low,,,,,,,false,,,,,false,1166021.4000000954,1166021.2000000477,1160129.507,1160366.100000143,1160146.118,1165801.77,5,600,,
trial,html.Screen,10_9_0,2023-11-29T18:01:54.764Z,,,,1,0.0367744112927588,0.0324865661712824,,0.04,true,ll,8298.830000143033,response,-1.061329542878903,0.9269498490855703,-1.1444624540853756,-1.0605755702127622,0.7851622821177414,-0.9831780363646653,low,low,,ISIC_4523565.JPG,9,ISIC_0065622.JPG,28,30,false,0.11,ll,keypress(f),0,false,1174100.7999999523,1174100.600000143,1165785.135,1166021.5,1165801.77,1173876.535,5,600,10,
break,html.Screen,10_9_1,2023-11-29T18:01:54.764Z,,,,,,,,,,,NaN,,,,,,,,low,low,,,,,,,false,,,,,false,1174101.100000143,1174101,,1174100.9000000954,,1173876.535,5,600,,
break_continue,html.Screen,10_9_2,2023-11-29T18:01:54.765Z,,,,,,,,,,,NaN,,,,,,,,low,low,,,,,,,false,,,,,false,1174101.2999999523,1174101.2000000477,,1174101.100000143,,1173876.535,5,600,,
sequence,flow.Sequence,10_9,2023-11-29T18:01:54.765Z,,,,,,,,,,,8299.430000047665,completion,,,,,,,low,low,,,,,,,false,,,,,false,1174101.4000000954,1174101.2000000477,1165785.135,1166021.5,1165801.77,1173876.535,5,600,,
trial,html.Screen,10_10_0,2023-11-29T18:02:01.109Z,,,,1,-0.0374659946425444,-0.0086043094957617,,0.04,false,hh,6568.1650000477675,response,0.9381357191664412,0.9269498490855703,-1.1444624540853756,0.7568873197636701,0.7851622821177414,-0.9831780363646653,high,high,,ISIC_0033051.JPG,9,ISIC_9808863.JPG,28,49,false,0.1,lh,keypress(e),0,false,1180444.9000000954,1180444.7000000477,1173859.909,1174101.4000000954,1173876.535,1180232.906,5,600,11,
break,html.Screen,10_10_1,2023-11-29T18:02:01.109Z,,,,,,,,,,,NaN,,,,,,,,high,high,,,,,,,false,,,,,false,1180445.2999999523,1180445.2000000477,,1180445,,1180232.906,5,600,,
break_continue,html.Screen,10_10_2,2023-11-29T18:02:01.110Z,,,,,,,,,,,NaN,,,,,,,,high,high,,,,,,,false,,,,,false,1180445.600000143,1180445.5,,1180445.2999999523,,1180232.906,5,600,,
sequence,flow.Sequence,10_10,2023-11-29T18:02:01.110Z,,,,,,,,,,,6568.965000000084,completion,,,,,,,high,high,,,,,,,false,,,,,false,1180445.7000000477,1180445.5,1173859.909,1174101.4000000954,1173876.535,1180232.906,5,600,,
trial,html.Screen,10_11_0,2023-11-29T18:02:09.221Z,,,,1,0.0308384937406319,-0.0038396364323947,,0.04,false,hl,8323.494000095408,response,0.7883321712536753,0.9269498490855703,-1.1444624540853756,-1.0011430756825364,0.7851622821177414,-0.9831780363646653,high,low,,ISIC_0029825.JPG,9,ISIC_9828853.JPG,28,28,false,0.2400000000000001,hh,keypress(i),0,false,1188556.5,1188556.4000000954,1180216.182,1180445.7999999523,1180232.906,1188341.228,5,600,12,
break,html.Screen,10_11_1,2023-11-29T18:02:09.221Z,,,,,,,,,,,NaN,,,,,,,,high,low,,,,,,,false,,,,,false,1188556.7999999523,1188556.7999999523,,1188556.600000143,,1188341.228,5,600,,
break_continue,html.Screen,10_11_2,2023-11-29T18:02:09.221Z,,,,,,,,,,,NaN,,,,,,,,high,low,,,,,,,false,,,,,false,1188557,1188556.9000000954,,1188556.9000000954,,1188341.228,5,600,,
sequence,flow.Sequence,10_11,2023-11-29T18:02:09.221Z,,,,,,,,,,,8323.994000095408,completion,,,,,,,high,low,,,,,,,false,,,,,false,1188557,1188556.9000000954,1180216.182,1180445.7999999523,1180232.906,1188341.228,5,600,,
trial,html.Screen,10_12_0,2023-11-29T18:02:12.885Z,,,,1,0.0119001144851157,-0.0063430114540141,,0.04,true,ll,3879.3720001431648,response,-1.048482877784125,0.9269498490855703,-1.1444624540853756,-1.0716857765902368,0.7851622821177414,-0.9831780363646653,low,low,,ISIC_0003822.JPG,9,ISIC_0063961.JPG,28,30,false,0.11,ll,keypress(f),0,false,1192220.7000000477,1192220.600000143,1188324.363,1188557.100000143,1188341.228,1191994.64,5,600,13,
break,html.Screen,10_12_1,2023-11-29T18:02:12.885Z,,,,,,,,,,,NaN,,,,,,,,low,low,,,,,,,false,,,,,false,1192221,1192220.9000000954,,1192220.7999999523,,1191994.64,5,600,,
break_continue,html.Screen,10_12_2,2023-11-29T18:02:12.885Z,,,,,,,,,,,NaN,,,,,,,,low,low,,,,,,,false,,,,,false,1192221.2999999523,1192221.100000143,,1192221.100000143,,1191994.64,5,600,,
sequence,flow.Sequence,10_12,2023-11-29T18:02:12.885Z,,,,,,,,,,,3879.8720001431648,completion,,,,,,,low,low,,,,,,,false,,,,,false,1192221.2999999523,1192221.100000143,1188324.363,1188557.100000143,1188341.228,1191994.64,5,600,,
trial,html.Screen,10_13_0,2023-11-29T18:02:21.549Z,,,,1,-0.0374659946425444,-0.0086043094957617,,0.04,false,hh,8890.560000047786,response,0.8372379817368715,0.9269498490855703,-1.1444624540853756,0.8148867547702584,0.7851622821177414,-0.9831780363646653,high,high,,ISIC_0033051.JPG,9,ISIC_0024277.JPG,28,49,false,0.1,lh,keypress(e),0,false,1200885.4000000954,1200885.2000000477,1191977.949,1192221.4000000954,1191994.64,1200670.06,5,600,14,
break,html.Screen,10_13_1,2023-11-29T18:02:21.550Z,,,,,,,,,,,NaN,,,,,,,,high,high,,,,,,,false,,,,,false,1200886.100000143,1200885.9000000954,,1200885.600000143,,1200670.06,5,600,,
break_continue,html.Screen,10_13_2,2023-11-29T18:02:21.551Z,,,,,,,,,,,NaN,,,,,,,,high,high,,,,,,,false,,,,,false,1200886.5,1200886.2999999523,,1200886.2000000477,,1200670.06,5,600,,
sequence,flow.Sequence,10_13,2023-11-29T18:02:21.551Z,,,,,,,,,,,8891.659999952419,completion,,,,,,,high,high,,,,,,,false,,,,,false,1200886.7000000477,1200886.2999999523,1191977.949,1192221.2999999523,1191994.64,1200670.06,5,600,,
trial,html.Screen,10_14_0,2023-11-29T18:02:29.205Z,,,,1,0.0258224118104549,-0.0029364553353019,,0.04,true,hh,7870.540000142995,response,0.8379442136072591,0.9269498490855703,-1.1444624540853756,0.8260692529258827,0.7851622821177414,-0.9831780363646653,high,high,,ISIC_8325226.JPG,8,ISIC_0013213.JPG,28,49,false,0.1,hh,keypress(i),0,false,1208540.7999999523,1208540.600000143,1200653.476,1200886.9000000954,1200670.06,1208327.686,5,600,15,
break,html.Screen,10_14_1,2023-11-29T18:02:29.205Z,,,,,,,,,,,NaN,,,,,,,,high,high,,,,,,,false,,,,,false,1208541.2000000477,1208541.100000143,,1208540.9000000954,,1208327.686,5,600,,
break_continue,html.Screen,10_14_2,2023-11-29T18:02:29.205Z,,,,,,,,,,,NaN,,,,,,,,high,high,,,,,,,false,,,,,false,1208541.5,1208541.2999999523,,1208541.2000000477,,1208327.686,5,600,,
sequence,flow.Sequence,10_14,2023-11-29T18:02:29.205Z,,,,,,,,,,,7871.23999995226,completion,,,,,,,high,high,,,,,,,false,,,,,false,1208541.5,1208541.2999999523,1200653.476,1200886.7999999523,1200670.06,1208327.686,5,600,,
trial,html.Screen,10_15_0,2023-11-29T18:02:35.956Z,,,,1,-0.0199950873045219,-0.0172506388509166,,0.04,true,lh,6964.613999952329,response,-0.9145057080927842,0.9269498490855703,-1.1444624540853756,0.657848806080734,0.7851622821177414,-0.9831780363646653,low,high,,ISIC_0029906.JPG,9,ISIC_0014308.JPG,28,28,false,0.2300000000000001,lh,keypress(e),0,false,1215292.5,1215292.2999999523,1208311.11,1208541.600000143,1208327.686,1215067.731,5,600,16,
break,html.Screen,10_15_1,2023-11-29T18:02:35.957Z,,,,,,,,,,,NaN,,,,,,,,low,high,,,,,,,false,,,,,false,1215292.7999999523,1215292.7999999523,,1215292.600000143,,1215067.731,5,600,,
break_continue,html.Screen,10_15_2,2023-11-29T18:02:35.957Z,,,,,,,,,,,NaN,,,,,,,,low,high,,,,,,,false,,,,,false,1215293.100000143,1215293,,1215292.7999999523,,1215067.731,5,600,,
sequence,flow.Sequence,10_15,2023-11-29T18:02:35.957Z,,,,,,,,,,,6965.314000000013,completion,,,,,,,low,high,,,,,,,false,,,,,false,1215293.2000000477,1215293,1208311.11,1208541.600000143,1208327.686,1215067.731,5,600,,
trial,html.Screen,10_16_0,2023-11-29T18:02:39.742Z,,,,1,-0.0388334549081915,0.0303399972963369,,0.04,true,ll,4010.2690000000875,response,-1.1615479475206127,0.9269498490855703,-1.1444624540853756,-0.958261725041355,0.7851622821177414,-0.9831780363646653,low,low,,ISIC_4961708.JPG,9,ISIC_0064427.JPG,28,30,false,0.11,ll,keypress(f),0,false,1219078.5,1219078,1215051.115,1215293.2999999523,1215067.731,1218854.93,5,600,17,
break,html.Screen,10_16_1,2023-11-29T18:02:39.744Z,,,,,,,,,,,NaN,,,,,,,,low,low,,,,,,,false,,,,,false,1219079.9000000954,1219079.600000143,,1219079,,1218854.93,5,600,,
break_continue,html.Screen,10_16_2,2023-11-29T18:02:39.745Z,,,,,,,,,,,NaN,,,,,,,,low,low,,,,,,,false,,,,,false,1219080.7000000477,1219080.2999999523,,1219080,,1218854.93,5,600,,
sequence,flow.Sequence,10_16,2023-11-29T18:02:39.745Z,,,,,,,,,,,4012.568999952404,completion,,,,,,,low,low,,,,,,,false,,,,,false,1219081,1219080.2999999523,1215051.115,1215293.2000000477,1215067.731,1218854.93,5,600,,
trial,html.Screen,10_17_0,2023-11-29T18:02:42.341Z,,,,1,0.0367706518941078,-0.0161069838272154,,0.04,true,hh,2821.9700000954326,response,1.021981961304436,0.9269498490855703,-1.1444624540853756,0.7957634739543782,0.7851622821177414,-0.9831780363646653,high,high,,ISIC_0033419.JPG,9,ISIC_0006327.JPG,28,49,false,0.1,hh,keypress(i),0,false,1221677.100000143,1221676.9000000954,1218838.421,1219081.2000000477,1218854.93,1221457.508,5,600,18,
break,html.Screen,10_17_1,2023-11-29T18:02:42.342Z,,,,,,,,,,,NaN,,,,,,,,high,high,,,,,,,false,,,,,false,1221677.7999999523,1221677.7000000477,,1221677.2999999523,,1221457.508,5,600,,
break_continue,html.Screen,10_17_2,2023-11-29T18:02:42.342Z,,,,,,,,,,,NaN,,,,,,,,high,high,,,,,,,false,,,,,false,1221678.5,1221678.2000000477,,1221678,,1221457.508,5,600,,
sequence,flow.Sequence,10_17,2023-11-29T18:02:42.343Z,,,,,,,,,,,2823.270000047749,completion,,,,,,,high,high,,,,,,,false,,,,,false,1221678.600000143,1221678.2000000477,1218838.421,1219081.2000000477,1218854.93,1221457.508,5,600,,
trial,html.Screen,10_18_0,2023-11-29T18:02:47.517Z,,,,1,0.0257631352671967,0.0202837002774028,,0.04,false,ll,5395.291999952402,response,-1.0394767720056428,0.9269498490855703,-1.1444624540853756,-0.9642448420571276,0.7851622821177414,-0.9831780363646653,low,low,,ISIC_0032797.JPG,9,ISIC_0032823.JPG,28,30,false,0.11,lh,keypress(e),0,false,1226852.9000000954,1226852.7999999523,1221440.996,1221678.7999999523,1221457.508,1226629.355,5,600,19,
break,html.Screen,10_18_1,2023-11-29T18:02:47.517Z,,,,,,,,,,,NaN,,,,,,,,low,low,,,,,,,false,,,,,false,1226853.4000000954,1226853.4000000954,,1226853.2000000477,,1226629.355,5,600,,
break_continue,html.Screen,10_18_2,2023-11-29T18:02:47.518Z,,,,,,,,,,,NaN,,,,,,,,low,low,,,,,,,false,,,,,false,1226853.7999999523,1226853.600000143,,1226853.600000143,,1226629.355,5,600,,
sequence,flow.Sequence,10_18,2023-11-29T18:02:47.518Z,,,,,,,,,,,5396.092000143137,completion,,,,,,,low,low,,,,,,,false,,,,,false,1226853.9000000954,1226853.600000143,1221440.996,1221678.7000000477,1221457.508,1226629.355,5,600,,
trial,html.Screen,10_19_0,2023-11-29T18:02:53.077Z,,,,1,0.0118382036798625,0.0300588245877227,,0.04,true,hl,5783.444999952335,response,1.0329549150636406,0.9269498490855703,-1.1444624540853756,-1.01584100839286,0.7851622821177414,-0.9831780363646653,high,low,,ISIC_4748605.JPG,8,ISIC_0054670.JPG,28,28,false,0.2400000000000001,hl,keypress(j),0,false,1232412.9000000954,1232412.7999999523,1226612.828,1226854,1226629.355,1232201.603,5,600,20,
break,html.Screen,10_19_1,2023-11-29T18:02:53.077Z,,,,,,,,,,,NaN,,,,,,,,high,low,,,,,,,false,,,,,false,1232413.2999999523,1232413.2000000477,,1232413,,1232201.603,5,600,,
break_continue,html.Screen,10_19_2,2023-11-29T18:02:53.078Z,,,,,,,,,,,NaN,,,,,,,,high,low,,,,,,,false,,,,,false,1232413.600000143,1232413.4000000954,,1232413.4000000954,,1232201.603,5,600,,
sequence,flow.Sequence,10_19,2023-11-29T18:02:53.078Z,,,,,,,,,,,5784.045000095386,completion,,,,,,,high,low,,,,,,,false,,,,,false,1232413.600000143,1232413.4000000954,1226612.828,1226854,1226629.355,1232201.603,5,600,,
trial,html.Screen,10_20_0,2023-11-29T18:02:59.125Z,,,,1,0.0367706518941078,-0.0161069838272154,,0.04,true,hl,6259.19699995243,response,1.0329549150636406,0.9269498490855703,-1.1444624540853756,-1.01584100839286,0.7851622821177414,-0.9831780363646653,high,low,,ISIC_0033419.JPG,9,ISIC_0054670.JPG,28,28,false,0.2400000000000001,hl,keypress(j),0,false,1238461.100000143,1238460.7999999523,1232184.976,1232413.7000000477,1232201.603,1238241.007,5,600,21,
break,html.Screen,10_20_1,2023-11-29T18:02:59.126Z,,,,,,,,,,,NaN,,,,,,,,high,low,,,,,,,false,,,,,false,1238461.7000000477,1238461.5,,1238461.2000000477,,1238241.007,5,600,,
break_continue,html.Screen,10_20_2,2023-11-29T18:02:59.126Z,,,,,,,,,,,NaN,,,,,,,,high,low,,,,,,,false,,,,,false,1238462.2000000477,1238462,,1238461.7999999523,,1238241.007,5,600,,
sequence,flow.Sequence,10_20,2023-11-29T18:02:59.126Z,,,,,,,,,,,6260.397000000114,completion,,,,,,,high,low,,,,,,,false,,,,,false,1238462.2999999523,1238462,1232184.976,1232413.7000000477,1232201.603,1238241.007,5,600,,
trial,html.Screen,10_21_0,2023-11-29T18:03:06.269Z,,,,1,0.0286056110007553,0.036125199756515,,0.04,true,lh,7363.6930000477005,response,-1.0601612613194336,0.9269498490855703,-1.1444624540853756,0.5836198587596447,0.7851622821177414,-0.9831780363646653,low,high,,ISIC_6535558.JPG,9,ISIC_0014790.JPG,28,28,false,0.2300000000000001,lh,keypress(e),0,false,1245604.7999999523,1245604.7000000477,1238224.426,1238462.5,1238241.007,1245381.45,5,600,22,
break,html.Screen,10_21_1,2023-11-29T18:03:06.270Z,,,,,,,,,,,NaN,,,,,,,,low,high,,,,,,,false,,,,,false,1245605.2000000477,1245605.100000143,,1245604.9000000954,,1245381.45,5,600,,
break_continue,html.Screen,10_21_2,2023-11-29T18:03:06.270Z,,,,,,,,,,,NaN,,,,,,,,low,high,,,,,,,false,,,,,false,1245605.4000000954,1245605.2999999523,,1245605.2999999523,,1245381.45,5,600,,
sequence,flow.Sequence,10_21,2023-11-29T18:03:06.270Z,,,,,,,,,,,7364.292999952333,completion,,,,,,,low,high,,,,,,,false,,,,,false,1245605.600000143,1245605.2999999523,1238224.426,1238462.4000000954,1238241.007,1245381.45,5,600,,
trial,html.Screen,10_22_0,2023-11-29T18:03:10.951Z,,,,1,-0.001445457736793,-0.0165307427449982,,0.04,true,hh,4904.150000143098,response,0.843726025213188,0.9269498490855703,-1.1444624540853756,0.7754562859183127,0.7851622821177414,-0.9831780363646653,high,high,,ISIC_0027350.JPG,9,ISIC_4728200.JPG,28,49,false,0.1,hh,keypress(i),0,false,1250285.7999999523,1250285.600000143,1245364.803,1245605.600000143,1245381.45,1250069.501,5,600,23,
break,html.Screen,10_22_1,2023-11-29T18:03:10.951Z,,,,,,,,,,,NaN,,,,,,,,high,high,,,,,,,false,,,,,false,1250286.7000000477,1250286.600000143,,1250286.2000000477,,1250069.501,5,600,,
break_continue,html.Screen,10_22_2,2023-11-29T18:03:10.952Z,,,,,,,,,,,NaN,,,,,,,,high,high,,,,,,,false,,,,,false,1250287.5,1250287.100000143,,1250286.9000000954,,1250069.501,5,600,,
sequence,flow.Sequence,10_22,2023-11-29T18:03:10.952Z,,,,,,,,,,,4905.650000143098,completion,,,,,,,high,high,,,,,,,false,,,,,false,1250287.7000000477,1250287.100000143,1245364.803,1245605.600000143,1245381.45,1250069.501,5,600,,
trial,html.Screen,10_23_0,2023-11-29T18:03:18.653Z,,,,1,-0.0199950873045219,-0.0172506388509166,,0.04,false,ll,7919.09900014312,response,-1.2033647433750492,0.9269498490855703,-1.1444624540853756,-1.0718012192341555,0.7851622821177414,-0.9831780363646653,low,low,,ISIC_0029906.JPG,9,ISIC_0061606.JPG,28,30,false,0.11,hl,keypress(j),0,false,1257988.7999999523,1257988.600000143,1250052.99,1250287.7999999523,1250069.501,1257777.252,5,600,24,
break,html.Screen,10_23_1,2023-11-29T18:03:18.654Z,,,,,,,,,,,NaN,,,,,,,,low,low,,,,,,,false,,,,,false,1257989.100000143,1257988.9000000954,,1257988.9000000954,,1257777.252,5,600,,
break_continue,html.Screen,10_23_2,2023-11-29T18:03:18.654Z,,,,,,,,,,,NaN,,,,,,,,low,low,,,,,,,false,,,,,false,1257989.2000000477,1257989.100000143,,1257989.100000143,,1257777.252,5,600,,
sequence,flow.Sequence,10_23,2023-11-29T18:03:18.654Z,,,,,,,,,,,7919.59900014312,completion,,,,,,,low,low,,,,,,,false,,,,,false,1257989.4000000954,1257989.100000143,1250052.99,1250287.7000000477,1250069.501,1257777.252,5,600,,
trial,html.Screen,10_24_0,2023-11-29T18:03:26.893Z,,,,1,-0.0388334549081915,0.0303399972963369,,0.04,false,lh,8451.047999952221,response,-0.9198276163642348,0.9269498490855703,-1.1444624540853756,0.7754915110667046,0.7851622821177414,-0.9831780363646653,low,high,,ISIC_4961708.JPG,9,ISIC_7840728.JPG,28,28,false,0.2300000000000001,ll,keypress(f),0,false,1266228.4000000954,1266228.2999999523,1257760.506,1257989.4000000954,1257777.252,1266002.065,5,600,25,
break,html.Screen,10_24_1,2023-11-29T18:03:26.893Z,,,,,,,,,,,NaN,,,,,,,,low,high,,,,,,,false,,,,,false,1266228.7000000477,1266228.7000000477,,1266228.5,,1266002.065,5,600,,
break_continue,html.Screen,10_24_2,2023-11-29T18:03:26.894Z,,,,,,,,,,,NaN,,,,,,,,low,high,,,,,,,false,,,,,false,1266228.9000000954,1266228.7999999523,,1266228.7999999523,,1266002.065,5,600,,
sequence,flow.Sequence,10_24,2023-11-29T18:03:26.894Z,,,,,,,,,,,8451.547999952221,completion,,,,,,,low,high,,,,,,,false,,,,,false,1266229,1266228.7999999523,1257760.506,1257989.4000000954,1257777.252,1266002.065,5,600,,
trial,html.Screen,10_25_0,2023-11-29T18:03:30.229Z,,,,1,0.0044063257337227,0.0172548282859886,,0.04,true,ll,3562.6350000477396,response,-1.1209497725708388,0.9269498490855703,-1.1444624540853756,-0.9895687497294692,0.7851622821177414,-0.9831780363646653,low,low,,ISIC_7413786.JPG,9,ISIC_0027751.JPG,28,30,false,0.11,ll,keypress(f),0,false,1269564.7999999523,1269564.7000000477,1265985.464,1266229.100000143,1266002.065,1269338.75,5,600,26,
break,html.Screen,10_25_1,2023-11-29T18:03:30.230Z,,,,,,,,,,,NaN,,,,,,,,low,low,,,,,,,false,,,,,false,1269565.100000143,1269565.100000143,,1269564.9000000954,,1269338.75,5,600,,
break_continue,html.Screen,10_25_2,2023-11-29T18:03:30.230Z,,,,,,,,,,,NaN,,,,,,,,low,low,,,,,,,false,,,,,false,1269565.2999999523,1269565.2000000477,,1269565.100000143,,1269338.75,5,600,,
sequence,flow.Sequence,10_25,2023-11-29T18:03:30.230Z,,,,,,,,,,,3563.1350000477396,completion,,,,,,,low,low,,,,,,,false,,,,,false,1269565.4000000954,1269565.2000000477,1265985.464,1266229.100000143,1266002.065,1269338.75,5,600,,
trial,html.Screen,10_26_0,2023-11-29T18:03:35.270Z,,,,1,0.0367744112927588,0.0324865661712824,,0.04,false,hh,5266.049999952316,response,0.9672217489045032,0.9269498490855703,-1.1444624540853756,0.8148676897881278,0.7851622821177414,-0.9831780363646653,high,high,,ISIC_4523565.JPG,9,ISIC_0010358.JPG,28,49,false,0.1,hl,keypress(j),0,false,1274605,1274604.7999999523,1269322.17,1269565.4000000954,1269338.75,1274393.827,5,600,27,
break,html.Screen,10_26_1,2023-11-29T18:03:35.270Z,,,,,,,,,,,NaN,,,,,,,,high,high,,,,,,,false,,,,,false,1274605.4000000954,1274605.2999999523,,1274605.2000000477,,1274393.827,5,600,,
break_continue,html.Screen,10_26_2,2023-11-29T18:03:35.270Z,,,,,,,,,,,NaN,,,,,,,,high,high,,,,,,,false,,,,,false,1274605.7000000477,1274605.600000143,,1274605.5,,1274393.827,5,600,,
sequence,flow.Sequence,10_26,2023-11-29T18:03:35.270Z,,,,,,,,,,,5266.850000143051,completion,,,,,,,high,high,,,,,,,false,,,,,false,1274605.7999999523,1274605.600000143,1269322.17,1269565.4000000954,1269338.75,1274393.827,5,600,,
trial,html.Screen,10_27_0,2023-11-29T18:03:44.533Z,,,,1,0.0044063257337227,0.0172548282859886,,0.04,false,lh,9474.972999952268,response,-1.1850651468269413,0.9269498490855703,-1.1444624540853756,0.656667092342377,0.7851622821177414,-0.9831780363646653,low,high,,ISIC_7413786.JPG,8,ISIC_5751956.JPG,28,28,false,0.2300000000000001,hh,keypress(i),0,false,1283868.7999999523,1283868.7999999523,1274377.065,1274605.7999999523,1274393.827,1283653.127,5,600,28,
break,html.Screen,10_27_1,2023-11-29T18:03:44.534Z,,,,,,,,,,,NaN,,,,,,,,low,high,,,,,,,false,,,,,false,1283869.2999999523,1283869.2000000477,,1283869,,1283653.127,5,600,,
break_continue,html.Screen,10_27_2,2023-11-29T18:03:44.534Z,,,,,,,,,,,NaN,,,,,,,,low,high,,,,,,,false,,,,,false,1283869.600000143,1283869.5,,1283869.4000000954,,1283653.127,5,600,,
sequence,flow.Sequence,10_27,2023-11-29T18:03:44.534Z,,,,,,,,,,,9475.672999999952,completion,,,,,,,low,high,,,,,,,false,,,,,false,1283869.7000000477,1283869.5,1274377.065,1274605.7999999523,1274393.827,1283653.127,5,600,,
trial,html.Screen,10_28_0,2023-11-29T18:03:50.653Z,,,,1,0.0308384937406319,-0.0038396364323947,,0.04,true,ll,6335.273000095272,response,-1.0394767720056428,0.9269498490855703,-1.1444624540853756,-0.9642448420571276,0.7851622821177414,-0.9831780363646653,low,low,,ISIC_0029825.JPG,10,ISIC_0032823.JPG,28,30,false,0.11,ll,keypress(f),0,false,1289988.4000000954,1289988.4000000954,1283636.336,1283869.7000000477,1283653.127,1289776.039,5,600,29,
break,html.Screen,10_28_1,2023-11-29T18:03:50.653Z,,,,,,,,,,,NaN,,,,,,,,low,low,,,,,,,false,,,,,false,1289988.7000000477,1289988.7000000477,,1289988.600000143,,1289776.039,5,600,,
break_continue,html.Screen,10_28_2,2023-11-29T18:03:50.654Z,,,,,,,,,,,NaN,,,,,,,,low,low,,,,,,,false,,,,,false,1289989,1289988.9000000954,,1289988.7999999523,,1289776.039,5,600,,
sequence,flow.Sequence,10_28,2023-11-29T18:03:50.654Z,,,,,,,,,,,6335.773000095272,completion,,,,,,,low,low,,,,,,,false,,,,,false,1289989.100000143,1289988.9000000954,1283636.336,1283869.7000000477,1283653.127,1289776.039,5,600,,
trial,html.Screen,10_29_0,2023-11-29T18:03:57.254Z,,,,1,0.0200295718112167,0.0155559071275806,,0.04,false,hh,6812.960999999894,response,0.8379442136072591,0.9269498490855703,-1.1444624540853756,0.8260692529258827,0.7851622821177414,-0.9831780363646653,high,high,,ISIC_0061343.JPG,8,ISIC_0013213.JPG,28,49,false,0.1,ll,keypress(f),0,false,1296589.2000000477,1296589,1289759.165,1289989.100000143,1289776.039,1296365.84,5,600,30,
break,html.Screen,10_29_1,2023-11-29T18:03:57.254Z,,,,,,,,,,,NaN,,,,,,,,high,high,,,,,,,false,,,,,false,1296589.7999999523,1296589.7000000477,,1296589.4000000954,,1296365.84,5,600,,
break_continue,html.Screen,10_29_2,2023-11-29T18:03:57.255Z,,,,,,,,,,,NaN,,,,,,,,high,high,,,,,,,false,,,,,false,1296590.2999999523,1296590.2000000477,,1296589.9000000954,,1296365.84,5,600,,
sequence,flow.Sequence,10_29,2023-11-29T18:03:57.255Z,,,,,,,,,,,6814.1610000475775,completion,,,,,,,high,high,,,,,,,false,,,,,false,1296590.5,1296590.2000000477,1289759.165,1289989.100000143,1289776.039,1296365.84,5,600,,
trial,html.Screen,10_30_0,2023-11-29T18:04:01.814Z,,,,1,-0.0388334549081915,0.0303399972963369,,0.04,false,hl,4782.8600000476,response,0.9754077946987664,0.9269498490855703,-1.1444624540853756,-1.1821868813141057,0.7851622821177414,-0.9831780363646653,high,low,,ISIC_4961708.JPG,9,ISIC_0024317.JPG,28,28,false,0.2400000000000001,ll,keypress(f),0,false,1301148.9000000954,1301148.7000000477,1296349.088,1296590.600000143,1296365.84,1300937.314,5,600,31,
break,html.Screen,10_30_1,2023-11-29T18:04:01.815Z,,,,,,,,,,,NaN,,,,,,,,high,low,,,,,,,false,,,,,false,1301149.2999999523,1301149.2000000477,,1301149,,1300937.314,5,600,,
break_continue,html.Screen,10_30_2,2023-11-29T18:04:01.815Z,,,,,,,,,,,NaN,,,,,,,,high,low,,,,,,,false,,,,,false,1301149.600000143,1301149.5,,1301149.4000000954,,1300937.314,5,600,,
sequence,flow.Sequence,10_30,2023-11-29T18:04:01.815Z,,,,,,,,,,,4783.659999999916,completion,,,,,,,high,low,,,,,,,false,,,,,false,1301149.7000000477,1301149.5,1296349.088,1296590.600000143,1296365.84,1300937.314,5,600,,
trial,html.Screen,10_31_0,2023-11-29T18:04:07.679Z,,,,1,0.0286056110007553,0.036125199756515,,0.04,false,hl,6075.985999952303,response,1.0453124399868816,0.9269498490855703,-1.1444624540853756,-0.8986747280184286,0.7851622821177414,-0.9831780363646653,high,low,,ISIC_6535558.JPG,8,ISIC_0013967.JPG,28,28,false,0.2400000000000001,hh,keypress(i),0,false,1307013.600000143,1307013.2999999523,1300920.441,1301149.7000000477,1300937.314,1306792.915,5,600,32,
break,html.Screen,10_31_1,2023-11-29T18:04:07.680Z,,,,,,,,,,,NaN,,,,,,,,high,low,,,,,,,false,,,,,false,1307014.2999999523,1307014.100000143,,1307013.7999999523,,1306792.915,5,600,,
break_continue,html.Screen,10_31_2,2023-11-29T18:04:07.680Z,,,,,,,,,,,NaN,,,,,,,,high,low,,,,,,,false,,,,,false,1307014.7999999523,1307014.600000143,,1307014.4000000954,,1306792.915,5,600,,
sequence,flow.Sequence,10_31,2023-11-29T18:04:07.680Z,,,,,,,,,,,6077.286000143038,completion,,,,,,,high,low,,,,,,,false,,,,,false,1307015,1307014.600000143,1300920.441,1301149.7000000477,1300937.314,1306792.915,5,600,,
trial,html.Screen,10_32_0,2023-11-29T18:04:18.910Z,,,,1,-0.0088741920055285,-0.0058246074740588,,0.04,false,hh,11451.884999952279,response,0.8312854004298869,0.9269498490855703,-1.1444624540853756,0.7459511759516213,0.7851622821177414,-0.9831780363646653,high,high,,ISIC_4136663.JPG,10,ISIC_8690205.JPG,28,49,false,0.1,hl,keypress(j),0,false,1318244.9000000954,1318244.7999999523,1306776.292,1307015.100000143,1306792.915,1318020.819,5,600,33,
break,html.Screen,10_32_1,2023-11-29T18:04:18.911Z,,,,,,,,,,,NaN,,,,,,,,high,high,,,,,,,false,,,,,false,1318245.2000000477,1318245.2000000477,,1318245,,1318020.819,5,600,,
break_continue,html.Screen,10_32_2,2023-11-29T18:04:18.911Z,,,,,,,,,,,NaN,,,,,,,,high,high,,,,,,,false,,,,,false,1318245.5,1318245.4000000954,,1318245.4000000954,,1318020.819,5,600,,
sequence,flow.Sequence,10_32,2023-11-29T18:04:18.911Z,,,,,,,,,,,11452.48500009533,completion,,,,,,,high,high,,,,,,,false,,,,,false,1318245.600000143,1318245.4000000954,1306776.292,1307015.100000143,1306792.915,1318020.819,5,600,,
trial,html.Screen,10_33_0,2023-11-29T18:04:24.927Z,,,,1,-0.0088741920055285,-0.0058246074740588,,0.04,true,ll,6240.28100014315,response,-1.0665699221890637,0.9269498490855703,-1.1444624540853756,-1.0106762707163983,0.7851622821177414,-0.9831780363646653,low,low,,ISIC_4136663.JPG,10,ISIC_1630301.JPG,28,30,false,0.11,ll,keypress(f),0,false,1324261.2999999523,1324261.100000143,1318004.337,1318245.600000143,1318020.819,1324043.531,5,600,34,
break,html.Screen,10_33_1,2023-11-29T18:04:24.927Z,,,,,,,,,,,NaN,,,,,,,,low,low,,,,,,,false,,,,,false,1324261.7999999523,1324261.7000000477,,1324261.4000000954,,1324043.531,5,600,,
break_continue,html.Screen,10_33_2,2023-11-29T18:04:24.928Z,,,,,,,,,,,NaN,,,,,,,,low,low,,,,,,,false,,,,,false,1324262.2000000477,1324262,,1324261.9000000954,,1324043.531,5,600,,
sequence,flow.Sequence,10_33,2023-11-29T18:04:24.928Z,,,,,,,,,,,6241.181000000099,completion,,,,,,,low,low,,,,,,,false,,,,,false,1324262.4000000954,1324262,1318004.337,1318245.600000143,1318020.819,1324043.531,5,600,,
trial,html.Screen,10_34_0,2023-11-29T18:04:29.078Z,,,,1,-0.0374659946425444,-0.0086043094957617,,0.04,true,ll,4369.069000143092,response,-1.0918237468930412,0.9269498490855703,-1.1444624540853756,-1.0199940959248062,0.7851622821177414,-0.9831780363646653,low,low,,ISIC_0033051.JPG,9,ISIC_0064120.JPG,28,30,false,0.11,ll,keypress(f),0,false,1328412.7000000477,1328412.600000143,1324026.842,1324262.5,1324043.531,1328197.815,5,600,35,
break,html.Screen,10_34_1,2023-11-29T18:04:29.078Z,,,,,,,,,,,NaN,,,,,,,,low,low,,,,,,,false,,,,,false,1328413.100000143,1328413,,1328412.9000000954,,1328197.815,5,600,,
break_continue,html.Screen,10_34_2,2023-11-29T18:04:29.079Z,,,,,,,,,,,NaN,,,,,,,,low,low,,,,,,,false,,,,,false,1328413.2999999523,1328413.2000000477,,1328413.2000000477,,1328197.815,5,600,,
sequence,flow.Sequence,10_34,2023-11-29T18:04:29.079Z,,,,,,,,,,,4369.669000047725,completion,,,,,,,low,low,,,,,,,false,,,,,false,1328413.5,1328413.2000000477,1324026.842,1324262.4000000954,1324043.531,1328197.815,5,600,,
trial,html.Screen,10_35_0,2023-11-29T18:04:36.255Z,,,,1,-0.0374659946425444,-0.0086043094957617,,0.04,false,ll,7391.185000000056,response,-1.1103777034815996,0.9269498490855703,-1.1444624540853756,-1.018282939602391,0.7851622821177414,-0.9831780363646653,low,low,,ISIC_0033051.JPG,8,ISIC_3094758.JPG,28,30,false,0.11,lh,keypress(e),0,false,1335589.2000000477,1335589,1328181.123,1328413.5,1328197.815,1335371.588,5,600,36,
break,html.Screen,10_35_1,2023-11-29T18:04:36.255Z,,,,,,,,,,,NaN,,,,,,,,low,low,,,,,,,false,,,,,false,1335589.7000000477,1335589.600000143,,1335589.2999999523,,1335371.588,5,600,,
break_continue,html.Screen,10_35_2,2023-11-29T18:04:36.255Z,,,,,,,,,,,NaN,,,,,,,,low,low,,,,,,,false,,,,,false,1335590.100000143,1335589.9000000954,,1335589.7999999523,,1335371.588,5,600,,
sequence,flow.Sequence,10_35,2023-11-29T18:04:36.256Z,,,,,,,,,,,7392.085000095423,completion,,,,,,,low,low,,,,,,,false,,,,,false,1335590.2000000477,1335589.9000000954,1328181.123,1328413.5,1328197.815,1335371.588,5,600,,
trial,html.Screen,10_36_0,2023-11-29T18:04:39.655Z,,,,1,0.0283578106329894,-0.0088840758711548,,0.04,true,ll,3617.612000047695,response,-1.2021403809644975,0.9269498490855703,-1.1444624540853756,-0.9240154278810436,0.7851622821177414,-0.9831780363646653,low,low,,ISIC_0060707.JPG,10,ISIC_0011757.JPG,28,30,false,0.11,ll,keypress(f),0,false,1338989.4000000954,1338989.2000000477,1335354.901,1335590.2999999523,1335371.588,1338774.914,5,600,37,
break,html.Screen,10_36_1,2023-11-29T18:04:39.655Z,,,,,,,,,,,NaN,,,,,,,,low,low,,,,,,,false,,,,,false,1338989.9000000954,1338989.7999999523,,1338989.600000143,,1338774.914,5,600,,
break_continue,html.Screen,10_36_2,2023-11-29T18:04:39.656Z,,,,,,,,,,,NaN,,,,,,,,low,low,,,,,,,false,,,,,false,1338990.4000000954,1338990.100000143,,1338990,,1338774.914,5,600,,
sequence,flow.Sequence,10_36,2023-11-29T18:04:39.656Z,,,,,,,,,,,3618.5120001430623,completion,,,,,,,low,low,,,,,,,false,,,,,false,1338990.4000000954,1338990.100000143,1335354.901,1335590.2000000477,1335371.588,1338774.914,5,600,,
trial,html.Screen,10_37_0,2023-11-29T18:04:46.966Z,,,,1,-0.0374659946425444,-0.0086043094957617,,0.04,true,lh,7525.585999999894,response,-1.004142980655507,0.9269498490855703,-1.1444624540853756,0.7749773174967559,0.7851622821177414,-0.9831780363646653,low,high,,ISIC_0033051.JPG,9,ISIC_3936223.JPG,28,28,false,0.2300000000000001,lh,keypress(e),0,false,1346300.600000143,1346300.5,1338758.374,1338990.600000143,1338774.914,1346082.284,5,600,38,
