sender,sender_type,sender_id,timestamp,meta,,age,blockNo,c1,c2,condition,control_tolerance,correct,correctResponse,duration,ended_on,f1,f1_high,f1_low,f2,f2_high,f2_low,feature_level1,feature_level2,gender,img_left,img_reveal,img_right,n_control_images,n_target_images,practice,range_tolerance,response,response_action,selection_duration,staircase,time_commit,time_end,time_render,time_run,time_show,time_switch,total_blocks,total_trials,trialNo,url
informed_consent,html.Screen,0,2024-03-05T20:25:08.604Z,"{""labjs_version"":""20.2.4"",""labjs_build"":{""flavor"":""development"",""commit"":""f5b4a49f956347addd546a832a3327688c2c0fef""},""location"":""https://labjs.felixhenninger.com/api/labjs_preview/index.html"",""userAgent"":""Mozilla/5.0 (Windows NT 10.0; Win64; x64) AppleWebKit/537.36 (KHTML, like Gecko) Chrome/122.0.0.0 Safari/537.36"",""platform"":""Win32"",""language"":""en-US"",""locale"":""en-US"",""timeZone"":""America/Chicago"",""timezoneOffset"":360,""screen_width"":2560,""screen_height"":1440,""scroll_width"":1265,""scroll_height"":1278,""window_innerWidth"":1265,""window_innerHeight"":1326,""devicePixelRatio"":1}",,,,,,,,,,268517.80000000005,response,,,,,,,,,,,,,,,,,consent,click button,,,268899.7,268892.60000000003,358.1,446.90000000000146,374.8,268829.3,,,,{}
Demography form,html.Form,1,2024-03-05T20:25:14.948Z,,,19,,,,,,,,6414.200000000012,form submission,,,,,,,,,female,,,,,,,,,,,,275243.60000000003,275243.5,268812.6,268899.9,268829.3,275167.8,,,,
Welcome,html.Screen,2,2024-03-05T20:25:49.638Z,,,,,,,"[""bor"",""col""]",,,,34764.70000000001,response,,,,,,,,,,,,,,,,,continue,click button,,,309932.9,309932.5,275151.2,275243.60000000003,275167.8,309846.3,,,,
demo_instructions,html.Screen,3,2024-03-05T20:26:31.212Z,,,,,,,,,,,41734.50000000006,response,,,,,,,,,,,,,,,,,continue,click button,,,351581.60000000003,351580.80000000005,309846.294,309933.10000000003,309846.3,351497.4,,,,
trial,html.Screen,4_0_0,2024-03-05T20:26:52.973Z,,,,0,-1.1048559518249943,-1.2252457981338687,,,true,hh,21845.099999999977,response,1.0659165756604234,1.2,-1.2,1.0867497316848906,1.2,-1.2,high,high,,ISIC_0060817.JPG,,ISIC_5807608.JPG,,25,true,0.14,hh,keypress(i),100,false,373342.60000000003,373342.5,351495.654,351581.80000000005,351497.4,373282,1,16,1,
sequence,flow.Sequence,4_0,2024-03-05T20:26:52.973Z,,,,,,,,,,,21845.099999999977,completion,,,,,,,high,high,,,,,,,true,,,,,false,373342.80000000005,373342.5,351495.654,351581.80000000005,351497.4,373282,1,16,,
trial,html.Screen,4_1_0,2024-03-05T20:27:08.921Z,,,,0,-1.0769708994456726,-1.2196503533725178,,,true,hh,16161,response,1.2541318165695772,1.2,-1.2,1.085289936617366,1.2,-1.2,high,high,,ISIC_0063824.JPG,,ISIC_4277207.JPG,,25,true,0.14,hh,keypress(i),100,false,389443.2,389443,373265.366,373342.9,373282,389378.5,1,16,2,
sequence,flow.Sequence,4_1,2024-03-05T20:27:08.921Z,,,,,,,,,,,16161,completion,,,,,,,high,high,,,,,,,true,,,,,false,389443.5,389443,373265.366,373342.9,373282,389378.5,1,16,,
trial,html.Screen,4_2_0,2024-03-05T20:27:19.086Z,,,,0,-1.136677654701082,-1.2647850993872314,,,true,hh,10229.400000000023,response,1.109799097093339,1.2,-1.2,1.091507924157762,1.2,-1.2,high,high,,ISIC_0015436.JPG,,ISIC_0765584.JPG,,25,true,0.14,hh,keypress(i),100,false,399608.10000000003,399607.9,389362,389443.60000000003,389378.5,399537,1,16,3,
sequence,flow.Sequence,4_2,2024-03-05T20:27:19.086Z,,,,,,,,,,,10229.400000000023,completion,,,,,,,high,high,,,,,,,true,,,,,false,399608.30000000005,399607.9,389362,389443.60000000003,389378.5,399537,1,16,,
trial,html.Screen,4_3_0,2024-03-05T20:27:27.313Z,,,,0,-1.186629690487006,-1.3269945600040771,,,true,hh,8297.900000000023,response,1.3246728710248594,1.2,-1.2,1.1527736000922424,1.2,-1.2,high,high,,ISIC_0015390.JPG,,ISIC_6876281.JPG,,25,true,0.14,hh,keypress(i),100,false,407835,407834.9,399520.3,399608.4,399537,407777.1,1,16,4,
sequence,flow.Sequence,4_3,2024-03-05T20:27:27.313Z,,,,,,,,,,,8297.900000000023,completion,,,,,,,high,high,,,,,,,true,,,,,false,407835.2,407834.9,399520.3,399608.4,399537,407777.1,1,16,,
trial,html.Screen,4_4_0,2024-03-05T20:27:36.644Z,,,,0,1.3246728710248594,1.1527736000922424,,,true,ll,9389.100000000035,response,-1.0915173513546716,1.2,-1.2,-1.266840220031473,1.2,-1.2,low,low,,ISIC_6876281.JPG,,ISIC_8241457.JPG,,30,true,0.13,ll,keypress(f),100,false,417166.30000000005,417166.2,407760.4,407835.2,407777.1,417101.3,1,16,5,
sequence,flow.Sequence,4_4,2024-03-05T20:27:36.644Z,,,,,,,,,,,9389.100000000035,completion,,,,,,,low,low,,,,,,,true,,,,,false,417166.4,417166.2,407760.4,407835.2,407777.1,417101.3,1,16,,
trial,html.Screen,4_5_0,2024-03-05T20:27:42.855Z,,,,0,1.1684835186766898,1.2921331918483707,,,true,ll,6276.100000000035,response,-1.1668613502915044,1.2,-1.2,-1.327068780840367,1.2,-1.2,low,low,,ISIC_5920470.JPG,,ISIC_0054459.JPG,,40,true,0.14,ll,keypress(f),100,false,423377.60000000003,423377.4,417084.732,417166.5,417101.3,423306.5,1,16,6,
sequence,flow.Sequence,4_5,2024-03-05T20:27:42.856Z,,,,,,,,,,,6276.100000000035,completion,,,,,,,low,low,,,,,,,true,,,,,false,423377.7,423377.4,417084.732,417166.5,417101.3,423306.5,1,16,,
trial,html.Screen,4_6_0,2024-03-05T20:27:49.915Z,,,,0,1.2804054832904397,1.171271535505083,,,true,ll,7130.800000000047,response,-1.071312313440387,1.2,-1.2,-1.0935391476164529,1.2,-1.2,low,low,,ISIC_7889838.JPG,,ISIC_0063680.JPG,,40,true,0.14,ll,keypress(f),100,false,430437.5,430437.30000000005,423289.8,423377.80000000005,423306.5,430379,1,16,7,
sequence,flow.Sequence,4_6,2024-03-05T20:27:49.915Z,,,,,,,,,,,7130.800000000047,completion,,,,,,,low,low,,,,,,,true,,,,,false,430437.5,430437.30000000005,423289.8,423377.80000000005,423306.5,430379,1,16,,
trial,html.Screen,4_7_0,2024-03-05T20:27:56.959Z,,,,0,1.2219550761700546,1.2809901875733454,,,true,ll,7102.100000000035,response,-1.2691569063625474,1.2,-1.2,-1.1264228993232308,1.2,-1.2,low,low,,ISIC_6463417.JPG,,ISIC_4980656.JPG,,40,true,0.14,ll,keypress(f),100,false,437481.30000000005,437481.10000000003,430362.4,430437.60000000003,430379,437418.2,1,16,8,
sequence,flow.Sequence,4_7,2024-03-05T20:27:56.959Z,,,,,,,,,,,7102.100000000035,completion,,,,,,,low,low,,,,,,,true,,,,,false,437481.4,437481.10000000003,430362.4,430437.5,430379,437418.2,1,16,,
trial,html.Screen,4_8_0,2024-03-05T20:28:14.596Z,,,,0,0.8110121381849364,-0.7563142141851558,,,true,lh,17851.100000000035,response,-0.9244148283103414,1.2,-1.2,0.9712966348713286,1.2,-1.2,low,high,,ISIC_0033605.JPG,,ISIC_7927525.JPG,,27,true,0.40000000000000024,lh,keypress(e),100,false,455269.4,455269.30000000005,437401.566,437481.4,437418.2,455199.5,1,16,9,
sequence,flow.Sequence,4_8,2024-03-05T20:28:14.596Z,,,,,,,,,,,17851.100000000035,completion,,,,,,,low,high,,,,,,,true,,,,,false,455269.4,455269.30000000005,437401.566,437481.4,437418.2,455199.5,1,16,,
trial,html.Screen,4_9_0,2024-03-05T20:28:22.878Z,,,,0,1.075512775389519,-1.0454702683049502,,,true,lh,8351.599999999977,response,-0.7714570894008278,1.2,-1.2,0.9113656554657036,1.2,-1.2,low,high,,ISIC_0033603.JPG,,ISIC_4529092.JPG,,40,true,0.4500000000000003,lh,keypress(e),100,false,463551.20000000007,463551.1,455182.766,455269.5,455199.5,463489.6,1,16,10,
sequence,flow.Sequence,4_9,2024-03-05T20:28:22.878Z,,,,,,,,,,,8351.599999999977,completion,,,,,,,low,high,,,,,,,true,,,,,false,463551.30000000005,463551.1,455182.766,455269.5,455199.5,463489.6,1,16,,
trial,html.Screen,4_10_0,2024-03-05T20:28:32.228Z,,,,0,0.7882758084023446,-0.8296405881378283,,,true,lh,9412.100000000093,response,-1.423867498658875,1.2,-1.2,0.7901771595160324,1.2,-1.2,low,high,,ISIC_0065882.JPG,,ISIC_3136228.JPG,,40,true,0.4500000000000003,lh,keypress(e),100,false,472901.80000000005,472901.70000000007,463473,463551.4,463489.6,472830.7,1,16,11,
sequence,flow.Sequence,4_10,2024-03-05T20:28:32.228Z,,,,,,,,,,,9412.100000000093,completion,,,,,,,low,high,,,,,,,true,,,,,false,472901.9,472901.70000000007,463473,463551.4,463489.6,472830.7,1,16,,
trial,html.Screen,4_11_0,2024-03-05T20:28:47.773Z,,,,0,1.0369885917487718,-0.8486937878412699,,,true,lh,15616.100000000035,response,-0.9198276163642348,1.2,-1.2,0.7754915110667046,1.2,-1.2,low,high,,ISIC_6917681.JPG,,ISIC_7840728.JPG,,40,true,0.4500000000000003,lh,keypress(e),100,false,488447,488446.80000000005,472814.2,472902,472830.7,488376.7,1,16,12,
sequence,flow.Sequence,4_11,2024-03-05T20:28:47.774Z,,,,,,,,,,,15616.100000000035,completion,,,,,,,low,high,,,,,,,true,,,,,false,488447.20000000007,488446.80000000005,472814.2,472902,472830.7,488376.7,1,16,,
trial,html.Screen,4_12_0,2024-03-05T20:29:02.901Z,,,,0,-0.9633172970727744,0.8472659344792351,,,true,hl,15197.899999999965,response,1.199471562817528,1.2,-1.2,-0.8631260534979347,1.2,-1.2,high,low,,ISIC_0067172.JPG,,ISIC_0030754.JPG,,26,true,0.4500000000000003,hl,keypress(j),100,false,503574.80000000005,503574.6,488360.132,488447.20000000007,488376.7,503505.9,1,16,13,
sequence,flow.Sequence,4_12,2024-03-05T20:29:02.901Z,,,,,,,,,,,15197.899999999965,completion,,,,,,,high,low,,,,,,,true,,,,,false,503574.80000000005,503574.6,488360.132,488447.20000000007,488376.7,503505.9,1,16,,
trial,html.Screen,4_13_0,2024-03-05T20:29:15.621Z,,,,0,-0.8307508446051526,1.1707575338936729,,,true,hl,12941,response,1.3046390428588206,1.2,-1.2,-0.7942099232219556,1.2,-1.2,high,low,,ISIC_0028606.JPG,,ISIC_0013096.JPG,,26,true,0.4500000000000003,hl,keypress(j),100,false,516447.30000000005,516446.9,503489.266,503574.9,503505.9,516383.2,1,16,14,
sequence,flow.Sequence,4_13,2024-03-05T20:29:15.622Z,,,,,,,,,,,12941,completion,,,,,,,high,low,,,,,,,true,,,,,false,516447.70000000007,516446.9,503489.266,503574.9,503505.9,516383.2,1,16,,
trial,html.Screen,4_14_0,2024-03-05T20:29:21.817Z,,,,0,-0.8500530224490773,1.0893360711742854,,,true,hl,6259.600000000035,response,0.9754077946987664,1.2,-1.2,-1.1821868813141057,1.2,-1.2,high,low,,ISIC_2998367.JPG,,ISIC_0024317.JPG,,26,true,0.4500000000000003,hl,keypress(j),100,false,522643.30000000005,522642.80000000005,516366.532,516447.9,516383.2,522572.132,1,16,15,
sequence,flow.Sequence,4_14,2024-03-05T20:29:21.818Z,,,,,,,,,,,6259.600000000035,completion,,,,,,,high,low,,,,,,,true,,,,,false,522644,522642.80000000005,516366.532,516447.80000000005,516383.2,522572.132,1,16,,
trial,html.Screen,4_15_0,2024-03-05T20:29:34.081Z,,,,0,-0.8067116931297591,1.215898074058027,,,true,hl,12334.76800000004,response,1.199471562817528,1.2,-1.2,-0.8631260534979347,1.2,-1.2,high,low,,ISIC_1457687.JPG,,ISIC_0030754.JPG,,26,true,0.4500000000000003,hl,keypress(j),100,false,534907.4,534906.9,522572.132,522644.30000000005,522572.132,534848.5,1,16,16,
sequence,flow.Sequence,4_15,2024-03-05T20:29:34.082Z,,,,,,,,,,,12334.76800000004,completion,,,,,,,high,low,,,,,,,true,,,,,false,534908.1,534906.9,522572.132,522644.30000000005,522572.132,534848.5,1,16,,
demonstration_loop,flow.Loop,4,2024-03-05T20:29:34.083Z,,,,,,,,,,,183409.5,completion,,,,,,,,,,,,,,,true,,,,,false,534908.5,534906.9,351495.654,351581.80000000005,351497.4,534848.5,1,16,,
practice_instructions,html.Screen,5,2024-03-05T20:30:36.096Z,,,,,,,,,,,62299.59999999998,response,,,,,,,,,,,,,,,,,continue,click button,,,597153,597148.1,534832.132,534908.7000000001,534848.5,597066.3,,,,
trial,html.Screen,6_0_0,2024-03-05T20:30:44.955Z,,,,1,-1.1392972253022884,-1.208510423375335,,,true,hh,8940.699999999953,response,1.0943527860463682,1.2,-1.2,1.124481746658104,1.2,-1.2,high,high,,ISIC_0046526.JPG,,ISIC_0438136.JPG,,25,true,0.14,hh,keypress(i),0,false,606011.8,606007,597066.122,597153.1,597066.3,605957,1,40,1,
sequence,flow.Sequence,6_0,2024-03-05T20:30:44.955Z,,,,,,,,,,,8940.699999999953,completion,,,,,,,high,high,,,,,,,true,,,,,false,606011.9,606007,597066.122,597153.1,597066.3,605957,1,40,,
trial,html.Screen,6_1_0,2024-03-05T20:30:52.404Z,,,,1,-1.2691569063625474,-1.1264228993232308,,,true,hh,7504.300000000047,response,1.2600330864275875,1.2,-1.2,1.0958628838888655,1.2,-1.2,high,high,,ISIC_4980656.JPG,,ISIC_0026996.JPG,,25,true,0.14,hh,keypress(i),0,false,613461.3,613461.3,605940.3,606011.9,605957,613379.8,1,40,2,
sequence,flow.Sequence,6_1,2024-03-05T20:30:52.405Z,,,,,,,,,,,7504.300000000047,completion,,,,,,,high,high,,,,,,,true,,,,,false,613461.5,613461.3,605940.3,606011.9,605957,613379.8,1,40,,
trial,html.Screen,6_2_0,2024-03-05T20:30:56.324Z,,,,1,-0.9633172970727744,0.8472659344792351,,,false,hl,4001.1999999999534,response,0.8830264383952469,1.2,-1.2,-0.8635562538060516,1.2,-1.2,high,low,,ISIC_0067172.JPG,,ISIC_0032258.JPG,,26,true,0.4500000000000003,hh,keypress(i),0,false,617381.2000000001,617381,613374.142,613461.5,613379.8,617299.7,1,40,3,
sequence,flow.Sequence,6_2,2024-03-05T20:30:56.325Z,,,,,,,,,,,4001.1999999999534,completion,,,,,,,high,low,,,,,,,true,,,,,false,617381.4,617381,613374.142,613461.5,613379.8,617299.7,1,40,,
trial,html.Screen,6_3_0,2024-03-05T20:31:02.004Z,,,,1,-0.8307508446051526,1.1707575338936729,,,true,hl,5760.900000000023,response,0.7518277461369444,1.2,-1.2,-1.3860759020802074,1.2,-1.2,high,low,,ISIC_0028606.JPG,,ISIC_7967397.JPG,,26,true,0.4500000000000003,hl,keypress(j),0,false,623060.6,623060.6,617297.15,617381.5,617299.7,622987.7,1,40,4,
sequence,flow.Sequence,6_3,2024-03-05T20:31:02.004Z,,,,,,,,,,,5760.900000000023,completion,,,,,,,high,low,,,,,,,true,,,,,false,623060.7000000001,623060.6,617297.15,617381.5,617299.7,622987.7,1,40,,
trial,html.Screen,6_4_0,2024-03-05T20:31:06.276Z,,,,1,-0.9138670886161264,0.8414121478342018,,,false,hl,4345.000000000116,response,0.8110121381849364,1.2,-1.2,-0.7563142141851558,1.2,-1.2,high,low,,ISIC_6709052.JPG,,ISIC_0033605.JPG,,26,true,0.4500000000000003,hh,keypress(i),0,false,627332.9,627332.7000000001,622971,623060.8,622987.7,627257.9,1,40,5,
sequence,flow.Sequence,6_4,2024-03-05T20:31:06.276Z,,,,,,,,,,,4345.000000000116,completion,,,,,,,high,low,,,,,,,true,,,,,false,627333,627332.7000000001,622971,623060.8,622987.7,627257.9,1,40,,
trial,html.Screen,6_5_0,2024-03-05T20:31:13.668Z,,,,1,-1.2081146885025262,1.195668832085049,,,false,hl,7467.199999999953,response,0.7518277461369444,1.2,-1.2,-1.3860759020802074,1.2,-1.2,high,low,,ISIC_7369690.JPG,,ISIC_7967397.JPG,,26,true,0.4500000000000003,ll,keypress(f),0,false,634725.2000000001,634725.1,627241.2,627333,627257.9,634647.4,1,40,6,
sequence,flow.Sequence,6_5,2024-03-05T20:31:13.668Z,,,,,,,,,,,7467.199999999953,completion,,,,,,,high,low,,,,,,,true,,,,,false,634725.3,634725.1,627241.2,627333,627257.9,634647.4,1,40,,
trial,html.Screen,6_6_0,2024-03-05T20:31:19.556Z,,,,1,-1.0849202097813322,-1.0851127310415287,,,false,hh,5965.099999999977,response,0.875928844868032,1.2,-1.2,1.0147952958458766,1.2,-1.2,high,high,,ISIC_0010289.JPG,,ISIC_7492682.JPG,,203,true,0.40000000000000024,hl,keypress(j),0,false,640612.6,640612.5,634630.5,634725.3,634647.4,640535.5,1,40,7,
sequence,flow.Sequence,6_6,2024-03-05T20:31:19.556Z,,,,,,,,,,,5965.099999999977,completion,,,,,,,high,high,,,,,,,true,,,,,false,640612.8,640612.5,634630.5,634725.3,634647.4,640535.5,1,40,,
trial,html.Screen,6_7_0,2024-03-05T20:31:31.045Z,,,,1,1.1989130276493527,1.2666195460149832,,,false,ll,11565.900000000023,response,-1.0769708994456726,1.2,-1.2,-1.2196503533725178,1.2,-1.2,low,low,,ISIC_0031705.JPG,,ISIC_0063824.JPG,,30,true,0.13,hl,keypress(j),0,false,652101.6,652101.4,640518.7,640612.8,640535.5,652028.3,1,40,8,
sequence,flow.Sequence,6_7,2024-03-05T20:31:31.045Z,,,,,,,,,,,11565.900000000023,completion,,,,,,,low,low,,,,,,,true,,,,,false,652101.8,652101.4,640518.7,640612.8,640535.5,652028.3,1,40,,
trial,html.Screen,6_8_0,2024-03-05T20:31:43.573Z,,,,1,-0.8544507134472948,0.9244388608707323,,,false,hl,12601.099999999977,response,0.8034318937720549,1.2,-1.2,-1.0024917298189338,1.2,-1.2,high,low,,ISIC_3565564.JPG,,ISIC_0032766.JPG,,26,true,0.4500000000000003,ll,keypress(f),0,false,664629.5,664629.4,652018.97,652101.9,652028.3,664555.4,1,40,9,
sequence,flow.Sequence,6_8,2024-03-05T20:31:43.574Z,,,,,,,,,,,12601.099999999977,completion,,,,,,,high,low,,,,,,,true,,,,,false,664629.6,664629.4,652018.97,652101.9,652028.3,664555.4,1,40,,
trial,html.Screen,6_9_0,2024-03-05T20:31:54.725Z,,,,1,0.7882758084023446,-0.8296405881378283,,,true,lh,11225.300000000047,response,-0.9138670886161264,1.2,-1.2,0.8414121478342018,1.2,-1.2,low,high,,ISIC_0065882.JPG,,ISIC_6709052.JPG,,27,true,0.40000000000000024,lh,keypress(e),0,false,675780.8,675780.7000000001,664545.306,664629.6,664555.4,675697.8,1,40,10,
sequence,flow.Sequence,6_9,2024-03-05T20:31:54.725Z,,,,,,,,,,,11225.300000000047,completion,,,,,,,low,high,,,,,,,true,,,,,false,675780.9,675780.7000000001,664545.306,664629.6,664555.4,675697.8,1,40,,
trial,html.Screen,6_10_0,2024-03-05T20:32:04.980Z,,,,1,-1.2118207001489876,-1.3164676315545727,,,true,hh,10338.599999999977,response,1.4791526186726216,1.2,-1.2,1.080921084754615,1.2,-1.2,high,high,,ISIC_0066476.JPG,,ISIC_6737771.JPG,,265,true,0.4500000000000003,hh,keypress(i),0,false,686036.6,686036.4,675689.028,675780.9,675697.8,685956.3,1,40,11,
sequence,flow.Sequence,6_10,2024-03-05T20:32:04.981Z,,,,,,,,,,,10338.599999999977,completion,,,,,,,high,high,,,,,,,true,,,,,false,686036.6,686036.4,675689.028,675780.9,675697.8,685956.3,1,40,,
trial,html.Screen,6_11_0,2024-03-05T20:32:12.566Z,,,,1,0.8110121381849364,-0.7563142141851558,,,false,lh,7665.400000000023,response,-1.2081146885025262,1.2,-1.2,1.195668832085049,1.2,-1.2,low,high,,ISIC_0033605.JPG,,ISIC_7369690.JPG,,27,true,0.40000000000000024,ll,keypress(f),0,false,693622,693621.7000000001,685948.33,686036.7000000001,685956.3,693545.9,1,40,12,
sequence,flow.Sequence,6_11,2024-03-05T20:32:12.566Z,,,,,,,,,,,7665.400000000023,completion,,,,,,,low,high,,,,,,,true,,,,,false,693622.4,693621.7000000001,685948.33,686036.7000000001,685956.3,693545.9,1,40,,
trial,html.Screen,6_12_0,2024-03-05T20:32:16.790Z,,,,1,-1.0849202097813322,-1.0851127310415287,,,false,hh,4299.800000000047,response,0.8071149391753215,1.2,-1.2,0.9485840589720004,1.2,-1.2,high,high,,ISIC_0010289.JPG,,ISIC_2784686.JPG,,265,true,0.4500000000000003,ll,keypress(f),0,false,697846,697845.7000000001,693529,693622.6,693545.9,697766.1,1,40,13,
sequence,flow.Sequence,6_12,2024-03-05T20:32:16.790Z,,,,,,,,,,,4299.800000000047,completion,,,,,,,high,high,,,,,,,true,,,,,false,697846.2000000001,697845.7000000001,693529,693622.6,693545.9,697766.1,1,40,,
trial,html.Screen,6_13_0,2024-03-05T20:32:28.133Z,,,,1,-1.1117876838408909,-1.2957497771092716,,,false,hh,11423.100000000093,response,1.109799097093339,1.2,-1.2,1.091507924157762,1.2,-1.2,high,high,,ISIC_0061915.JPG,,ISIC_0765584.JPG,,25,true,0.14,ll,keypress(f),0,false,709189.5,709189.2000000001,697749.2,697846.4,697766.1,709108.7,1,40,14,
sequence,flow.Sequence,6_13,2024-03-05T20:32:28.133Z,,,,,,,,,,,11423.100000000093,completion,,,,,,,high,high,,,,,,,true,,,,,false,709189.5,709189.2000000001,697749.2,697846.4,697766.1,709108.7,1,40,,
trial,html.Screen,6_14_0,2024-03-05T20:32:43.111Z,,,,1,-1.2646773654288392,0.952963803634235,,,false,hl,15058.500000000116,response,1.0369885917487718,1.2,-1.2,-0.8486937878412699,1.2,-1.2,high,low,,ISIC_1996356.JPG,,ISIC_6917681.JPG,,26,true,0.4500000000000003,ll,keypress(f),0,false,724167.6,724167.2000000001,709099.72,709189.6,709108.7,724092.374,1,40,15,
sequence,flow.Sequence,6_14,2024-03-05T20:32:43.112Z,,,,,,,,,,,15058.500000000116,completion,,,,,,,high,low,,,,,,,true,,,,,false,724168.1,724167.2000000001,709099.72,709189.5,709108.7,724092.374,1,40,,
trial,html.Screen,6_15_0,2024-03-05T20:32:51.815Z,,,,1,1.3046390428588206,-0.7942099232219556,,,false,lh,8778.326000000117,response,-1.0788024398087033,1.2,-1.2,0.9911875460374616,1.2,-1.2,low,high,,ISIC_0013096.JPG,,ISIC_5951430.JPG,,27,true,0.40000000000000024,ll,keypress(f),0,false,732871.1,732870.7000000001,724092.374,724168.3,724092.374,732795,1,40,16,
sequence,flow.Sequence,6_15,2024-03-05T20:32:51.815Z,,,,,,,,,,,8778.326000000117,completion,,,,,,,low,high,,,,,,,true,,,,,false,732871.6,732870.7000000001,724092.374,724168.3,724092.374,732795,1,40,,
trial,html.Screen,6_16_0,2024-03-05T20:32:58.614Z,,,,1,1.0369885917487718,-0.8486937878412699,,,false,lh,6875.5,response,-1.2646773654288392,1.2,-1.2,0.952963803634235,1.2,-1.2,low,high,,ISIC_6917681.JPG,,ISIC_1996356.JPG,,40,true,0.4500000000000003,hh,keypress(i),0,false,739670.8,739670.5,732788.526,732871.9,732795,739600.9,1,40,17,
sequence,flow.Sequence,6_16,2024-03-05T20:32:58.615Z,,,,,,,,,,,6875.5,completion,,,,,,,low,high,,,,,,,true,,,,,false,739671.1,739670.5,732788.526,732871.8,732795,739600.9,1,40,,
trial,html.Screen,6_17_0,2024-03-05T20:33:07.895Z,,,,1,1.0659165756604234,1.0867497316848906,,,true,ll,9349.800000000047,response,-1.266079261381142,1.2,-1.2,-1.312161506160336,1.2,-1.2,low,low,,ISIC_5807608.JPG,,ISIC_0065449.JPG,,359,true,0.4500000000000003,ll,keypress(f),0,false,748951.1,748950.7000000001,739584.1,739671.3,739600.9,748875,1,40,18,
sequence,flow.Sequence,6_17,2024-03-05T20:33:07.895Z,,,,,,,,,,,9349.800000000047,completion,,,,,,,low,low,,,,,,,true,,,,,false,748951.5,748950.7000000001,739584.1,739671.2000000001,739600.9,748875,1,40,,
trial,html.Screen,6_18_0,2024-03-05T20:33:20.359Z,,,,1,1.2724293858920366,1.149360738769835,,,true,ll,12540.099999999977,response,-1.1048559518249943,1.2,-1.2,-1.2252457981338687,1.2,-1.2,low,low,,ISIC_1264725.JPG,,ISIC_0060817.JPG,,40,true,0.14,ll,keypress(f),0,false,761415.5,761415.1,748868.002,748951.7000000001,748875,761351.8,1,40,19,
sequence,flow.Sequence,6_18,2024-03-05T20:33:20.360Z,,,,,,,,,,,12540.099999999977,completion,,,,,,,low,low,,,,,,,true,,,,,false,761416,761415.1,748868.002,748951.7000000001,748875,761351.8,1,40,,
trial,html.Screen,6_19_0,2024-03-05T20:33:23.047Z,,,,1,-0.8987343013179191,0.8149073454566363,,,false,hl,2750.9000000000233,response,1.0453124399868816,1.2,-1.2,-0.8986747280184286,1.2,-1.2,high,low,,ISIC_0472513.JPG,,ISIC_0013967.JPG,,26,true,0.4500000000000003,hh,keypress(i),0,false,764103.2000000001,764102.7000000001,761342.008,761416.3,761351.8,764020.8,1,40,20,
sequence,flow.Sequence,6_19,2024-03-05T20:33:23.047Z,,,,,,,,,,,2750.9000000000233,completion,,,,,,,high,low,,,,,,,true,,,,,false,764103.7000000001,764102.7000000001,761342.008,761416.2000000001,761351.8,764020.8,1,40,,
trial,html.Screen,6_20_0,2024-03-05T20:33:28.039Z,,,,1,1.274752206258116,1.2988509166163749,,,false,ll,5073.900000000023,response,-1.0396291493634244,1.2,-1.2,-0.8099604275482958,1.2,-1.2,low,low,,ISIC_6704623.JPG,,ISIC_0068580.JPG,,288,true,0.40000000000000024,hl,keypress(j),0,false,769095.2000000001,769094.7000000001,764019.5,764103.9,764020.8,769025.1,1,40,21,
sequence,flow.Sequence,6_20,2024-03-05T20:33:28.039Z,,,,,,,,,,,5073.900000000023,completion,,,,,,,low,low,,,,,,,true,,,,,false,769095.7000000001,769094.7000000001,764019.5,764103.8,764020.8,769025.1,1,40,,
trial,html.Screen,6_21_0,2024-03-05T20:33:30.855Z,,,,1,-1.0849202097813322,-1.0851127310415287,,,true,hh,2885.8000000000466,response,1.1684835186766898,1.2,-1.2,1.2921331918483707,1.2,-1.2,high,high,,ISIC_0010289.JPG,,ISIC_5920470.JPG,,25,true,0.14,hh,keypress(i),0,false,771911.3,771910.9,769008.4,769096,769025.1,771843.8,1,40,22,
sequence,flow.Sequence,6_21,2024-03-05T20:33:30.856Z,,,,,,,,,,,2885.8000000000466,completion,,,,,,,high,high,,,,,,,true,,,,,false,771911.9,771910.9,769008.4,769095.9,769025.1,771843.8,1,40,,
trial,html.Screen,6_22_0,2024-03-05T20:33:35.015Z,,,,1,0.7883321712536753,-1.0011430756825364,,,false,lh,4226.79999999993,response,-0.9138670886161264,1.2,-1.2,0.8414121478342018,1.2,-1.2,low,high,,ISIC_9828853.JPG,,ISIC_6709052.JPG,,27,true,0.40000000000000024,ll,keypress(f),0,false,776071,776070.6,771842.46,771912.2000000001,771843.8,775997.3,1,40,23,
sequence,flow.Sequence,6_22,2024-03-05T20:33:35.015Z,,,,,,,,,,,4226.79999999993,completion,,,,,,,low,high,,,,,,,true,,,,,false,776071.5,776070.6,771842.46,771912,771843.8,775997.3,1,40,,
trial,html.Screen,6_23_0,2024-03-05T20:33:44.967Z,,,,1,-0.8350129142228142,0.8172547818270586,,,false,hl,10025.29999999993,response,1.2362557973341337,1.2,-1.2,-1.2548266183352603,1.2,-1.2,high,low,,ISIC_0301568.JPG,,ISIC_0033886.JPG,,26,true,0.4500000000000003,lh,keypress(e),0,false,786022.9,786022.6,775994.608,776072,775997.3,785948.176,1,40,24,
sequence,flow.Sequence,6_23,2024-03-05T20:33:44.967Z,,,,,,,,,,,10025.29999999993,completion,,,,,,,high,low,,,,,,,true,,,,,false,786023.4,786022.6,775994.608,776071.9,775997.3,785948.176,1,40,,
trial,html.Screen,6_24_0,2024-03-05T20:33:48.374Z,,,,1,0.8034318937720549,-1.0024917298189338,,,false,lh,3482.2240000000456,response,-0.9662688541319592,1.2,-1.2,0.929746784178986,1.2,-1.2,low,high,,ISIC_0032766.JPG,,ISIC_0011077.JPG,,27,true,0.40000000000000024,ll,keypress(f),0,false,789430.7000000001,789430.4,785948.176,786023.6,785948.176,789358.2,1,40,25,
sequence,flow.Sequence,6_24,2024-03-05T20:33:48.375Z,,,,,,,,,,,3482.2240000000456,completion,,,,,,,low,high,,,,,,,true,,,,,false,789431,789430.4,785948.176,786023.5,785948.176,789358.2,1,40,,
trial,html.Screen,6_25_0,2024-03-05T20:33:50.215Z,,,,1,0.8830264383952469,-0.8635562538060516,,,false,lh,1912.7000000000698,response,-0.9662688541319592,1.2,-1.2,0.929746784178986,1.2,-1.2,low,high,,ISIC_0032258.JPG,,ISIC_0011077.JPG,,40,true,0.4500000000000003,ll,keypress(f),0,false,791271.3,791270.9,789356.504,789431.2000000001,789358.2,791193.1,1,40,26,
sequence,flow.Sequence,6_25,2024-03-05T20:33:50.215Z,,,,,,,,,,,1912.7000000000698,completion,,,,,,,low,high,,,,,,,true,,,,,false,791271.8,791270.9,789356.504,789431.1,789358.2,791193.1,1,40,,
trial,html.Screen,6_26_0,2024-03-05T20:33:55.191Z,,,,1,1.2946277435220357,1.255157480204324,,,true,ll,5053.70000000007,response,-0.970732112511705,1.2,-1.2,-1.166572336354465,1.2,-1.2,low,low,,ISIC_1870309.JPG,,ISIC_0010778.JPG,,359,true,0.4500000000000003,ll,keypress(f),0,false,796247.2000000001,796246.8,791192.5,791272.1,791193.1,796164,1,40,27,
sequence,flow.Sequence,6_26,2024-03-05T20:33:55.191Z,,,,,,,,,,,5053.70000000007,completion,,,,,,,low,low,,,,,,,true,,,,,false,796247.8,796246.8,791192.5,791272,791193.1,796164,1,40,,
trial,html.Screen,6_27_0,2024-03-05T20:34:01.702Z,,,,1,1.2246024683501224,1.2904526351590244,,,true,ll,6594.5,response,-1.0642195369108791,1.2,-1.2,-1.0897657776277234,1.2,-1.2,low,low,,ISIC_4730066.JPG,,ISIC_0071988.JPG,,40,true,0.14,ll,keypress(f),0,false,802758.8,802758.5,796160.608,796248.1,796164,802685.9,1,40,28,
sequence,flow.Sequence,6_27,2024-03-05T20:34:01.703Z,,,,,,,,,,,6594.5,completion,,,,,,,low,low,,,,,,,true,,,,,false,802759.3,802758.5,796160.608,796247.9,796164,802685.9,1,40,,
trial,html.Screen,6_28_0,2024-03-05T20:34:04.165Z,,,,1,1.3246728710248594,1.1527736000922424,,,true,ll,2535.5999999999767,response,-1.1668613502915044,1.2,-1.2,-1.327068780840367,1.2,-1.2,low,low,,ISIC_6876281.JPG,,ISIC_0054459.JPG,,40,true,0.14,ll,keypress(f),0,false,805221.8,805221.5,802669.4,802759.4,802685.9,805137.8,1,40,29,
sequence,flow.Sequence,6_28,2024-03-05T20:34:04.166Z,,,,,,,,,,,2535.5999999999767,completion,,,,,,,low,low,,,,,,,true,,,,,false,805222,805221.5,802669.4,802759.4,802685.9,805137.8,1,40,,
trial,html.Screen,6_29_0,2024-03-05T20:34:11.029Z,,,,1,1.1409143352872226,1.1323007949069106,,,false,ll,6947.29999999993,response,-1.2014901828022857,1.2,-1.2,-1.1484096197304636,1.2,-1.2,low,low,,ISIC_0030291.JPG,,ISIC_0067808.JPG,,40,true,0.14,hl,keypress(j),0,false,812085.2000000001,812085.1,805121.3,805222,805137.8,812010.3,1,40,30,
sequence,flow.Sequence,6_29,2024-03-05T20:34:11.029Z,,,,,,,,,,,6947.29999999993,completion,,,,,,,low,low,,,,,,,true,,,,,false,812085.4,812085.1,805121.3,805222,805137.8,812010.3,1,40,,
trial,html.Screen,6_30_0,2024-03-05T20:34:22.151Z,,,,1,-1.2014901828022857,-1.1484096197304636,,,false,hh,11196.699999999953,response,1.2219550761700546,1.2,-1.2,1.2809901875733454,1.2,-1.2,high,high,,ISIC_0067808.JPG,,ISIC_6463417.JPG,,25,true,0.14,hl,keypress(j),0,false,823207.3,823207,811993.6,812085.5,812010.3,823152.8,1,40,31,
sequence,flow.Sequence,6_30,2024-03-05T20:34:22.152Z,,,,,,,,,,,11196.699999999953,completion,,,,,,,high,high,,,,,,,true,,,,,false,823207.9,823207,811993.6,812085.5,812010.3,823152.8,1,40,,
trial,html.Screen,6_31_0,2024-03-05T20:34:27.591Z,,,,1,-0.8443403196524287,0.8858525429102605,,,false,hl,5493.79999999993,response,0.7518277461369444,1.2,-1.2,-1.3860759020802074,1.2,-1.2,high,low,,ISIC_8777813.JPG,,ISIC_7967397.JPG,,26,true,0.4500000000000003,hh,keypress(i),0,false,828647,828646.6,823144.394,823208.2000000001,823152.8,828574,1,40,32,
sequence,flow.Sequence,6_31,2024-03-05T20:34:27.591Z,,,,,,,,,,,5493.79999999993,completion,,,,,,,high,low,,,,,,,true,,,,,false,828647.6,828646.6,823144.394,823208.1,823152.8,828574,1,40,,
trial,html.Screen,6_32_0,2024-03-05T20:34:32.775Z,,,,1,1.075512775389519,-1.0454702683049502,,,false,lh,5256.70000000007,response,-0.8047295996345292,1.2,-1.2,1.551750455622795,1.2,-1.2,low,high,,ISIC_0033603.JPG,,ISIC_7717907.JPG,,27,true,0.40000000000000024,ll,keypress(f),0,false,833831.1,833830.7000000001,828570.29,828647.8,828574,833761.9,1,40,33,
sequence,flow.Sequence,6_32,2024-03-05T20:34:32.775Z,,,,,,,,,,,5256.70000000007,completion,,,,,,,low,high,,,,,,,true,,,,,false,833831.6,833830.7000000001,828570.29,828647.7000000001,828574,833761.9,1,40,,
trial,html.Screen,6_33_0,2024-03-05T20:34:46.100Z,,,,1,-1.1392972253022884,-1.208510423375335,,,false,hh,13394.400000000023,response,0.9159259992668974,1.2,-1.2,1.264512568056258,1.2,-1.2,high,high,,ISIC_0046526.JPG,,ISIC_1258986.JPG,,265,true,0.4500000000000003,hl,keypress(j),0,false,847156.4,847156.3,833741.3,833831.7000000001,833761.9,847089.1,1,40,34,
sequence,flow.Sequence,6_33,2024-03-05T20:34:46.100Z,,,,,,,,,,,13394.400000000023,completion,,,,,,,high,high,,,,,,,true,,,,,false,847156.6,847156.3,833741.3,833831.7000000001,833761.9,847089.1,1,40,,
trial,html.Screen,6_34_0,2024-03-05T20:34:55.493Z,,,,1,1.2054195059663604,-0.7760611240296147,,,false,lh,9459.900000000023,response,-0.8047295996345292,1.2,-1.2,1.551750455622795,1.2,-1.2,low,high,,ISIC_8712559.JPG,,ISIC_7717907.JPG,,27,true,0.40000000000000024,hh,keypress(i),0,false,856549.2000000001,856549,847078.64,847156.7000000001,847089.1,856480.9,1,40,35,
sequence,flow.Sequence,6_34,2024-03-05T20:34:55.493Z,,,,,,,,,,,9459.900000000023,completion,,,,,,,low,high,,,,,,,true,,,,,false,856549.4,856549,847078.64,847156.7000000001,847089.1,856480.9,1,40,,
trial,html.Screen,6_35_0,2024-03-05T20:34:59.940Z,,,,1,1.075512775389519,-1.0454702683049502,,,false,lh,4515.699999999953,response,-0.8307508446051526,1.2,-1.2,1.1707575338936729,1.2,-1.2,low,high,,ISIC_0033603.JPG,,ISIC_0028606.JPG,,40,true,0.4500000000000003,hh,keypress(i),0,false,860996.7000000001,860996.6,856473.298,856549.6,856480.9,860917.1,1,40,36,
sequence,flow.Sequence,6_35,2024-03-05T20:34:59.941Z,,,,,,,,,,,4515.699999999953,completion,,,,,,,low,high,,,,,,,true,,,,,false,860996.8,860996.6,856473.298,856549.6,856480.9,860917.1,1,40,,
trial,html.Screen,6_36_0,2024-03-05T20:35:08.293Z,,,,1,1.1684835186766898,1.2921331918483707,,,false,ll,8431.900000000023,response,-1.2837713188691853,1.2,-1.2,-1.3691774397578744,1.2,-1.2,low,low,,ISIC_5920470.JPG,,ISIC_0011286.JPG,,359,true,0.4500000000000003,lh,keypress(e),0,false,869349.1,869349,860900.3,860996.9,860917.1,869274,1,40,37,
sequence,flow.Sequence,6_36,2024-03-05T20:35:08.293Z,,,,,,,,,,,8431.900000000023,completion,,,,,,,low,low,,,,,,,true,,,,,false,869349.5,869349,860900.3,860996.9,860917.1,869274,1,40,,
trial,html.Screen,6_37_0,2024-03-05T20:35:11.573Z,,,,1,-1.2646773654288392,0.952963803634235,,,false,hl,3355.4000000000233,response,1.2054195059663604,1.2,-1.2,-0.7760611240296147,1.2,-1.2,high,low,,ISIC_1996356.JPG,,ISIC_8712559.JPG,,26,true,0.4500000000000003,hh,keypress(i),0,false,872629.5,872629.4,869267.706,869349.6,869274,872560.5,1,40,38,
sequence,flow.Sequence,6_37,2024-03-05T20:35:11.573Z,,,,,,,,,,,3355.4000000000233,completion,,,,,,,high,low,,,,,,,true,,,,,false,872629.7000000001,872629.4,869267.706,869349.6,869274,872560.5,1,40,,
trial,html.Screen,6_38_0,2024-03-05T20:35:14.020Z,,,,1,-1.071312313440387,-1.0935391476164529,,,true,hh,2515.70000000007,response,1.0777929856705222,1.2,-1.2,1.0139833925057518,1.2,-1.2,high,high,,ISIC_0063680.JPG,,ISIC_6171084.JPG,,203,true,0.40000000000000024,hh,keypress(i),0,false,875076.2000000001,875076.2000000001,872541.476,872629.8,872560.5,874995.4,1,40,39,
sequence,flow.Sequence,6_38,2024-03-05T20:35:14.020Z,,,,,,,,,,,2515.70000000007,completion,,,,,,,high,high,,,,,,,true,,,,,false,875076.3,875076.2000000001,872541.476,872629.8,872560.5,874995.4,1,40,,
trial,html.Screen,6_39_0,2024-03-05T20:35:19.700Z,,,,1,1.2946277435220357,1.255157480204324,,,true,ll,5761,response,-1.2118207001489876,1.2,-1.2,-1.3164676315545727,1.2,-1.2,low,low,,ISIC_1870309.JPG,,ISIC_0066476.JPG,,30,true,0.13,ll,keypress(f),0,false,880756.4,880756.4,874978.7,875076.4,874995.4,880683.4,1,40,40,
sequence,flow.Sequence,6_39,2024-03-05T20:35:19.700Z,,,,,,,,,,,5761,completion,,,,,,,low,low,,,,,,,true,,,,,false,880756.6,880756.4,874978.7,875076.4,874995.4,880683.4,1,40,,
practice_loop,flow.Loop,6,2024-03-05T20:35:19.700Z,,,,,,,,,,,283690.1,completion,,,,,,,,,,,,,,,true,,,,,false,880756.7000000001,880756.4,597066.122,597153.1,597066.3,880683.4,1,40,,
stair_instructions,html.Screen,7,2024-03-05T20:35:25.996Z,,,,,,,,,,,6368.400000000023,response,,,,,,,,,,,,,,,,,continue,click button,,,887052.2000000001,887051.8,880666.8,880756.7000000001,880683.4,886972,,,,
trial,html.Screen,8_0_0,2024-03-05T20:35:40.679Z,,,,2,0.0200295718112167,0.0155559071275806,,0.04,false,hl,14763.400000000023,response,0.7883321712536753,1.2,-1.2,-1.0011430756825364,1.2,-1.2,high,low,,ISIC_0061343.JPG,,ISIC_9828853.JPG,28,26,false,0.4500000000000003,hh,keypress(i),0,true,901735.4,901735.4,886971.824,887052.3,886972,901667.4,1,40,1,
sequence,flow.Sequence,8_0,2024-03-05T20:35:40.679Z,,,,,,,,,,,14763.400000000023,completion,,,,,,,high,low,,,,,,,false,,,,,true,901735.5,901735.4,886971.824,887052.3,886972,901667.4,1,40,,
trial,html.Screen,8_1_0,2024-03-05T20:35:53.221Z,,,,2,-0.0074667911845194,0.018500200317654,,0.04,true,ll,12609.199999999953,response,-1.1017564906891342,1.15,-1.15,-1.293633394635193,1.15,-1.2,low,low,,ISIC_0058723.JPG,,ISIC_0029026.JPG,28,29,false,0.11,ll,keypress(f),0,true,914276.8,914276.6,901650.8,901735.5,901667.4,914194.4,1,40,2,
sequence,flow.Sequence,8_1,2024-03-05T20:35:53.221Z,,,,,,,,,,,12609.199999999953,completion,,,,,,,low,low,,,,,,,false,,,,,true,914277,914276.6,901650.8,901735.5,901667.4,914194.4,1,40,,
trial,html.Screen,8_2_0,2024-03-05T20:35:59.061Z,,,,2,-0.0164027439304477,0.0082910758715273,,0.04,false,hh,5922.599999999977,response,1.2100527057059796,1.15,-1.15,1.2159112471537263,1.15,-1.15,high,high,,ISIC_7381224.JPG,,ISIC_0008055.JPG,28,27,false,0.14,lh,keypress(e),0,true,920117.2000000001,920117,914184.472,914277,914194.4,920032.6,1,40,3,
sequence,flow.Sequence,8_2,2024-03-05T20:35:59.061Z,,,,,,,,,,,5922.599999999977,completion,,,,,,,high,high,,,,,,,false,,,,,true,920117.4,920117,914184.472,914277,914194.4,920032.6,1,40,,
trial,html.Screen,8_3_0,2024-03-05T20:36:04.375Z,,,,2,-0.0109416414475118,-0.005246498750811,,0.04,false,hl,5398.5,response,0.8828738626295417,1.15,-1.15,-0.8288177599439582,1.15,-1.15,high,low,,ISIC_0064279.JPG,,ISIC_0056041.JPG,28,26,false,0.40000000000000024,ll,keypress(f),0,true,925431.2000000001,925431.1,920028.24,920117.6,920032.6,925353.5,1,40,4,
sequence,flow.Sequence,8_3,2024-03-05T20:36:04.375Z,,,,,,,,,,,5398.5,completion,,,,,,,high,low,,,,,,,false,,,,,true,925431.3,925431.1,920028.24,920117.5,920032.6,925353.5,1,40,,
trial,html.Screen,8_4_0,2024-03-05T20:36:11.893Z,,,,2,0.0076984477620101,0.0069458408496562,,0.04,false,ll,7595.099999999977,response,-1.219634566983089,1.15,-1.15,-1.0648460966097275,1.15,-1.0999999999999999,low,low,,ISIC_0000434.JPG,,ISIC_0030552.JPG,28,27,false,0.1,hh,keypress(i),0,true,932948.7000000001,932948.6,925336.9,925431.3,925353.5,932876.4,1,40,5,
sequence,flow.Sequence,8_4,2024-03-05T20:36:11.893Z,,,,,,,,,,,7595.099999999977,completion,,,,,,,low,low,,,,,,,false,,,,,true,932948.9,932948.6,925336.9,925431.3,925353.5,932876.4,1,40,,
trial,html.Screen,8_5_0,2024-03-05T20:36:18.708Z,,,,2,-0.0109416414475118,-0.005246498750811,,0.04,false,hl,6887.900000000023,response,1.0369885917487718,1.15,-1.15,-0.8486937878412699,1.15,-1.15,high,low,,ISIC_0064279.JPG,,ISIC_6917681.JPG,28,26,false,0.40000000000000024,ll,keypress(f),0,true,939764.4,939764.3,932859.6,932948.9,932876.4,939682.1,1,40,6,
sequence,flow.Sequence,8_5,2024-03-05T20:36:18.708Z,,,,,,,,,,,6887.900000000023,completion,,,,,,,high,low,,,,,,,false,,,,,true,939764.5,939764.3,932859.6,932948.9,932876.4,939682.1,1,40,,
trial,html.Screen,8_6_0,2024-03-05T20:36:22.484Z,,,,2,0.0257631352671967,0.0202837002774028,,0.04,false,lh,3858.3000000000466,response,-1.168911077628813,1.15,-1.15,1.2181838235193114,1.15,-1.15,low,high,,ISIC_0032797.JPG,,ISIC_7358691.JPG,28,26,false,0.3500000000000002,hh,keypress(i),0,true,943540.5,943540.4,939677.134,939764.5,939682.1,943468.7,1,40,7,
sequence,flow.Sequence,8_6,2024-03-05T20:36:22.484Z,,,,,,,,,,,3858.3000000000466,completion,,,,,,,low,high,,,,,,,false,,,,,true,943540.6,943540.4,939677.134,939764.5,939682.1,943468.7,1,40,,
trial,html.Screen,8_7_0,2024-03-05T20:36:28.932Z,,,,2,-0.001445457736793,-0.0165307427449982,,0.04,false,hl,6519.70000000007,response,1.0369885917487718,1.15,-1.15,-0.8486937878412699,1.0999999999999999,-1.15,high,low,,ISIC_0027350.JPG,,ISIC_6917681.JPG,28,26,false,0.40000000000000024,hh,keypress(i),0,true,949988.5,949988.4,943451.7,943540.6,943468.7,949907.2,1,40,8,
sequence,flow.Sequence,8_7,2024-03-05T20:36:28.932Z,,,,,,,,,,,6519.70000000007,completion,,,,,,,high,low,,,,,,,false,,,,,true,949988.5,949988.4,943451.7,943540.6,943468.7,949907.2,1,40,,
trial,html.Screen,8_8_0,2024-03-05T20:36:34.532Z,,,,2,-0.0164027439304477,0.0082910758715273,,0.04,false,ll,5681.100000000093,response,-1.219634566983089,1.15,-1.15,-1.0648460966097275,1.0999999999999999,-1.15,low,low,,ISIC_7381224.JPG,,ISIC_0030552.JPG,28,27,false,0.1,hh,keypress(i),0,true,955588.5,955588.3,949890.3,949988.6,949907.2,955511.8,1,40,9,
sequence,flow.Sequence,8_8,2024-03-05T20:36:34.532Z,,,,,,,,,,,5681.100000000093,completion,,,,,,,low,low,,,,,,,false,,,,,true,955588.7000000001,955588.3,949890.3,949988.5,949907.2,955511.8,1,40,,
trial,html.Screen,8_9_0,2024-03-05T20:36:44.565Z,,,,2,-0.0199950873045219,-0.0172506388509166,,0.04,false,lh,10108.79999999993,response,-0.8350129142228142,1.15,-1.15,0.8172547818270586,1.0999999999999999,-1.15,low,high,,ISIC_0029906.JPG,,ISIC_0301568.JPG,28,26,false,0.3200000000000002,hl,keypress(j),0,true,965620.8,965620.6,955507.816,955588.7000000001,955511.8,965536.7,1,40,10,
sequence,flow.Sequence,8_9,2024-03-05T20:36:44.565Z,,,,,,,,,,,10108.79999999993,completion,,,,,,,low,high,,,,,,,false,,,,,true,965621.1,965620.6,955507.816,955588.7000000001,955511.8,965536.7,1,40,,
trial,html.Screen,8_10_0,2024-03-05T20:36:52.469Z,,,,2,-0.0388334549081915,0.0303399972963369,,0.04,false,hl,7987.900000000023,response,1.0369885917487718,1.15,-1.15,-0.8486937878412699,1.15,-1.15,high,low,,ISIC_4961708.JPG,,ISIC_6917681.JPG,28,26,false,0.40000000000000024,hh,keypress(i),0,true,973524.7000000001,973524.6,965528.906,965621.1,965536.7,973443.2,1,40,11,
sequence,flow.Sequence,8_10,2024-03-05T20:36:52.469Z,,,,,,,,,,,7987.900000000023,completion,,,,,,,high,low,,,,,,,false,,,,,true,973524.9,973524.6,965528.906,965621.1,965536.7,973443.2,1,40,,
trial,html.Screen,8_11_0,2024-03-05T20:37:07.972Z,,,,2,-0.0241900387072296,0.0339955304424736,,0.04,false,lh,15584.900000000023,response,-1.0685314915436992,0.9869885917487717,-1.15,0.8203833713472237,1.15,-1.15,low,high,,ISIC_0010789.JPG,,ISIC_0029374.JPG,28,26,false,0.3500000000000002,ll,keypress(f),0,true,989028.2000000001,989028.1,973437.324,973525,973443.2,988956,1,40,12,
sequence,flow.Sequence,8_11,2024-03-05T20:37:07.972Z,,,,,,,,,,,15584.900000000023,completion,,,,,,,low,high,,,,,,,false,,,,,true,989028.2000000001,989028.1,973437.324,973525,973443.2,988956,1,40,,
trial,html.Screen,8_12_0,2024-03-05T20:37:13.429Z,,,,2,0.0044063257337227,0.0172548282859886,,0.04,false,hl,5528.599999999977,response,0.7883321712536753,0.9869885917487717,-1.15,-1.0011430756825364,1.15,-1.15,high,low,,ISIC_7413786.JPG,,ISIC_9828853.JPG,28,26,false,0.3200000000000002,hh,keypress(i),0,true,994484.7999999999,994484.6,988943.52,989028.2000000001,988956,994410.5,1,40,13,
sequence,flow.Sequence,8_12,2024-03-05T20:37:13.429Z,,,,,,,,,,,5528.599999999977,completion,,,,,,,high,low,,,,,,,false,,,,,true,994485.0000000001,994484.6,988943.52,989028.2000000001,988956,994410.5,1,40,,
trial,html.Screen,8_13_0,2024-03-05T20:37:18.020Z,,,,2,0.0118382036798625,0.0300588245877227,,0.04,false,ll,4665.79999999993,response,-1.236306205926646,0.9869885917487717,-1.15,-1.116612676102794,1.15,-1.15,low,low,,ISIC_4748605.JPG,,ISIC_0054341.JPG,28,27,false,0.1,hl,keypress(j),0,true,999076.4,999076.2999999999,994393.7,994485.1,994410.5,998997.6,1,40,14,
sequence,flow.Sequence,8_13,2024-03-05T20:37:18.020Z,,,,,,,,,,,4665.79999999993,completion,,,,,,,low,low,,,,,,,false,,,,,true,999076.4,999076.2999999999,994393.7,994485.1,994410.5,998997.6,1,40,,
trial,html.Screen,8_14_0,2024-03-05T20:37:25.444Z,,,,2,0.0200295718112167,0.0155559071275806,,0.04,false,hh,7502.600000000093,response,0.9159259992668974,0.9869885917487717,-1.15,1.264512568056258,1.15,-1.15,high,high,,ISIC_0061343.JPG,,ISIC_1258986.JPG,28,27,false,0.12,ll,keypress(f),0,true,1006500.2999999999,1006500.2000000001,998981,999076.5000000001,998997.6,1006420.5,1,40,15,
sequence,flow.Sequence,8_14,2024-03-05T20:37:25.444Z,,,,,,,,,,,7502.600000000093,completion,,,,,,,high,high,,,,,,,false,,,,,true,1006500.4,1006500.2000000001,998981,999076.5000000001,998997.6,1006420.5,1,40,,
trial,html.Screen,8_15_0,2024-03-05T20:37:31.668Z,,,,2,-0.0199950873045219,-0.0172506388509166,,0.04,true,ll,6303.79999999993,response,-1.0605529903237636,1.0369885917487718,-1.15,-1.1183115777058938,1.15,-1.15,low,low,,ISIC_0029906.JPG,,ISIC_0011365.JPG,28,27,false,0.1,ll,keypress(f),0,true,1012724.4,1012724.2999999999,1006414.81,1006500.5000000001,1006420.5,1012642.3,1,40,16,
sequence,flow.Sequence,8_15,2024-03-05T20:37:31.668Z,,,,,,,,,,,6303.79999999993,completion,,,,,,,low,low,,,,,,,false,,,,,true,1012724.5000000001,1012724.2999999999,1006414.81,1006500.5000000001,1006420.5,1012642.3,1,40,,
trial,html.Screen,8_16_0,2024-03-05T20:37:38.998Z,,,,2,-0.0109416414475118,-0.005246498750811,,0.04,true,hl,7412.099999999977,response,1.2362557973341337,1.0369885917487718,-1.15,-1.2548266183352603,1.15,-1.0394322840148287,high,low,,ISIC_0064279.JPG,,ISIC_0033886.JPG,28,26,false,0.30000000000000016,hl,keypress(j),0,true,1020054.7000000001,1020054.4,1012637.758,1012724.5000000001,1012642.3,1019981.7,1,40,17,
sequence,flow.Sequence,8_16,2024-03-05T20:37:38.999Z,,,,,,,,,,,7412.099999999977,completion,,,,,,,high,low,,,,,,,false,,,,,true,1020055.1,1020054.4,1012637.758,1012724.5000000001,1012642.3,1019981.7,1,40,,
trial,html.Screen,8_17_0,2024-03-05T20:37:41.847Z,,,,2,-0.0388181790775959,0.0049623405709465,,0.04,false,ll,2920.9000000000233,response,-1.0581711446393522,1.0369885917487718,-1.15,-1.1376053597134304,1.15,-1.0394322840148287,low,low,,ISIC_0061880.JPG,,ISIC_0014987.JPG,28,33,false,0.11,hh,keypress(i),0,true,1022903.0000000001,1022902.6,1019964.8,1020055.4,1019981.7,1022834,1,40,18,
sequence,flow.Sequence,8_17,2024-03-05T20:37:41.847Z,,,,,,,,,,,2920.9000000000233,completion,,,,,,,low,low,,,,,,,false,,,,,true,1022903.5000000001,1022902.6,1019964.8,1020055.4,1019981.7,1022834,1,40,,
trial,html.Screen,8_18_0,2024-03-05T20:37:48.615Z,,,,2,-0.0164027439304477,0.0082910758715273,,0.04,false,lh,6836.500000000116,response,-0.8544507134472948,1.0369885917487718,-1.15,0.9244388608707323,1.15,-1.0894322840148287,low,high,,ISIC_7381224.JPG,,ISIC_3565564.JPG,28,26,false,0.3500000000000002,hh,keypress(i),0,true,1029670.9,1029670.5000000001,1022832.626,1022903.7000000001,1022834,1029589.7,1,40,19,
sequence,flow.Sequence,8_18,2024-03-05T20:37:48.615Z,,,,,,,,,,,6836.500000000116,completion,,,,,,,low,high,,,,,,,false,,,,,true,1029671.4,1029670.5000000001,1022832.626,1022903.6,1022834,1029589.7,1,40,,
trial,html.Screen,8_19_0,2024-03-05T20:37:50.935Z,,,,2,-0.0388181790775959,0.0049623405709465,,0.04,false,hl,2400.9000000000233,response,0.7991459998473059,1.0369885917487718,-1.15,-1.0280788723474688,1.15,-1.0894322840148287,high,low,,ISIC_0061880.JPG,,ISIC_7951202.JPG,28,27,false,0.3200000000000002,hh,keypress(i),0,true,1031991.0000000001,1031990.6,1029585.07,1029671.6,1029589.7,1031924.08,1,40,20,
sequence,flow.Sequence,8_19,2024-03-05T20:37:50.935Z,,,,,,,,,,,2400.9000000000233,completion,,,,,,,high,low,,,,,,,false,,,,,true,1031991.5000000001,1031990.6,1029585.07,1029671.6,1029589.7,1031924.08,1,40,,
trial,html.Screen,8_20_0,2024-03-05T20:37:54.935Z,,,,2,0.0220026381002083,-0.0170756452911772,,0.04,false,lh,4066.719999999972,response,-0.8544507134472948,0.8117924303590192,-1.15,0.9244388608707323,1.15,-1.1394322840148288,low,high,,ISIC_5347806.JPG,,ISIC_3565564.JPG,28,26,false,0.3500000000000002,ll,keypress(f),0,true,1035991.1,1035990.7999999999,1031924.08,1031991.7000000001,1031924.08,1035911.5,1,40,21,
sequence,flow.Sequence,8_20,2024-03-05T20:37:54.935Z,,,,,,,,,,,4066.719999999972,completion,,,,,,,low,high,,,,,,,false,,,,,true,1035991.7000000001,1035990.7999999999,1031924.08,1031991.7000000001,1031924.08,1035911.5,1,40,,
trial,html.Screen,8_21_0,2024-03-05T20:37:58.726Z,,,,2,0.0367706518941078,-0.0161069838272154,,0.04,false,ll,3870.4000000000233,response,-1.0593040390975434,0.8117924303590192,-1.15,-1.0413442695273454,1.15,-1.1394322840148288,low,low,,ISIC_0033419.JPG,,ISIC_0061293.JPG,28,28,false,0.1,hh,keypress(i),0,true,1039782.2000000001,1039781.9,1035909.114,1035991.9,1035911.5,1039698.1,1,40,22,
sequence,flow.Sequence,8_21,2024-03-05T20:37:58.726Z,,,,,,,,,,,3870.4000000000233,completion,,,,,,,low,low,,,,,,,false,,,,,true,1039782.6,1039781.9,1035909.114,1035991.9,1035911.5,1039698.1,1,40,,
trial,html.Screen,8_22_0,2024-03-05T20:38:10.615Z,,,,2,0.0257631352671967,0.0202837002774028,,0.04,true,hh,11972.499999999884,response,0.7729458191923492,0.8117924303590192,-1.15,1.224984496784763,1.15,-1.1894322840148288,high,high,,ISIC_0032797.JPG,,ISIC_0696303.JPG,28,27,false,0.1,hh,keypress(i),0,true,1051671,1051670.5999999999,1039695.922,1039782.7000000001,1039698.1,1051591.1,1,40,23,
sequence,flow.Sequence,8_22,2024-03-05T20:38:10.615Z,,,,,,,,,,,11972.499999999884,completion,,,,,,,high,high,,,,,,,false,,,,,true,1051671.5,1051670.5999999999,1039695.922,1039782.7000000001,1039698.1,1051591.1,1,40,,
trial,html.Screen,8_23_0,2024-03-05T20:38:13.623Z,,,,2,-0.0164027439304477,0.0082910758715273,,0.04,true,hh,3087.5999999998603,response,0.7193286557553458,0.8117924303590192,-1.15,1.0636787813411093,1.15,-1.1894322840148288,high,high,,ISIC_7381224.JPG,,ISIC_9690371.JPG,28,27,false,0.1,hh,keypress(i),0,true,1054679.0999999999,1054678.7,1051581.798,1051671.7999999998,1051591.1,1054611.4,1,40,24,
sequence,flow.Sequence,8_23,2024-03-05T20:38:13.623Z,,,,,,,,,,,3087.5999999998603,completion,,,,,,,high,high,,,,,,,false,,,,,true,1054679.5999999999,1054678.7,1051581.798,1051671.7,1051591.1,1054611.4,1,40,,
trial,html.Screen,8_24_0,2024-03-05T20:38:18.117Z,,,,2,0.0119001144851157,-0.0063430114540141,,0.04,true,ll,4562.199999999953,response,-1.1048559518249943,1.094331639062936,-1.15,-1.2252457981338687,1.094331639062936,-1.1894322840148288,low,low,,ISIC_0003822.JPG,,ISIC_0060817.JPG,28,25,false,0.1,ll,keypress(f),0,true,1059173.7,1059173.5999999999,1054592.02,1054679.9,1054611.4,1059097.3,1,40,25,
sequence,flow.Sequence,8_24,2024-03-05T20:38:18.117Z,,,,,,,,,,,4562.199999999953,completion,,,,,,,low,low,,,,,,,false,,,,,true,1059173.7999999998,1059173.5999999999,1054592.02,1054679.7999999998,1054611.4,1059097.3,1,40,,
trial,html.Screen,8_25_0,2024-03-05T20:38:20.279Z,,,,2,0.0119001144851157,-0.0063430114540141,,0.04,true,ll,2237.2999999998137,response,-1.236306205926646,1.094331639062936,-1.15,-1.116612676102794,1.094331639062936,-1.1894322840148288,low,low,,ISIC_0003822.JPG,,ISIC_0054341.JPG,28,25,false,0.1,ll,keypress(f),0,true,1061334.9,1061334.5999999999,1059080.8,1059173.7999999998,1059097.3,1061266,1,40,26,
sequence,flow.Sequence,8_25,2024-03-05T20:38:20.279Z,,,,,,,,,,,2237.2999999998137,completion,,,,,,,low,low,,,,,,,false,,,,,true,1061335.5,1061334.5999999999,1059080.8,1059173.7999999998,1059097.3,1061266,1,40,,
trial,html.Screen,8_26_0,2024-03-05T20:38:23.255Z,,,,2,0.0009714874637896,-0.0174815595031679,,0.04,true,hh,3044.6999999999534,response,0.9786113496628154,1.094331639062936,-1.1209292371183313,1.040122402473425,1.094331639062936,-1.1209292371183313,high,high,,ISIC_9848743.JPG,,ISIC_8195528.JPG,28,27,false,0.12,hh,keypress(i),0,true,1064311.0999999999,1064310.7,1061248.32,1061335.5999999999,1061266,1064235.1,1,40,27,
sequence,flow.Sequence,8_26,2024-03-05T20:38:23.255Z,,,,,,,,,,,3044.6999999999534,completion,,,,,,,high,high,,,,,,,false,,,,,true,1064311.5999999999,1064310.7,1061248.32,1061335.5999999999,1061266,1064235.1,1,40,,
trial,html.Screen,8_27_0,2024-03-05T20:38:30.357Z,,,,2,0.0258224118104549,-0.0029364553353019,,0.04,false,hh,7178.399999999907,response,1.077278111180185,1.094331639062936,-1.1209292371183313,1.1530533996184025,1.094331639062936,-1.1209292371183313,high,high,,ISIC_8325226.JPG,,ISIC_9525136.JPG,28,27,false,0.12,hl,keypress(j),0,true,1071413.5999999999,1071413.5,1064218.3,1064311.7999999998,1064235.1,1071340.7,1,40,28,
sequence,flow.Sequence,8_27,2024-03-05T20:38:30.358Z,,,,,,,,,,,7178.399999999907,completion,,,,,,,high,high,,,,,,,false,,,,,true,1071413.9,1071413.5,1064218.3,1064311.7999999998,1064235.1,1071340.7,1,40,,
trial,html.Screen,8_28_0,2024-03-05T20:38:34.230Z,,,,2,-0.039520186367207,-0.0377961575607372,,0.04,false,lh,3945.1999999999534,response,-1.2594580992890123,1.008700256826805,-1.1209292371183313,0.8833175387485132,1.1443316390629361,-1.1209292371183313,low,high,,ISIC_6356149.JPG,,ISIC_0011933.JPG,28,25,false,0.3300000000000002,ll,keypress(f),0,true,1075286.0999999999,1075285.9,1071324.2,1071414,1071340.7,1075210.5,1,40,29,
sequence,flow.Sequence,8_28,2024-03-05T20:38:34.230Z,,,,,,,,,,,3945.1999999999534,completion,,,,,,,low,high,,,,,,,false,,,,,true,1075286.2,1075285.9,1071324.2,1071414,1071340.7,1075210.5,1,40,,
trial,html.Screen,8_29_0,2024-03-05T20:38:38.566Z,,,,2,-0.0065172941585523,0.0118857043117315,,0.04,true,hh,4411.299999999814,response,0.9832288967264424,1.008700256826805,-1.1209292371183313,1.0898586098590013,1.1943316390629362,-1.1209292371183313,high,high,,ISIC_6119202.JPG,,ISIC_2724529.JPG,28,25,false,0.13,hh,keypress(i),0,true,1079622.0999999999,1079621.7999999998,1075193.8,1075286.2999999998,1075210.5,1079547.4,1,40,30,
sequence,flow.Sequence,8_29,2024-03-05T20:38:38.566Z,,,,,,,,,,,4411.299999999814,completion,,,,,,,high,high,,,,,,,false,,,,,true,1079622.5999999999,1079621.7999999998,1075193.8,1075286.2999999998,1075210.5,1079547.4,1,40,,
trial,html.Screen,8_30_0,2024-03-05T20:38:45.015Z,,,,2,-0.001445457736793,-0.0165307427449982,,0.04,false,lh,6523.199999999953,response,-1.2646773654288392,1.008700256826805,-1.1209292371183313,0.952963803634235,1.1943316390629362,-1.1209292371183313,low,high,,ISIC_0027350.JPG,,ISIC_1996356.JPG,28,27,false,0.3600000000000002,ll,keypress(f),0,true,1086071,1086070.5999999999,1079544.656,1079622.7999999998,1079547.4,1085986.2,1,40,31,
sequence,flow.Sequence,8_30,2024-03-05T20:38:45.015Z,,,,,,,,,,,6523.199999999953,completion,,,,,,,low,high,,,,,,,false,,,,,true,1086071.5,1086070.5999999999,1079544.656,1079622.7,1079547.4,1085986.2,1,40,,
trial,html.Screen,8_31_0,2024-03-05T20:38:48.262Z,,,,2,0.0200295718112167,0.0155559071275806,,0.04,true,hh,3332,response,0.9798314852960236,1.008700256826805,-1.0709292371183312,1.167024525807191,1.1943316390629362,-1.1209292371183313,high,high,,ISIC_0061343.JPG,,ISIC_4341261.JPG,28,25,false,0.13,hh,keypress(i),0,true,1089318.5,1089318.2,1085981.816,1086071.7,1085986.2,1089238.8,1,40,32,
sequence,flow.Sequence,8_31,2024-03-05T20:38:48.263Z,,,,,,,,,,,3332,completion,,,,,,,high,high,,,,,,,false,,,,,true,1089319,1089318.2,1085981.816,1086071.5999999999,1085986.2,1089238.8,1,40,,
trial,html.Screen,8_32_0,2024-03-05T20:38:52.214Z,,,,2,-0.0164027439304477,0.0082910758715273,,0.04,false,lh,4030.999999999767,response,-0.7856143618373893,1.0234280055516072,-1.0709292371183312,1.0273608829432213,1.1943316390629362,-1.1209292371183313,low,high,,ISIC_7381224.JPG,,ISIC_9303849.JPG,28,26,false,0.3500000000000002,hl,keypress(j),0,true,1093270,1093269.7999999998,1089236.7,1089319.2999999998,1089238.8,1093192,1,40,33,
sequence,flow.Sequence,8_32,2024-03-05T20:38:52.214Z,,,,,,,,,,,4030.999999999767,completion,,,,,,,low,high,,,,,,,false,,,,,true,1093270.2999999998,1093269.7999999998,1089236.7,1089319.0999999999,1089238.8,1093192,1,40,,
trial,html.Screen,8_33_0,2024-03-05T20:39:02.567Z,,,,2,0.0044063257337227,0.0172548282859886,,0.04,false,lh,10430.799999999814,response,-0.7629099401226335,1.0234280055516072,-1.1209292371183313,0.8515956627075536,1.1943316390629362,-1.1209292371183313,low,high,,ISIC_7413786.JPG,,ISIC_0028718.JPG,28,27,false,0.3600000000000002,hl,keypress(j),0,true,1103623.0999999999,1103622.7999999998,1093189.616,1093270.4,1093192,1103550.7,1,40,34,
sequence,flow.Sequence,8_33,2024-03-05T20:39:02.567Z,,,,,,,,,,,10430.799999999814,completion,,,,,,,low,high,,,,,,,false,,,,,true,1103623.5999999999,1103622.7999999998,1093189.616,1093270.4,1093192,1103550.7,1,40,,
trial,html.Screen,8_34_0,2024-03-05T20:39:18.563Z,,,,2,-0.0241900387072296,0.0339955304424736,,0.04,,,16013.100000000093,timeout,-1.0865209011322887,1.0234280055516072,-1.1709292371183313,-1.1401461171952545,1.1943316390629362,-1.1209292371183313,low,low,,ISIC_0010789.JPG,,ISIC_0016145.JPG,28,30,false,0.11,,,0,true,1119619.7,1119619.2,1103542.826,1103623.9,1103550.7,1119563.8,1,40,35,
sequence,flow.Sequence,8_34,2024-03-05T20:39:18.564Z,,,,,,,,,,,16068.5,completion,,,,,,,low,low,,,,,,,false,,,,,true,1119620.0999999999,1119619.2,1103542.826,1103623.9,1103550.7,1119563.8,1,40,,
trial,html.Screen,8_35_0,2024-03-05T20:39:21.174Z,,,,2,-0.0241900387072296,0.0339955304424736,,0.04,true,hh,2666.2999999998137,response,1.0659165756604234,1.0234280055516072,-1.1709292371183313,1.0867497316848906,1.1943316390629362,-1.1209292371183313,high,high,,ISIC_0010789.JPG,,ISIC_5807608.JPG,28,25,false,0.13,hh,keypress(i),0,true,1122230.5,1122230.0999999999,1119547.1,1119620.4,1119563.8,1122164.658,1,40,36,
sequence,flow.Sequence,8_35,2024-03-05T20:39:21.175Z,,,,,,,,,,,2666.2999999998137,completion,,,,,,,high,high,,,,,,,false,,,,,true,1122231,1122230.0999999999,1119547.1,1119620.2999999998,1119563.8,1122164.658,1,40,,
trial,html.Screen,8_36_0,2024-03-05T20:39:26.567Z,,,,2,0.0220026381002083,-0.0170756452911772,,0.04,false,lh,5457.841999999946,response,-1.2081146885025262,1.0234280055516072,-1.1709292371183313,1.195668832085049,1.1943316390629362,-1.1209292371183313,low,high,,ISIC_5347806.JPG,,ISIC_7369690.JPG,28,26,false,0.3800000000000002,ll,keypress(f),0,true,1127622.9,1127622.5,1122164.658,1122231.0999999999,1122164.658,1127553.7,1,40,37,
sequence,flow.Sequence,8_36,2024-03-05T20:39:26.567Z,,,,,,,,,,,5457.841999999946,completion,,,,,,,low,high,,,,,,,false,,,,,true,1127623.5,1127622.5,1122164.658,1122231,1122164.658,1127553.7,1,40,,
trial,html.Screen,8_37_0,2024-03-05T20:39:28.663Z,,,,2,-0.0198696495649504,0.0387952353063878,,0.04,true,hh,2164.8000000000466,response,1.077278111180185,1.0234280055516072,-1.1709292371183313,1.1530533996184025,1.1943316390629362,-1.1209292371183313,high,high,,ISIC_6735970.JPG,,ISIC_9525136.JPG,28,25,false,0.13,hh,keypress(i),0,true,1129718.9,1129718.5,1127537,1127623.7999999998,1127553.7,1129638.9,1,40,38,
sequence,flow.Sequence,8_37,2024-03-05T20:39:28.663Z,,,,,,,,,,,2164.8000000000466,completion,,,,,,,high,high,,,,,,,false,,,,,true,1129719.4,1129718.5,1127537,1127623.7,1127553.7,1129638.9,1,40,,
trial,html.Screen,8_38_0,2024-03-05T20:39:32.919Z,,,,2,-0.0388334549081915,0.0303399972963369,,0.04,false,hl,4336.199999999953,response,1.0369885917487718,1.0651657553992937,-1.1709292371183313,-0.8486937878412699,1.1943316390629362,-1.1209292371183313,high,low,,ISIC_4961708.JPG,,ISIC_6917681.JPG,28,26,false,0.3500000000000002,ll,keypress(f),0,true,1133975.4,1133975.0999999999,1129637.756,1129719.7,1129638.9,1133892.3,1,40,39,
sequence,flow.Sequence,8_38,2024-03-05T20:39:32.920Z,,,,,,,,,,,4336.199999999953,completion,,,,,,,high,low,,,,,,,false,,,,,true,1133975.9,1133975.0999999999,1129637.756,1129719.5999999999,1129638.9,1133892.3,1,40,,
trial,html.Screen,8_39_0,2024-03-05T20:39:35.686Z,,,,2,0.0257631352671967,0.0202837002774028,,0.04,false,hl,2850.0999999998603,response,0.8513427412482127,1.1151657553992937,-1.1709292371183313,-0.9295303568095064,1.1943316390629362,-1.1209292371183313,high,low,,ISIC_0032797.JPG,,ISIC_0034164.JPG,28,25,false,0.3700000000000002,ll,keypress(f),0,true,1136742.7999999998,1136742.4,1133889.67,1133976.2,1133892.3,1136661.3,1,40,40,
sequence,flow.Sequence,8_39,2024-03-05T20:39:35.687Z,,,,,,,,,,,2850.0999999998603,completion,,,,,,,high,low,,,,,,,false,,,,,true,1136743.2,1136742.4,1133889.67,1133976,1133892.3,1136661.3,1,40,,
stair_loop,flow.Loop,8,2024-03-05T20:39:35.687Z,,,,,,,,,,,249770.3999999999,completion,,,,,,,,,,,,,,,false,,,,,true,1136743.5,1136742.4,886971.824,887052.2000000001,886972,1136661.3,1,40,,
exp_instructions,html.Screen,9,2024-03-05T20:39:38.470Z,,,,,,,,,,,2863.6999999999534,response,,,,,,,,,,,,,,,,,continue,keypress(Space),,,1139526.0999999999,1139525,1136659.93,1136743.7999999998,1136661.3,1139446.9,,,,
trial,html.Screen,10_0_0,2024-03-05T20:39:46.125Z,,,,1,0.0308384937406319,-0.0038396364323947,,0.04,true,hh,7734.5,response,0.9159259992668974,0.9990098424551638,-1.1396504659828313,1.264512568056258,1.1629653112503493,-1.1364801511872806,high,high,,ISIC_0029825.JPG,9,ISIC_1258986.JPG,28,28,false,0.13,hh,keypress(i),0,false,1147181.5,1147181.4,1139444.522,1139526.5,1139446.9,1147103.2,5,600,1,
break,html.Screen,10_0_1,2024-03-05T20:39:46.126Z,,,,,,,,,,,NaN,,,,,,,,high,high,,,,,,,false,,,,,false,1147182.0999999999,1147181.9,,1147181.7,,1147103.2,5,600,,
break_continue,html.Screen,10_0_2,2024-03-05T20:39:46.126Z,,,,,,,,,,,NaN,,,,,,,,high,high,,,,,,,false,,,,,false,1147182.5,1147182.2999999998,,1147182.2,,1147103.2,5,600,,
sequence,flow.Sequence,10_0,2024-03-05T20:39:46.126Z,,,,,,,,,,,7735.399999999907,completion,,,,,,,high,high,,,,,,,false,,,,,false,1147182.5,1147182.2999999998,1139444.522,1139526.5,1139446.9,1147103.2,5,600,,
trial,html.Screen,10_1_0,2024-03-05T20:39:55.331Z,,,,1,-0.0199950873045219,-0.0172506388509166,,0.04,false,hl,9284.699999999953,response,0.8828738626295417,0.9990098424551638,-1.1396504659828313,-0.8288177599439582,1.1629653112503493,-1.1364801511872806,high,low,,ISIC_0029906.JPG,9,ISIC_0056041.JPG,28,25,false,0.31000000000000016,ll,keypress(f),0,false,1156387.9,1156387.9,1147097.734,1147182.5999999999,1147103.2,1156310.6,5,600,2,
break,html.Screen,10_1_1,2024-03-05T20:39:55.332Z,,,,,,,,,,,NaN,,,,,,,,high,low,,,,,,,false,,,,,false,1156388.0999999999,1156388.0999999999,,1156388,,1156310.6,5,600,,
break_continue,html.Screen,10_1_2,2024-03-05T20:39:55.332Z,,,,,,,,,,,NaN,,,,,,,,high,low,,,,,,,false,,,,,false,1156388.2999999998,1156388.2,,1156388.0999999999,,1156310.6,5,600,,
sequence,flow.Sequence,10_1,2024-03-05T20:39:55.332Z,,,,,,,,,,,9285,completion,,,,,,,high,low,,,,,,,false,,,,,false,1156388.2999999998,1156388.2,1147097.734,1147182.5999999999,1147103.2,1156310.6,5,600,,
trial,html.Screen,10_2_0,2024-03-05T20:40:00.566Z,,,,1,0.0044063257337227,0.0172548282859886,,0.04,false,hl,5311.699999999721,response,0.6904571159175875,0.9990098424551638,-1.1396504659828313,-0.8338159233479188,1.1629653112503493,-1.1364801511872806,high,low,,ISIC_7413786.JPG,8,ISIC_6381981.JPG,28,25,false,0.31000000000000016,lh,keypress(e),0,false,1161622.7,1161622.2999999998,1156303.872,1156388.2999999998,1156310.6,1161548.3,5,600,3,
break,html.Screen,10_2_1,2024-03-05T20:40:00.567Z,,,,,,,,,,,NaN,,,,,,,,high,low,,,,,,,false,,,,,false,1161624,1161623.5,,1161623,,1161548.3,5,600,,
break_continue,html.Screen,10_2_2,2024-03-05T20:40:00.568Z,,,,,,,,,,,NaN,,,,,,,,high,low,,,,,,,false,,,,,false,1161624.9,1161624.4,,1161624.2,,1161548.3,5,600,,
sequence,flow.Sequence,10_2,2024-03-05T20:40:00.569Z,,,,,,,,,,,5313.799999999814,completion,,,,,,,high,low,,,,,,,false,,,,,false,1161625.0999999999,1161624.4,1156303.872,1156388.2999999998,1156310.6,1161548.3,5,600,,
trial,html.Screen,10_3_0,2024-03-05T20:40:03.254Z,,,,1,-0.039520186367207,-0.0377961575607372,,0.04,false,lh,2761.999999999767,response,-0.8350129142228142,0.9990098424551638,-1.1396504659828313,0.8172547818270586,1.1629653112503493,-1.1364801511872806,low,high,,ISIC_6356149.JPG,9,ISIC_0301568.JPG,28,25,false,0.3500000000000002,hh,keypress(i),0,false,1164310.7,1164310.2999999998,1161544.764,1161625.2999999998,1161548.3,1164233.9,5,600,4,
break,html.Screen,10_3_1,2024-03-05T20:40:03.256Z,,,,,,,,,,,NaN,,,,,,,,low,high,,,,,,,false,,,,,false,1164312.2,1164311.7,,1164311.0999999999,,1164233.9,5,600,,
break_continue,html.Screen,10_3_2,2024-03-05T20:40:03.257Z,,,,,,,,,,,NaN,,,,,,,,low,high,,,,,,,false,,,,,false,1164313.2999999998,1164312.7999999998,,1164312.5,,1164233.9,5,600,,
sequence,flow.Sequence,10_3,2024-03-05T20:40:03.257Z,,,,,,,,,,,2764.499999999767,completion,,,,,,,low,high,,,,,,,false,,,,,false,1164313.7,1164312.7999999998,1161544.764,1161625.2999999998,1161548.3,1164233.9,5,600,,
trial,html.Screen,10_4_0,2024-03-05T20:40:12.389Z,,,,1,0.0308384937406319,-0.0038396364323947,,0.04,false,ll,9211.5,response,-1.0581711446393522,0.9990098424551638,-1.1396504659828313,-1.1376053597134304,1.1629653112503493,-1.1364801511872806,low,low,,ISIC_0029825.JPG,8,ISIC_0014987.JPG,28,31,false,0.1,hh,keypress(i),0,false,1173445.5,1173445.4,1164217.2,1164313.9,1164233.9,1173374.7,5,600,5,
break,html.Screen,10_4_1,2024-03-05T20:40:12.390Z,,,,,,,,,,,NaN,,,,,,,,low,low,,,,,,,false,,,,,false,1173446.2999999998,1173446.0999999999,,1173445.7999999998,,1173374.7,5,600,,
break_continue,html.Screen,10_4_2,2024-03-05T20:40:12.390Z,,,,,,,,,,,NaN,,,,,,,,low,low,,,,,,,false,,,,,false,1173446.7999999998,1173446.5,,1173446.4,,1173374.7,5,600,,
sequence,flow.Sequence,10_4,2024-03-05T20:40:12.390Z,,,,,,,,,,,9212.600000000093,completion,,,,,,,low,low,,,,,,,false,,,,,false,1173446.9,1173446.5,1164217.2,1164313.7999999998,1164233.9,1173374.7,5,600,,
trial,html.Screen,10_5_0,2024-03-05T20:40:18.676Z,,,,1,-0.0241900387072296,0.0339955304424736,,0.04,true,lh,6357.800000000047,response,-1.0153439398566937,0.9990098424551638,-1.1396504659828313,0.93001438372942,1.1629653112503493,-1.1364801511872806,low,high,,ISIC_0010789.JPG,9,ISIC_8211214.JPG,28,25,false,0.3500000000000002,lh,keypress(e),0,false,1179732.5999999999,1179732.5,1173373.06,1173447,1173374.7,1179646.6,5,600,6,
break,html.Screen,10_5_1,2024-03-05T20:40:18.676Z,,,,,,,,,,,NaN,,,,,,,,low,high,,,,,,,false,,,,,false,1179733,1179732.9,,1179732.7,,1179646.6,5,600,,
break_continue,html.Screen,10_5_2,2024-03-05T20:40:18.677Z,,,,,,,,,,,NaN,,,,,,,,low,high,,,,,,,false,,,,,false,1179733.2999999998,1179733.2,,1179733,,1179646.6,5,600,,
sequence,flow.Sequence,10_5,2024-03-05T20:40:18.677Z,,,,,,,,,,,6358.5,completion,,,,,,,low,high,,,,,,,false,,,,,false,1179733.4,1179733.2,1173373.06,1173447,1173374.7,1179646.6,5,600,,
trial,html.Screen,10_6_0,2024-03-05T20:40:22.807Z,,,,1,-0.0065172941585523,0.0118857043117315,,0.04,true,hh,4216.699999999721,response,0.9832288967264424,0.9990098424551638,-1.1396504659828313,1.0898586098590013,1.1629653112503493,-1.1364801511872806,high,high,,ISIC_6119202.JPG,9,ISIC_2724529.JPG,28,28,false,0.13,hh,keypress(i),0,false,1183863.7,1183863.2999999998,1179642.356,1179733.4,1179646.6,1183783.5,5,600,7,
break,html.Screen,10_6_1,2024-03-05T20:40:22.809Z,,,,,,,,,,,NaN,,,,,,,,high,high,,,,,,,false,,,,,false,1183865.2999999998,1183864.7999999998,,1183864.2,,1183783.5,5,600,,
break_continue,html.Screen,10_6_2,2024-03-05T20:40:22.810Z,,,,,,,,,,,NaN,,,,,,,,high,high,,,,,,,false,,,,,false,1183866.5,1183866,,1183865.5999999999,,1183783.5,5,600,,
sequence,flow.Sequence,10_6,2024-03-05T20:40:22.810Z,,,,,,,,,,,4219.399999999907,completion,,,,,,,high,high,,,,,,,false,,,,,false,1183866.7999999998,1183866,1179642.356,1179733.4,1179646.6,1183783.5,5,600,,
trial,html.Screen,10_7_0,2024-03-05T20:40:30.006Z,,,,1,0.0367706518941078,-0.0161069838272154,,0.04,false,lh,7278.399999999907,response,-0.9138670886161264,0.9990098424551638,-1.1396504659828313,0.8414121478342018,1.1629653112503493,-1.1364801511872806,low,high,,ISIC_0033419.JPG,9,ISIC_6709052.JPG,28,25,false,0.3500000000000002,hh,keypress(i),0,false,1191062.2,1191061.9,1183783.316,1183867.0999999999,1183783.5,1190989.3,5,600,8,
break,html.Screen,10_7_1,2024-03-05T20:40:30.007Z,,,,,,,,,,,NaN,,,,,,,,low,high,,,,,,,false,,,,,false,1191063.7999999998,1191063.4,,1191062.7,,1190989.3,5,600,,
break_continue,html.Screen,10_7_2,2024-03-05T20:40:30.008Z,,,,,,,,,,,NaN,,,,,,,,low,high,,,,,,,false,,,,,false,1191064.9,1191064.5,,1191064.2,,1190989.3,5,600,,
sequence,flow.Sequence,10_7,2024-03-05T20:40:30.009Z,,,,,,,,,,,7281,completion,,,,,,,low,high,,,,,,,false,,,,,false,1191065.2999999998,1191064.5,1183783.316,1183867,1183783.5,1190989.3,5,600,,
trial,html.Screen,10_8_0,2024-03-05T20:40:35.654Z,,,,1,-0.039520186367207,-0.0377961575607372,,0.04,true,lh,5721.499999999767,response,-0.9662688541319592,0.9990098424551638,-1.1396504659828313,0.929746784178986,1.1629653112503493,-1.1364801511872806,low,high,,ISIC_6356149.JPG,8,ISIC_0011077.JPG,28,25,false,0.3500000000000002,lh,keypress(e),0,false,1196711.2,1196710.7999999998,1190988.346,1191065.5,1190989.3,1196627.3,5,600,9,
break,html.Screen,10_8_1,2024-03-05T20:40:35.656Z,,,,,,,,,,,NaN,,,,,,,,low,high,,,,,,,false,,,,,false,1196712.7999999998,1196712.2,,1196711.5999999999,,1196627.3,5,600,,
break_continue,html.Screen,10_8_2,2024-03-05T20:40:35.657Z,,,,,,,,,,,NaN,,,,,,,,low,high,,,,,,,false,,,,,false,1196713.9,1196713.4,,1196713,,1196627.3,5,600,,
sequence,flow.Sequence,10_8,2024-03-05T20:40:35.657Z,,,,,,,,,,,5724.09999999986,completion,,,,,,,low,high,,,,,,,false,,,,,false,1196714.2,1196713.4,1190988.346,1191065.4,1190989.3,1196627.3,5,600,,
trial,html.Screen,10_9_0,2024-03-05T20:40:40.132Z,,,,1,-0.0199950873045219,-0.0172506388509166,,0.04,false,hl,4561.399999999907,response,0.7246771568562105,0.9990098424551638,-1.1396504659828313,-0.9161385080362604,1.1629653112503493,-1.1364801511872806,high,low,,ISIC_0029906.JPG,8,ISIC_0028225.JPG,28,25,false,0.31000000000000016,hh,keypress(i),0,false,1201188.7,1201188.7,1196625.052,1196714.4,1196627.3,1201114.3,5,600,10,
break,html.Screen,10_9_1,2024-03-05T20:40:40.132Z,,,,,,,,,,,NaN,,,,,,,,high,low,,,,,,,false,,,,,false,1201189.2,1201189,,1201188.7999999998,,1201114.3,5,600,,
break_continue,html.Screen,10_9_2,2024-03-05T20:40:40.133Z,,,,,,,,,,,NaN,,,,,,,,high,low,,,,,,,false,,,,,false,1201189.4,1201189.2999999998,,1201189.2,,1201114.3,5,600,,
sequence,flow.Sequence,10_9,2024-03-05T20:40:40.133Z,,,,,,,,,,,4561.999999999767,completion,,,,,,,high,low,,,,,,,false,,,,,false,1201189.4,1201189.2999999998,1196625.052,1196714.4,1196627.3,1201114.3,5,600,,
trial,html.Screen,10_10_0,2024-03-05T20:40:51.462Z,,,,1,0.0044063257337227,0.0172548282859886,,0.04,false,lh,11404.499999999767,response,-0.8067116931297591,0.9990098424551638,-1.1396504659828313,1.215898074058027,1.1629653112503493,-1.1364801511872806,low,high,,ISIC_7413786.JPG,9,ISIC_1457687.JPG,28,25,false,0.3500000000000002,hh,keypress(i),0,false,1212519.0999999999,1212518.7999999998,1201097.9,1201189.5,1201114.3,1212440.4,5,600,11,
break,html.Screen,10_10_1,2024-03-05T20:40:51.464Z,,,,,,,,,,,NaN,,,,,,,,low,high,,,,,,,false,,,,,false,1212520.5,1212520.0999999999,,1212519.5,,1212440.4,5,600,,
break_continue,html.Screen,10_10_2,2024-03-05T20:40:51.465Z,,,,,,,,,,,NaN,,,,,,,,low,high,,,,,,,false,,,,,false,1212521.5999999999,1212521.0999999999,,1212520.7999999998,,1212440.4,5,600,,
sequence,flow.Sequence,10_10,2024-03-05T20:40:51.465Z,,,,,,,,,,,11406.799999999814,completion,,,,,,,low,high,,,,,,,false,,,,,false,1212521.9,1212521.0999999999,1201097.9,1201189.5,1201114.3,1212440.4,5,600,,
trial,html.Screen,10_11_0,2024-03-05T20:41:06.166Z,,,,1,0.0044063257337227,0.0172548282859886,,0.04,false,hl,14782.199999999953,response,0.8034318937720549,0.9990098424551638,-1.1396504659828313,-1.0024917298189338,1.1629653112503493,-1.1364801511872806,high,low,,ISIC_7413786.JPG,9,ISIC_0032766.JPG,28,25,false,0.31000000000000016,hh,keypress(i),0,false,1227223.0999999999,1227222.5999999999,1212439.446,1212522.2,1212440.4,1227152.5,5,600,12,
break,html.Screen,10_11_1,2024-03-05T20:41:06.168Z,,,,,,,,,,,NaN,,,,,,,,high,low,,,,,,,false,,,,,false,1227224.5,1227224.0999999999,,1227223.5,,1227152.5,5,600,,
break_continue,html.Screen,10_11_2,2024-03-05T20:41:06.169Z,,,,,,,,,,,NaN,,,,,,,,high,low,,,,,,,false,,,,,false,1227225.5999999999,1227225.0999999999,,1227224.7999999998,,1227152.5,5,600,,
sequence,flow.Sequence,10_11,2024-03-05T20:41:06.169Z,,,,,,,,,,,14784.699999999953,completion,,,,,,,high,low,,,,,,,false,,,,,false,1227225.7999999998,1227225.0999999999,1212439.446,1212522.0999999999,1212440.4,1227152.5,5,600,,
trial,html.Screen,10_12_0,2024-03-05T20:41:10.406Z,,,,1,0.0258224118104549,-0.0029364553353019,,0.04,false,lh,4310.09999999986,response,-1.0153439398566937,0.9990098424551638,-1.1396504659828313,0.93001438372942,1.1629653112503493,-1.1364801511872806,low,high,,ISIC_8325226.JPG,9,ISIC_8211214.JPG,28,25,false,0.3500000000000002,ll,keypress(f),0,false,1231463,1231462.5999999999,1227148.744,1227226,1227152.5,1231389.5,5,600,13,
break,html.Screen,10_12_1,2024-03-05T20:41:10.408Z,,,,,,,,,,,NaN,,,,,,,,low,high,,,,,,,false,,,,,false,1231464.4,1231464,,1231463.4,,1231389.5,5,600,,
break_continue,html.Screen,10_12_2,2024-03-05T20:41:10.409Z,,,,,,,,,,,NaN,,,,,,,,low,high,,,,,,,false,,,,,false,1231465.2999999998,1231464.7999999998,,1231464.5,,1231389.5,5,600,,
sequence,flow.Sequence,10_12,2024-03-05T20:41:10.409Z,,,,,,,,,,,4312.299999999814,completion,,,,,,,low,high,,,,,,,false,,,,,false,1231465.5,1231464.7999999998,1227148.744,1227226,1227152.5,1231389.5,5,600,,
trial,html.Screen,10_13_0,2024-03-05T20:41:14.180Z,,,,1,0.0044063257337227,0.0172548282859886,,0.04,true,hh,3847.0999999998603,response,0.9000661178885296,0.9990098424551638,-1.1396504659828313,1.086658647698992,1.1629653112503493,-1.1364801511872806,high,high,,ISIC_7413786.JPG,8,ISIC_7407847.JPG,28,28,false,0.13,hh,keypress(i),0,false,1235236.7,1235236.5999999999,1231386.594,1231465.7,1231389.5,1235159.3,5,600,14,
break,html.Screen,10_13_1,2024-03-05T20:41:14.180Z,,,,,,,,,,,NaN,,,,,,,,high,high,,,,,,,false,,,,,false,1235237.0999999999,1235237,,1235236.7999999998,,1235159.3,5,600,,
break_continue,html.Screen,10_13_2,2024-03-05T20:41:14.181Z,,,,,,,,,,,NaN,,,,,,,,high,high,,,,,,,false,,,,,false,1235237.4,1235237.2,,1235237.0999999999,,1235159.3,5,600,,
sequence,flow.Sequence,10_13,2024-03-05T20:41:14.181Z,,,,,,,,,,,3847.6999999999534,completion,,,,,,,high,high,,,,,,,false,,,,,false,1235237.4,1235237.2,1231386.594,1231465.7,1231389.5,1235159.3,5,600,,
trial,html.Screen,10_14_0,2024-03-05T20:41:16.182Z,,,,1,0.0367706518941078,-0.0161069838272154,,0.04,true,hh,2079.6999999999534,response,0.9798314852960236,0.9990098424551638,-1.1396504659828313,1.167024525807191,1.1629653112503493,-1.1364801511872806,high,high,,ISIC_0033419.JPG,9,ISIC_4341261.JPG,28,28,false,0.13,hh,keypress(i),0,false,1237239.0999999999,1237239,1235142.5,1235237.5,1235159.3,1237177.7,5,600,15,
break,html.Screen,10_14_1,2024-03-05T20:41:16.183Z,,,,,,,,,,,NaN,,,,,,,,high,high,,,,,,,false,,,,,false,1237239.4,1237239.4,,1237239.2,,1237177.7,5,600,,
break_continue,html.Screen,10_14_2,2024-03-05T20:41:16.183Z,,,,,,,,,,,NaN,,,,,,,,high,high,,,,,,,false,,,,,false,1237239.7,1237239.5,,1237239.5,,1237177.7,5,600,,
sequence,flow.Sequence,10_14,2024-03-05T20:41:16.183Z,,,,,,,,,,,2080.1999999999534,completion,,,,,,,high,high,,,,,,,false,,,,,false,1237239.7,1237239.5,1235142.5,1235237.4,1235159.3,1237177.7,5,600,,
trial,html.Screen,10_15_0,2024-03-05T20:41:20.134Z,,,,1,0.0076984477620101,0.0069458408496562,,0.04,true,lh,4013,response,-1.0788024398087033,0.9990098424551638,-1.1396504659828313,0.9911875460374616,1.1629653112503493,-1.1364801511872806,low,high,,ISIC_0000434.JPG,9,ISIC_5951430.JPG,28,25,false,0.3500000000000002,lh,keypress(e),0,false,1241191.2,1241190.7,1237160.666,1237239.7,1237177.7,1241114,5,600,16,
break,html.Screen,10_15_1,2024-03-05T20:41:20.136Z,,,,,,,,,,,NaN,,,,,,,,low,high,,,,,,,false,,,,,false,1241192.7,1241192.2,,1241191.7,,1241114,5,600,,
break_continue,html.Screen,10_15_2,2024-03-05T20:41:20.137Z,,,,,,,,,,,NaN,,,,,,,,low,high,,,,,,,false,,,,,false,1241193.5999999999,1241193.2,,1241192.9,,1241114,5,600,,
sequence,flow.Sequence,10_15,2024-03-05T20:41:20.137Z,,,,,,,,,,,4015.5,completion,,,,,,,low,high,,,,,,,false,,,,,false,1241193.9,1241193.2,1237160.666,1237239.7,1237177.7,1241114,5,600,,
trial,html.Screen,10_16_0,2024-03-05T20:41:33.062Z,,,,1,-0.0199950873045219,-0.0172506388509166,,0.04,true,ll,13004.899999999907,response,-1.0605529903237636,0.9990098424551638,-1.1396504659828313,-1.1183115777058938,1.1629653112503493,-1.1364801511872806,low,low,,ISIC_0029906.JPG,10,ISIC_0011365.JPG,28,31,false,0.1,ll,keypress(f),0,false,1254119.2999999998,1254118.9,1241111.682,1241194.0999999999,1241114,1254041.3,5,600,17,
break,html.Screen,10_16_1,2024-03-05T20:41:33.064Z,,,,,,,,,,,NaN,,,,,,,,low,low,,,,,,,false,,,,,false,1254120.7999999998,1254120.4,,1254119.7,,1254041.3,5,600,,
break_continue,html.Screen,10_16_2,2024-03-05T20:41:33.065Z,,,,,,,,,,,NaN,,,,,,,,low,low,,,,,,,false,,,,,false,1254121.9,1254121.4,,1254121.0999999999,,1254041.3,5,600,,
sequence,flow.Sequence,10_16,2024-03-05T20:41:33.065Z,,,,,,,,,,,13007.399999999907,completion,,,,,,,low,low,,,,,,,false,,,,,false,1254122.2999999998,1254121.4,1241111.682,1241194,1241114,1254041.3,5,600,,
trial,html.Screen,10_17_0,2024-03-05T20:41:37.414Z,,,,1,0.0076984477620101,0.0069458408496562,,0.04,true,hl,4428.799999999814,response,0.8513427412482127,0.9990098424551638,-1.1396504659828313,-0.9295303568095064,1.1629653112503493,-1.1364801511872806,high,low,,ISIC_0000434.JPG,9,ISIC_0034164.JPG,28,25,false,0.31000000000000016,hl,keypress(j),0,false,1258470.4,1258470.0999999999,1254039.082,1254122.5,1254041.3,1258395,5,600,18,
break,html.Screen,10_17_1,2024-03-05T20:41:37.415Z,,,,,,,,,,,NaN,,,,,,,,high,low,,,,,,,false,,,,,false,1258471.7,1258471.2999999998,,1258470.7999999998,,1258395,5,600,,
break_continue,html.Screen,10_17_2,2024-03-05T20:41:37.416Z,,,,,,,,,,,NaN,,,,,,,,high,low,,,,,,,false,,,,,false,1258472.7,1258472.2999999998,,1258472,,1258395,5,600,,
sequence,flow.Sequence,10_17,2024-03-05T20:41:37.416Z,,,,,,,,,,,4430.999999999767,completion,,,,,,,high,low,,,,,,,false,,,,,false,1258473,1258472.2999999998,1254039.082,1254122.4,1254041.3,1258395,5,600,,
trial,html.Screen,10_18_0,2024-03-05T20:41:42.963Z,,,,1,-0.0074667911845194,0.018500200317654,,0.04,true,ll,5624.699999999953,response,-1.048482877784125,0.9990098424551638,-1.1396504659828313,-1.0716857765902368,1.1629653112503493,-1.1364801511872806,low,low,,ISIC_0058723.JPG,8,ISIC_0063961.JPG,28,31,false,0.1,ll,keypress(f),0,false,1264019.7999999998,1264019.7,1258392.266,1258473.0999999999,1258395,1263949.4,5,600,19,
break,html.Screen,10_18_1,2024-03-05T20:41:42.963Z,,,,,,,,,,,NaN,,,,,,,,low,low,,,,,,,false,,,,,false,1264020.0999999999,1264020.0999999999,,1264019.9,,1263949.4,5,600,,
break_continue,html.Screen,10_18_2,2024-03-05T20:41:42.963Z,,,,,,,,,,,NaN,,,,,,,,low,low,,,,,,,false,,,,,false,1264020.4,1264020.2999999998,,1264020.2,,1263949.4,5,600,,
sequence,flow.Sequence,10_18,2024-03-05T20:41:42.964Z,,,,,,,,,,,5625.299999999814,completion,,,,,,,low,low,,,,,,,false,,,,,false,1264020.4,1264020.2999999998,1258392.266,1258473.0999999999,1258395,1263949.4,5,600,,
trial,html.Screen,10_19_0,2024-03-05T20:41:54.134Z,,,,1,0.0118382036798625,0.0300588245877227,,0.04,true,hh,11241.100000000093,response,1.0257168197307909,0.9990098424551638,-1.1396504659828313,1.0403166496930305,1.1629653112503493,-1.1364801511872806,high,high,,ISIC_4748605.JPG,9,ISIC_1690909.JPG,28,28,false,0.13,hh,keypress(i),0,false,1275190.9,1275190.5,1263932.6,1264020.4,1263949.4,1275108.7,5,600,20,
break,html.Screen,10_19_1,2024-03-05T20:41:54.135Z,,,,,,,,,,,NaN,,,,,,,,high,high,,,,,,,false,,,,,false,1275192.2,1275191.7999999998,,1275191.2,,1275108.7,5,600,,
break_continue,html.Screen,10_19_2,2024-03-05T20:41:54.136Z,,,,,,,,,,,NaN,,,,,,,,high,high,,,,,,,false,,,,,false,1275192.9,1275192.5999999999,,1275192.4,,1275108.7,5,600,,
sequence,flow.Sequence,10_19,2024-03-05T20:41:54.136Z,,,,,,,,,,,11243.199999999953,completion,,,,,,,high,high,,,,,,,false,,,,,false,1275193.2,1275192.5999999999,1263932.6,1264020.4,1263949.4,1275108.7,5,600,,
trial,html.Screen,10_20_0,2024-03-05T20:42:07.078Z,,,,1,-0.001445457736793,-0.0165307427449982,,0.04,false,hl,13026.09999999986,response,0.9754077946987664,0.9990098424551638,-1.1396504659828313,-1.1821868813141057,1.1629653112503493,-1.1364801511872806,high,low,,ISIC_0027350.JPG,8,ISIC_0024317.JPG,28,25,false,0.31000000000000016,lh,keypress(e),0,false,1288135.2,1288134.7999999998,1275107.72,1275193.4,1275108.7,1288052.7,5,600,21,
break,html.Screen,10_20_1,2024-03-05T20:42:07.080Z,,,,,,,,,,,NaN,,,,,,,,high,low,,,,,,,false,,,,,false,1288136.5999999999,1288136.2999999998,,1288135.5,,1288052.7,5,600,,
break_continue,html.Screen,10_20_2,2024-03-05T20:42:07.081Z,,,,,,,,,,,NaN,,,,,,,,high,low,,,,,,,false,,,,,false,1288137.7999999998,1288137.2999999998,,1288136.9,,1288052.7,5,600,,
sequence,flow.Sequence,10_20,2024-03-05T20:42:07.081Z,,,,,,,,,,,13028.59999999986,completion,,,,,,,high,low,,,,,,,false,,,,,false,1288138,1288137.2999999998,1275107.72,1275193.2999999998,1275108.7,1288052.7,5,600,,
trial,html.Screen,10_21_0,2024-03-05T20:42:14.150Z,,,,1,-0.0074667911845194,0.018500200317654,,0.04,true,lh,7153.899999999907,response,-1.2081146885025262,0.9990098424551638,-1.1396504659828313,1.195668832085049,1.1629653112503493,-1.1364801511872806,low,high,,ISIC_0058723.JPG,9,ISIC_7369690.JPG,28,25,false,0.3500000000000002,lh,keypress(e),0,false,1295207,1295206.5999999999,1288050.448,1288138.2999999998,1288052.7,1295141.8,5,600,22,
break,html.Screen,10_21_1,2024-03-05T20:42:14.152Z,,,,,,,,,,,NaN,,,,,,,,low,high,,,,,,,false,,,,,false,1295208.5,1295208,,1295207.4,,1295141.8,5,600,,
break_continue,html.Screen,10_21_2,2024-03-05T20:42:14.153Z,,,,,,,,,,,NaN,,,,,,,,low,high,,,,,,,false,,,,,false,1295209.5999999999,1295209.0999999999,,1295208.7,,1295141.8,5,600,,
sequence,flow.Sequence,10_21,2024-03-05T20:42:14.153Z,,,,,,,,,,,7156.399999999907,completion,,,,,,,low,high,,,,,,,false,,,,,false,1295209.9,1295209.0999999999,1288050.448,1288138.2,1288052.7,1295141.8,5,600,,
trial,html.Screen,10_22_0,2024-03-05T20:42:16.278Z,,,,1,0.0076984477620101,0.0069458408496562,,0.04,true,lh,2192.5999999998603,response,-1.2081146885025262,0.9990098424551638,-1.1396504659828313,1.195668832085049,1.1629653112503493,-1.1364801511872806,low,high,,ISIC_0000434.JPG,9,ISIC_7369690.JPG,28,25,false,0.3500000000000002,lh,keypress(e),0,false,1297334.7,1297334.4,1295136.924,1295210.0999999999,1295141.8,1297260.3,5,600,23,
break,html.Screen,10_22_1,2024-03-05T20:42:16.279Z,,,,,,,,,,,NaN,,,,,,,,low,high,,,,,,,false,,,,,false,1297336.2,1297335.7999999998,,1297335.2,,1297260.3,5,600,,
break_continue,html.Screen,10_22_2,2024-03-05T20:42:16.280Z,,,,,,,,,,,NaN,,,,,,,,low,high,,,,,,,false,,,,,false,1297337.2999999998,1297336.9,,1297336.5999999999,,1297260.3,5,600,,
sequence,flow.Sequence,10_22,2024-03-05T20:42:16.281Z,,,,,,,,,,,2195.0999999998603,completion,,,,,,,low,high,,,,,,,false,,,,,false,1297337.7,1297336.9,1295136.924,1295210,1295141.8,1297260.3,5,600,,
trial,html.Screen,10_23_0,2024-03-05T20:42:25.107Z,,,,1,-0.0088741920055285,-0.0058246074740588,,0.04,false,hl,8903.399999999907,response,0.7010101889216934,0.9990098424551638,-1.1396504659828313,-0.9022783418178474,1.1629653112503493,-1.1364801511872806,high,low,,ISIC_4136663.JPG,9,ISIC_0057858.JPG,28,25,false,0.31000000000000016,hh,keypress(i),0,false,1306163.7,1306163.7,1297259.522,1297337.7999999998,1297260.3,1306084,5,600,24,
break,html.Screen,10_23_1,2024-03-05T20:42:25.107Z,,,,,,,,,,,NaN,,,,,,,,high,low,,,,,,,false,,,,,false,1306164,1306164,,1306163.7999999998,,1306084,5,600,,
break_continue,html.Screen,10_23_2,2024-03-05T20:42:25.107Z,,,,,,,,,,,NaN,,,,,,,,high,low,,,,,,,false,,,,,false,1306164.0999999999,1306164,,1306164,,1306084,5,600,,
sequence,flow.Sequence,10_23,2024-03-05T20:42:25.107Z,,,,,,,,,,,8903.699999999953,completion,,,,,,,high,low,,,,,,,false,,,,,false,1306164.2,1306164,1297259.522,1297337.7999999998,1297260.3,1306084,5,600,,
trial,html.Screen,10_24_0,2024-03-05T20:42:29.731Z,,,,1,0,-0.0102871556606504,,0.04,false,lh,4703.5,response,-1.0685314915436992,0.9990098424551638,-1.1396504659828313,0.8203833713472237,1.1629653112503493,-1.1364801511872806,low,high,,ISIC_1805163.JPG,10,ISIC_0029374.JPG,28,25,false,0.3500000000000002,hh,keypress(i),0,false,1310787.5999999999,1310787.5,1306067.4,1306164.2,1306084,1310704.6,5,600,25,
break,html.Screen,10_24_1,2024-03-05T20:42:29.731Z,,,,,,,,,,,NaN,,,,,,,,low,high,,,,,,,false,,,,,false,1310787.7999999998,1310787.7,,1310787.7,,1310704.6,5,600,,
break_continue,html.Screen,10_24_2,2024-03-05T20:42:29.731Z,,,,,,,,,,,NaN,,,,,,,,low,high,,,,,,,false,,,,,false,1310788,1310788,,1310787.9,,1310704.6,5,600,,
sequence,flow.Sequence,10_24,2024-03-05T20:42:29.731Z,,,,,,,,,,,4704,completion,,,,,,,low,high,,,,,,,false,,,,,false,1310788,1310788,1306067.4,1306164.2,1306084,1310704.6,5,600,,
trial,html.Screen,10_25_0,2024-03-05T20:42:31.795Z,,,,1,0.0257631352671967,0.0202837002774028,,0.04,true,hh,2147.399999999907,response,1.109799097093339,0.9990098424551638,-1.1396504659828313,1.091507924157762,1.1629653112503493,-1.1364801511872806,high,high,,ISIC_0032797.JPG,9,ISIC_0765584.JPG,28,28,false,0.13,hh,keypress(i),0,false,1312852.0999999999,1312852,1310702.062,1310788,1310704.6,1312773,5,600,26,
break,html.Screen,10_25_1,2024-03-05T20:42:31.796Z,,,,,,,,,,,NaN,,,,,,,,high,high,,,,,,,false,,,,,false,1312852.5,1312852.4,,1312852.2,,1312773,5,600,,
break_continue,html.Screen,10_25_2,2024-03-05T20:42:31.796Z,,,,,,,,,,,NaN,,,,,,,,high,high,,,,,,,false,,,,,false,1312852.7,1312852.7,,1312852.5999999999,,1312773,5,600,,
sequence,flow.Sequence,10_25,2024-03-05T20:42:31.796Z,,,,,,,,,,,2148.0999999998603,completion,,,,,,,high,high,,,,,,,false,,,,,false,1312852.7999999998,1312852.7,1310702.062,1310788,1310704.6,1312773,5,600,,
trial,html.Screen,10_26_0,2024-03-05T20:42:37.795Z,,,,1,-0.001445457736793,-0.0165307427449982,,0.04,false,hl,6079,response,0.8513427412482127,0.9990098424551638,-1.1396504659828313,-0.9295303568095064,1.1629653112503493,-1.1364801511872806,high,low,,ISIC_0027350.JPG,10,ISIC_0034164.JPG,28,25,false,0.31000000000000016,lh,keypress(e),0,false,1318852.0999999999,1318852,1312771.924,1312852.7999999998,1312773,1318777.9,5,600,27,
break,html.Screen,10_26_1,2024-03-05T20:42:37.795Z,,,,,,,,,,,NaN,,,,,,,,high,low,,,,,,,false,,,,,false,1318852.4,1318852.2999999998,,1318852.0999999999,,1318777.9,5,600,,
break_continue,html.Screen,10_26_2,2024-03-05T20:42:37.796Z,,,,,,,,,,,NaN,,,,,,,,high,low,,,,,,,false,,,,,false,1318852.5,1318852.5,,1318852.4,,1318777.9,5,600,,
sequence,flow.Sequence,10_26,2024-03-05T20:42:37.796Z,,,,,,,,,,,6079.5,completion,,,,,,,high,low,,,,,,,false,,,,,false,1318852.5,1318852.5,1312771.924,1312852.7999999998,1312773,1318777.9,5,600,,
trial,html.Screen,10_27_0,2024-03-05T20:42:45.651Z,,,,1,0,-0.0102871556606504,,0.04,true,ll,7929.699999999953,response,-1.1441767540243375,0.9990098424551638,-1.1396504659828313,-1.0949087392471728,1.1629653112503493,-1.1364801511872806,low,low,,ISIC_1805163.JPG,10,ISIC_0054146.JPG,28,31,false,0.1,ll,keypress(f),0,false,1326707.7,1326707.5999999999,1318761.1,1318852.5,1318777.9,1326634.4,5,600,28,
break,html.Screen,10_27_1,2024-03-05T20:42:45.651Z,,,,,,,,,,,NaN,,,,,,,,low,low,,,,,,,false,,,,,false,1326708,1326708,,1326707.7999999998,,1326634.4,5,600,,
break_continue,html.Screen,10_27_2,2024-03-05T20:42:45.651Z,,,,,,,,,,,NaN,,,,,,,,low,low,,,,,,,false,,,,,false,1326708,1326708,,1326708,,1326634.4,5,600,,
sequence,flow.Sequence,10_27,2024-03-05T20:42:45.651Z,,,,,,,,,,,7930.100000000093,completion,,,,,,,low,low,,,,,,,false,,,,,false,1326708.0999999999,1326708,1318761.1,1318852.5,1318777.9,1326634.4,5,600,,
trial,html.Screen,10_28_0,2024-03-05T20:43:01.646Z,,,,1,0.0118382036798625,0.0300588245877227,,0.04,,,16013.40000000014,timeout,-0.8307508446051526,0.9990098424551638,-1.1396504659828313,1.1707575338936729,1.1629653112503493,-1.1364801511872806,low,high,,ISIC_4748605.JPG,9,ISIC_0028606.JPG,28,25,false,0.3500000000000002,,,0,false,1342703.2,1342702.9,1326617.5,1326708.0999999999,1326634.4,1342647.8,5,600,29,
break,html.Screen,10_28_1,2024-03-05T20:43:01.648Z,,,,,,,,,,,NaN,,,,,,,,low,high,,,,,,,false,,,,,false,1342704.5,1342704.2999999998,,1342703.7,,1342647.8,5,600,,
break_continue,html.Screen,10_28_2,2024-03-05T20:43:01.649Z,,,,,,,,,,,NaN,,,,,,,,low,high,,,,,,,false,,,,,false,1342705.5999999999,1342705.0999999999,,1342704.7,,1342647.8,5,600,,
sequence,flow.Sequence,10_28,2024-03-05T20:43:01.649Z,,,,,,,,,,,16070.699999999953,completion,,,,,,,low,high,,,,,,,false,,,,,false,1342705.7999999998,1342705.0999999999,1326617.5,1326708.0999999999,1326634.4,1342647.8,5,600,,
trial,html.Screen,10_29_0,2024-03-05T20:43:11.349Z,,,,1,-0.0388334549081915,0.0303399972963369,,0.04,false,ll,9758.09999999986,response,-1.219634566983089,0.9990098424551638,-1.1396504659828313,-1.0648460966097275,1.1629653112503493,-1.1364801511872806,low,low,,ISIC_4961708.JPG,8,ISIC_0030552.JPG,28,31,false,0.1,hl,keypress(j),0,false,1352406.4,1352405.9,1342631.3,1342706.0999999999,1342647.8,1352322.4,5,600,30,
break,html.Screen,10_29_1,2024-03-05T20:43:11.351Z,,,,,,,,,,,NaN,,,,,,,,low,low,,,,,,,false,,,,,false,1352407.5999999999,1352407.2999999998,,1352406.7,,1352322.4,5,600,,
break_continue,html.Screen,10_29_2,2024-03-05T20:43:11.352Z,,,,,,,,,,,NaN,,,,,,,,low,low,,,,,,,false,,,,,false,1352408.7,1352408.2,,1352407.9,,1352322.4,5,600,,
sequence,flow.Sequence,10_29,2024-03-05T20:43:11.352Z,,,,,,,,,,,9760.399999999907,completion,,,,,,,low,low,,,,,,,false,,,,,false,1352409,1352408.2,1342631.3,1342706,1342647.8,1352322.4,5,600,,
trial,html.Screen,10_30_0,2024-03-05T20:43:13.318Z,,,,1,-0.0374659946425444,-0.0086043094957617,,0.04,true,hh,2051.899999999907,response,1.033832433609739,0.9990098424551638,-1.1396504659828313,1.139863018685685,1.1629653112503493,-1.1364801511872806,high,high,,ISIC_0033051.JPG,9,ISIC_0008510.JPG,28,28,false,0.13,hh,keypress(i),0,false,1354374.7,1354374.2999999998,1352314.952,1352409.0999999999,1352322.4,1354307.2,5,600,31,
break,html.Screen,10_30_1,2024-03-05T20:43:13.319Z,,,,,,,,,,,NaN,,,,,,,,high,high,,,,,,,false,,,,,false,1354376,1354375.5999999999,,1354375,,1354307.2,5,600,,
break_continue,html.Screen,10_30_2,2024-03-05T20:43:13.320Z,,,,,,,,,,,NaN,,,,,,,,high,high,,,,,,,false,,,,,false,1354376.7999999998,1354376.4,,1354376.2,,1354307.2,5,600,,
sequence,flow.Sequence,10_30,2024-03-05T20:43:13.320Z,,,,,,,,,,,2054,completion,,,,,,,high,high,,,,,,,false,,,,,false,1354377.0999999999,1354376.4,1352314.952,1352409.0999999999,1352322.4,1354307.2,5,600,,
trial,html.Screen,10_31_0,2024-03-05T20:43:21.638Z,,,,1,0.0367744112927588,0.0324865661712824,,0.04,false,lh,8387.399999999907,response,-1.0116417541846066,0.9990098424551638,-1.1396504659828313,1.033442916947398,1.1629653112503493,-1.1364801511872806,low,high,,ISIC_4523565.JPG,10,ISIC_0031389.JPG,28,25,false,0.3500000000000002,ll,keypress(f),0,false,1362694.9,1362694.5999999999,1354306.484,1354377.2999999998,1354307.2,1362614.1,5,600,32,
break,html.Screen,10_31_1,2024-03-05T20:43:21.639Z,,,,,,,,,,,NaN,,,,,,,,low,high,,,,,,,false,,,,,false,1362696.4,1362695.9,,1362695.2999999998,,1362614.1,5,600,,
break_continue,html.Screen,10_31_2,2024-03-05T20:43:21.641Z,,,,,,,,,,,NaN,,,,,,,,low,high,,,,,,,false,,,,,false,1362697.5,1362697.0999999999,,1362696.5999999999,,1362614.1,5,600,,
sequence,flow.Sequence,10_31,2024-03-05T20:43:21.641Z,,,,,,,,,,,8389.899999999907,completion,,,,,,,low,high,,,,,,,false,,,,,false,1362697.7999999998,1362697.0999999999,1354306.484,1354377.2999999998,1354307.2,1362614.1,5,600,,
trial,html.Screen,10_32_0,2024-03-05T20:43:26.150Z,,,,1,0.0283578106329894,-0.0088840758711548,,0.04,true,ll,4592.899999999907,response,-1.2033647433750492,0.9990098424551638,-1.1396504659828313,-1.0718012192341555,1.1629653112503493,-1.1364801511872806,low,low,,ISIC_0060707.JPG,9,ISIC_0061606.JPG,28,31,false,0.1,ll,keypress(f),0,false,1367207.5,1367207,1362614.088,1362698,1362614.1,1367134.6,5,600,33,
break,html.Screen,10_32_1,2024-03-05T20:43:26.152Z,,,,,,,,,,,NaN,,,,,,,,low,low,,,,,,,false,,,,,false,1367208.9,1367208.5,,1367207.7999999998,,1367134.6,5,600,,
break_continue,html.Screen,10_32_2,2024-03-05T20:43:26.153Z,,,,,,,,,,,NaN,,,,,,,,low,low,,,,,,,false,,,,,false,1367210,1367209.5,,1367209.0999999999,,1367134.6,5,600,,
sequence,flow.Sequence,10_32,2024-03-05T20:43:26.153Z,,,,,,,,,,,4595.399999999907,completion,,,,,,,low,low,,,,,,,false,,,,,false,1367210.2999999998,1367209.5,1362614.088,1362698,1362614.1,1367134.6,5,600,,
trial,html.Screen,10_33_0,2024-03-05T20:43:30.550Z,,,,1,0.0367706518941078,-0.0161069838272154,,0.04,false,ll,4471.999999999767,response,-1.0581711446393522,0.9990098424551638,-1.1396504659828313,-1.1376053597134304,1.1629653112503493,-1.1364801511872806,low,low,,ISIC_0033419.JPG,9,ISIC_0014987.JPG,28,31,false,0.1,hl,keypress(j),0,false,1371607,1371606.5999999999,1367118,1367210.5,1367134.6,1371538.8,5,600,34,
break,html.Screen,10_33_1,2024-03-05T20:43:30.552Z,,,,,,,,,,,NaN,,,,,,,,low,low,,,,,,,false,,,,,false,1371608.7,1371608,,1371607.4,,1371538.8,5,600,,
break_continue,html.Screen,10_33_2,2024-03-05T20:43:30.553Z,,,,,,,,,,,NaN,,,,,,,,low,low,,,,,,,false,,,,,false,1371609.7999999998,1371609.2,,1371608.9,,1371538.8,5,600,,
sequence,flow.Sequence,10_33,2024-03-05T20:43:30.553Z,,,,,,,,,,,4474.59999999986,completion,,,,,,,low,low,,,,,,,false,,,,,false,1371610.0999999999,1371609.2,1367118,1367210.4,1367134.6,1371538.8,5,600,,
trial,html.Screen,10_34_0,2024-03-05T20:43:33.253Z,,,,1,-0.039520186367207,-0.0377961575607372,,0.04,true,ll,2770.6999999999534,response,-1.071312313440387,0.9990098424551638,-1.1396504659828313,-1.0935391476164529,1.1629653112503493,-1.1364801511872806,low,low,,ISIC_6356149.JPG,9,ISIC_0063680.JPG,28,31,false,0.1,ll,keypress(f),0,false,1374309.9,1374309.5,1371518.798,1371610.2999999998,1371538.8,1374241,5,600,35,
break,html.Screen,10_34_1,2024-03-05T20:43:33.254Z,,,,,,,,,,,NaN,,,,,,,,low,low,,,,,,,false,,,,,false,1374311,1374310.7,,1374310.2,,1374241,5,600,,
break_continue,html.Screen,10_34_2,2024-03-05T20:43:33.255Z,,,,,,,,,,,NaN,,,,,,,,low,low,,,,,,,false,,,,,false,1374311.7999999998,1374311.4,,1374311.2,,1374241,5,600,,
sequence,flow.Sequence,10_34,2024-03-05T20:43:33.255Z,,,,,,,,,,,2772.5999999998603,completion,,,,,,,low,low,,,,,,,false,,,,,false,1374312.0999999999,1374311.4,1371518.798,1371610.2,1371538.8,1374241,5,600,,
trial,html.Screen,10_35_0,2024-03-05T20:43:35.398Z,,,,1,-0.0388334549081915,0.0303399972963369,,0.04,false,lh,2213.2999999998137,response,-0.90812608370647,0.9990098424551638,-1.1396504659828313,1.2720026872926935,1.1629653112503493,-1.1364801511872806,low,high,,ISIC_4961708.JPG,9,ISIC_0450295.JPG,28,25,false,0.3500000000000002,hh,keypress(i),0,false,1376454.7,1376454.2999999998,1374239.268,1374312.2,1374241,1376375.4,5,600,36,
break,html.Screen,10_35_1,2024-03-05T20:43:35.399Z,,,,,,,,,,,NaN,,,,,,,,low,high,,,,,,,false,,,,,false,1376456.0999999999,1376455.7,,1376455.0999999999,,1376375.4,5,600,,
break_continue,html.Screen,10_35_2,2024-03-05T20:43:35.400Z,,,,,,,,,,,NaN,,,,,,,,low,high,,,,,,,false,,,,,false,1376457.0999999999,1376456.7,,1376456.2999999998,,1376375.4,5,600,,
sequence,flow.Sequence,10_35,2024-03-05T20:43:35.400Z,,,,,,,,,,,2215.6999999999534,completion,,,,,,,low,high,,,,,,,false,,,,,false,1376457.4,1376456.7,1374239.268,1374312.2,1374241,1376375.4,5,600,,
trial,html.Screen,10_36_0,2024-03-05T20:43:38.535Z,,,,1,-0.0388334549081915,0.0303399972963369,,0.04,false,hl,3215.899999999907,response,0.8513427412482127,0.9990098424551638,-1.1396504659828313,-0.9295303568095064,1.1629653112503493,-1.1364801511872806,high,low,,ISIC_4961708.JPG,9,ISIC_0034164.JPG,28,25,false,0.31000000000000016,ll,keypress(f),0,false,1379591.5999999999,1379591.2999999998,1376374.688,1376457.5999999999,1376375.4,1379511.4,5,600,37,
break,html.Screen,10_36_1,2024-03-05T20:43:38.536Z,,,,,,,,,,,NaN,,,,,,,,high,low,,,,,,,false,,,,,false,1379593.2,1379592.7999999998,,1379592.2,,1379511.4,5,600,,
break_continue,html.Screen,10_36_2,2024-03-05T20:43:38.537Z,,,,,,,,,,,NaN,,,,,,,,high,low,,,,,,,false,,,,,false,1379594.4,1379594,,1379593.5,,1379511.4,5,600,,
sequence,flow.Sequence,10_36,2024-03-05T20:43:38.538Z,,,,,,,,,,,3218.600000000093,completion,,,,,,,high,low,,,,,,,false,,,,,false,1379594.7999999998,1379594,1376374.688,1376457.5,1376375.4,1379511.4,5,600,,
trial,html.Screen,10_37_0,2024-03-05T20:43:40.517Z,,,,1,0.0118382036798625,0.0300588245877227,,0.04,false,lh,2062.3000000000466,response,-0.9544693251394116,0.9990098424551638,-1.1396504659828313,1.0727539917203766,1.1629653112503493,-1.1364801511872806,low,high,,ISIC_4748605.JPG,9,ISIC_0055147.JPG,28,25,false,0.3500000000000002,ll,keypress(f),0,false,1381574,1381573.7,1379509.772,1379595,1379511.4,1381513.3,5,600,38,
break,html.Screen,10_37_1,2024-03-05T20:43:40.518Z,,,,,,,,,,,NaN,,,,,,,,low,high,,,,,,,false,,,,,false,1381575.0999999999,1381574.9,,1381574.2999999998,,1381513.3,5,600,,
break_continue,html.Screen,10_37_2,2024-03-05T20:43:40.519Z,,,,,,,,,,,NaN,,,,,,,,low,high,,,,,,,false,,,,,false,1381575.9,1381575.5999999999,,1381575.2999999998,,1381513.3,5,600,,
sequence,flow.Sequence,10_37,2024-03-05T20:43:40.519Z,,,,,,,,,,,2064.1999999999534,completion,,,,,,,low,high,,,,,,,false,,,,,false,1381576.2,1381575.5999999999,1379509.772,1379595,1379511.4,1381513.3,5,600,,
trial,html.Screen,10_38_0,2024-03-05T20:43:46.278Z,,,,1,-0.0109416414475118,-0.005246498750811,,0.04,false,ll,5820.999999999767,response,-1.0605529903237636,0.9990098424551638,-1.1396504659828313,-1.1183115777058938,1.1629653112503493,-1.1364801511872806,low,low,,ISIC_0064279.JPG,9,ISIC_0011365.JPG,28,31,false,0.1,lh,keypress(e),0,false,1387334.7,1387334.2999999998,1381496.6,1381576.2,1381513.3,1387267.7,5,600,39,
break,html.Screen,10_38_1,2024-03-05T20:43:46.279Z,,,,,,,,,,,NaN,,,,,,,,low,low,,,,,,,false,,,,,false,1387336.2,1387335.7,,1387335.0999999999,,1387267.7,5,600,,
break_continue,html.Screen,10_38_2,2024-03-05T20:43:46.280Z,,,,,,,,,,,NaN,,,,,,,,low,low,,,,,,,false,,,,,false,1387337.2999999998,1387336.7999999998,,1387336.4,,1387267.7,5,600,,
sequence,flow.Sequence,10_38,2024-03-05T20:43:46.280Z,,,,,,,,,,,5823.499999999767,completion,,,,,,,low,low,,,,,,,false,,,,,false,1387337.5999999999,1387336.7999999998,1381496.6,1381576.2,1381513.3,1387267.7,5,600,,
trial,html.Screen,10_39_0,2024-03-05T20:43:57.064Z,,,,1,0.0258224118104549,-0.0029364553353019,,0.04,true,lh,10852.699999999953,response,-1.2646773654288392,0.9990098424551638,-1.1396504659828313,0.952963803634235,1.1629653112503493,-1.1364801511872806,low,high,,ISIC_8325226.JPG,8,ISIC_1996356.JPG,28,25,false,0.3500000000000002,lh,keypress(e),0,false,1398120.9,1398120.4,1387267.23,1387337.7999999998,1387267.7,1398043.4,5,600,40,
break,html.Screen,10_39_1,2024-03-05T20:43:57.065Z,,,,,,,,,,,NaN,,,,,,,,low,high,,,,,,,false,,,,,false,1398122.2999999998,1398121.9,,1398121.2999999998,,1398043.4,5,600,,
break_continue,html.Screen,10_39_2,2024-03-05T20:43:57.066Z,,,,,,,,,,,NaN,,,,,,,,low,high,,,,,,,false,,,,,false,1398123.4,1398123,,1398122.5999999999,,1398043.4,5,600,,
sequence,flow.Sequence,10_39,2024-03-05T20:43:57.067Z,,,,,,,,,,,10855.300000000047,completion,,,,,,,low,high,,,,,,,false,,,,,false,1398123.7,1398123,1387267.23,1387337.7,1387267.7,1398043.4,5,600,,
trial,html.Screen,10_40_0,2024-03-05T20:43:59.462Z,,,,1,-0.0388334549081915,0.0303399972963369,,0.04,true,hh,2475.399999999907,response,0.9691635021928308,0.9990098424551638,-1.1396504659828313,1.0761216763182415,1.1629653112503493,-1.1364801511872806,high,high,,ISIC_4961708.JPG,9,ISIC_8169564.JPG,28,28,false,0.13,hh,keypress(i),0,false,1400519.0999999999,1400518.7999999998,1398042.968,1398124,1398043.4,1400445.3,5,600,41,
break,html.Screen,10_40_1,2024-03-05T20:43:59.464Z,,,,,,,,,,,NaN,,,,,,,,high,high,,,,,,,false,,,,,false,1400520.9,1400520.2,,1400519.5,,1400445.3,5,600,,
break_continue,html.Screen,10_40_2,2024-03-05T20:43:59.465Z,,,,,,,,,,,NaN,,,,,,,,high,high,,,,,,,false,,,,,false,1400522,1400521.5,,1400521.0999999999,,1400445.3,5,600,,
sequence,flow.Sequence,10_40,2024-03-05T20:43:59.465Z,,,,,,,,,,,2478.100000000093,completion,,,,,,,high,high,,,,,,,false,,,,,false,1400522.2999999998,1400521.5,1398042.968,1398123.9,1398043.4,1400445.3,5,600,,
trial,html.Screen,10_41_0,2024-03-05T20:44:01.078Z,,,,1,0.0009714874637896,-0.0174815595031679,,0.04,false,hl,1689.2999999998137,response,0.7882758084023446,0.9990098424551638,-1.1396504659828313,-0.8296405881378283,1.1629653112503493,-1.1364801511872806,high,low,,ISIC_9848743.JPG,9,ISIC_0065882.JPG,28,25,false,0.31000000000000016,hh,keypress(i),0,false,1402135,1402134.5999999999,1400444.444,1400522.5999999999,1400445.3,1402063.3,5,600,42,
break,html.Screen,10_41_1,2024-03-05T20:44:01.079Z,,,,,,,,,,,NaN,,,,,,,,high,low,,,,,,,false,,,,,false,1402136.4,1402136,,1402135.4,,1402063.3,5,600,,
break_continue,html.Screen,10_41_2,2024-03-05T20:44:01.080Z,,,,,,,,,,,NaN,,,,,,,,high,low,,,,,,,false,,,,,false,1402137.5,1402137,,1402136.7,,1402063.3,5,600,,
sequence,flow.Sequence,10_41,2024-03-05T20:44:01.081Z,,,,,,,,,,,1691.6999999999534,completion,,,,,,,high,low,,,,,,,false,,,,,false,1402137.7,1402137,1400444.444,1400522.5999999999,1400445.3,1402063.3,5,600,,
trial,html.Screen,10_42_0,2024-03-05T20:44:08.262Z,,,,1,-0.0198696495649504,0.0387952353063878,,0.04,true,lh,7254.999999999767,response,-0.8350129142228142,0.9990098424551638,-1.1396504659828313,0.8172547818270586,1.1629653112503493,-1.1364801511872806,low,high,,ISIC_6735970.JPG,8,ISIC_0301568.JPG,28,25,false,0.3500000000000002,lh,keypress(e),0,false,1409318.7,1409318.2999999998,1402063.142,1402138,1402063.3,1409235.9,5,600,43,
break,html.Screen,10_42_1,2024-03-05T20:44:08.263Z,,,,,,,,,,,NaN,,,,,,,,low,high,,,,,,,false,,,,,false,1409319.9,1409319.5,,1409318.9,,1409235.9,5,600,,
break_continue,html.Screen,10_42_2,2024-03-05T20:44:08.264Z,,,,,,,,,,,NaN,,,,,,,,low,high,,,,,,,false,,,,,false,1409320.7,1409320.2999999998,,1409320.0999999999,,1409235.9,5,600,,
sequence,flow.Sequence,10_42,2024-03-05T20:44:08.264Z,,,,,,,,,,,7256.999999999767,completion,,,,,,,low,high,,,,,,,false,,,,,false,1409321,1409320.2999999998,1402063.142,1402137.9,1402063.3,1409235.9,5,600,,
trial,html.Screen,10_43_0,2024-03-05T20:44:13.462Z,,,,1,-0.0388181790775959,0.0049623405709465,,0.04,false,hl,5282.800000000047,response,1.075512775389519,0.9990098424551638,-1.1396504659828313,-1.0454702683049502,1.1629653112503493,-1.1364801511872806,high,low,,ISIC_0061880.JPG,9,ISIC_0033603.JPG,28,25,false,0.31000000000000016,ll,keypress(f),0,false,1414519.2,1414518.7,1409235.052,1409321.0999999999,1409235.9,1414456.8,5,600,44,
break,html.Screen,10_43_1,2024-03-05T20:44:13.463Z,,,,,,,,,,,NaN,,,,,,,,high,low,,,,,,,false,,,,,false,1414520.5,1414520.0999999999,,1414519.5,,1414456.8,5,600,,
break_continue,html.Screen,10_43_2,2024-03-05T20:44:13.464Z,,,,,,,,,,,NaN,,,,,,,,high,low,,,,,,,false,,,,,false,1414521.5999999999,1414521.2,,1414520.7999999998,,1414456.8,5,600,,
sequence,flow.Sequence,10_43,2024-03-05T20:44:13.465Z,,,,,,,,,,,5285.300000000047,completion,,,,,,,high,low,,,,,,,false,,,,,false,1414521.9,1414521.2,1409235.052,1409321.0999999999,1409235.9,1414456.8,5,600,,
