sender,sender_type,sender_id,timestamp,meta,,age,blockNo,c1,c2,condition,control_tolerance,correct,correctResponse,duration,ended_on,f1,f1_high,f1_low,f2,f2_high,f2_low,feature_level1,feature_level2,gender,img_left,img_reveal,img_right,n_control_images,n_target_images,practice,range_tolerance,response,response_action,selection_duration,staircase,time_commit,time_end,time_render,time_run,time_show,time_switch,total_blocks,total_trials,trialNo,url
informed_consent,html.Screen,0,2024-03-05T20:11:44.747Z,"{""labjs_version"":""20.2.4"",""labjs_build"":{""flavor"":""development"",""commit"":""f5b4a49f956347addd546a832a3327688c2c0fef""},""location"":""https://labjs.felixhenninger.com/api/labjs_preview/index.html"",""userAgent"":""Mozilla/5.0 (Windows NT 10.0; Win64; x64) AppleWebKit/537.36 (KHTML, like Gecko) Chrome/122.0.0.0 Safari/537.36"",""platform"":""Win32"",""language"":""en-US"",""locale"":""en-US"",""timeZone"":""America/Chicago"",""timezoneOffset"":360,""screen_width"":2560,""screen_height"":1440,""scroll_width"":1265,""scroll_height"":1278,""window_innerWidth"":1265,""window_innerHeight"":1326,""devicePixelRatio"":1}",,,,,,,,,,55617.50000038147,response,,,,,,,,,,,,,,,,,consent,click button,,,56109.69999885559,56109.10000038147,474.7,593.3999996185303,491.6,56004.3,,,,{}
Demography form,html.Form,1,2024-03-05T20:11:51.674Z,,,21,,,,,,,,7032.199999999997,form submission,,,,,,,,,male,,,,,,,,,,,,63036.69999885559,63036.5,55987.662,56109.89999961853,56004.3,62926.4,,,,
Welcome,html.Screen,2,2024-03-05T20:12:27.363Z,,,,,,,"[""asym"",""bor""]",,,,35798.89999923706,response,,,,,,,,,,,,,,,,,continue,keypress(Space),,,98725.79999923706,98725.29999923706,62926.324,63036.79999923706,62926.4,98622.4,,,,
demo_instructions,html.Screen,3,2024-03-05T20:12:54.675Z,,,,,,,,,,,27415.200000381476,response,,,,,,,,,,,,,,,,,continue,keypress(Space),,,126038.10000038147,126037.60000038147,98604.5,98725.89999961853,98622.4,125927.7,,,,
trial,html.Screen,4_0_0,2024-03-05T20:13:15.989Z,,,,0,-1.185875658992962,-1.2635548590325487,,,true,hh,21424.199999618533,response,1.086647361897092,1.2,-1.2,1.1528935990320313,1.2,-1.2,high,high,,ISIC_0011703.JPG,,ISIC_3505339.JPG,,26,true,0.15000000000000002,hh,keypress(i),100,false,147352,147351.89999961853,125921.308,126038.19999885559,125927.7,147262.5,1,16,1,
sequence,flow.Sequence,4_0,2024-03-05T20:13:15.994Z,,,,,,,,,,,21424.199999618533,completion,,,,,,,high,high,,,,,,,true,,,,,false,147356.79999923706,147351.89999961853,125921.308,126038.19999885559,125927.7,147262.5,1,16,,
trial,html.Screen,4_1_0,2024-03-05T20:13:23.183Z,,,,0,-1.272699544571422,-1.12917997553565,,,true,hh,7283.199998855591,response,1.1210325063849345,1.2,-1.2,1.1498648320956202,1.2,-1.2,high,high,,ISIC_0012057.JPG,,ISIC_0032162.JPG,,26,true,0.15000000000000002,hh,keypress(i),100,false,154545.79999923706,154545.6999988556,147246.2,147356.79999923706,147262.5,154452,1,16,2,
sequence,flow.Sequence,4_1,2024-03-05T20:13:23.183Z,,,,,,,,,,,7283.199998855591,completion,,,,,,,high,high,,,,,,,true,,,,,false,154545.89999961853,154545.6999988556,147246.2,147356.79999923706,147262.5,154452,1,16,,
trial,html.Screen,4_2_0,2024-03-05T20:13:26.643Z,,,,0,-1.2322060291690602,-1.2686491386389651,,,true,hh,3554,response,1.2724584600905462,1.2,-1.2,1.1411016103695344,1.2,-1.2,high,high,,ISIC_0011697.JPG,,ISIC_0059625.JPG,,26,true,0.15000000000000002,hh,keypress(i),100,false,158006.29999923706,158006,154435.3,154546,154452,157905.7,1,16,3,
sequence,flow.Sequence,4_2,2024-03-05T20:13:26.643Z,,,,,,,,,,,3554,completion,,,,,,,high,high,,,,,,,true,,,,,false,158006.5,158006,154435.3,154546,154452,157905.7,1,16,,
trial,html.Screen,4_3_0,2024-03-05T20:13:31.113Z,,,,0,-1.2249552940807693,-1.1723015116910682,,,true,hh,4569.999998855579,response,1.2024083555600384,1.2,-1.2,1.149077673153018,1.2,-1.2,high,high,,ISIC_0055251.JPG,,ISIC_3566243.JPG,,26,true,0.15000000000000002,hh,keypress(i),100,false,162476,162475.6999988556,157889.1,158006.60000038147,157905.7,162375.3,1,16,4,
sequence,flow.Sequence,4_3,2024-03-05T20:13:31.115Z,,,,,,,,,,,4569.999998855579,completion,,,,,,,high,high,,,,,,,true,,,,,false,162478.5,162475.6999988556,157889.1,158006.60000038147,157905.7,162375.3,1,16,,
trial,html.Screen,4_4_0,2024-03-05T20:13:35.601Z,,,,0,1.0717785279820962,1.1267239445830604,,,false,ll,4588.3999988556025,response,-1.126264390089724,1.2,-1.2,-1.271896565050952,1.2,-1.2,low,low,,ISIC_9948815.JPG,,ISIC_1520897.JPG,,30,true,0.1,lh,keypress(e),100,false,166964.29999923706,166963.6999988556,162358.998,162478.6999988556,162375.3,166863.1,1,16,5,
sequence,flow.Sequence,4_4,2024-03-05T20:13:35.602Z,,,,,,,,,,,4588.3999988556025,completion,,,,,,,low,low,,,,,,,true,,,,,false,166965,166963.6999988556,162358.998,162478.60000038147,162375.3,166863.1,1,16,,
trial,html.Screen,4_5_0,2024-03-05T20:13:38.908Z,,,,0,1.0959058628476686,1.1684835186766898,,,false,ll,3407.899999999994,response,-1.1877026569952844,1.2,-1.2,-1.1604367569896263,1.2,-1.2,low,low,,ISIC_5920470.JPG,,ISIC_0064589.JPG,,53,true,0.15000000000000002,lh,keypress(e),100,false,170271.1999988556,170271,166846.764,166965.39999961853,166863.1,170181.6,1,16,6,
sequence,flow.Sequence,4_5,2024-03-05T20:13:38.908Z,,,,,,,,,,,3407.899999999994,completion,,,,,,,low,low,,,,,,,true,,,,,false,170271.1999988556,170271,166846.764,166965.1999988556,166863.1,170181.6,1,16,,
trial,html.Screen,4_6_0,2024-03-05T20:13:41.217Z,,,,0,1.1388430156686884,1.2700552354887775,,,false,ll,2397.7999996185245,response,-1.2750452296609045,1.2,-1.2,-1.1682369131232675,1.2,-1.2,low,low,,ISIC_9939653.JPG,,ISIC_0066399.JPG,,53,true,0.15000000000000002,lh,keypress(e),100,false,172579.60000038147,172579.39999961853,170164.766,170271.29999923706,170181.6,172483.3,1,16,7,
sequence,flow.Sequence,4_6,2024-03-05T20:13:41.217Z,,,,,,,,,,,2397.7999996185245,completion,,,,,,,low,low,,,,,,,true,,,,,false,172579.79999923706,172579.39999961853,170164.766,170271.29999923706,170181.6,172483.3,1,16,,
trial,html.Screen,4_7_0,2024-03-05T20:13:43.782Z,,,,0,1.2711018615747949,1.1042234044781618,,,false,ll,2661.599999618542,response,-1.2169050727663315,1.2,-1.2,-1.1067845563421794,1.2,-1.2,low,low,,ISIC_8603734.JPG,,ISIC_7016261.JPG,,53,true,0.15000000000000002,lh,keypress(e),100,false,175145,175144.89999961853,172467.2,172579.89999961853,172483.3,175052.3,1,16,8,
sequence,flow.Sequence,4_7,2024-03-05T20:13:43.782Z,,,,,,,,,,,2661.599999618542,completion,,,,,,,low,low,,,,,,,true,,,,,false,175145.29999923706,175144.89999961853,172467.2,172579.89999961853,172483.3,175052.3,1,16,,
trial,html.Screen,4_8_0,2024-03-05T20:13:45.772Z,,,,0,0.8487429103619056,-0.9778257804233036,,,true,lh,2082.999999237072,response,-0.9388660854518424,1.2,-1.2,0.79533948698576,1.2,-1.2,low,high,,ISIC_4554863.JPG,,ISIC_9291926.JPG,,27,true,0.42000000000000026,lh,keypress(e),100,false,177135.5,177135.29999923706,175036.266,175145.29999923706,175052.3,177037.9,1,16,9,
sequence,flow.Sequence,4_8,2024-03-05T20:13:45.773Z,,,,,,,,,,,2082.999999237072,completion,,,,,,,low,high,,,,,,,true,,,,,false,177135.60000038147,177135.29999923706,175036.266,175145.29999923706,175052.3,177037.9,1,16,,
trial,html.Screen,4_9_0,2024-03-05T20:13:47.530Z,,,,0,1.2364994561934892,-0.9174173651516624,,,false,lh,1854.7000003814755,response,-0.9235571765207048,1.2,-1.2,1.0008081653938232,1.2,-1.2,low,high,,ISIC_3481133.JPG,,ISIC_8796632.JPG,,27,true,0.42000000000000026,hh,keypress(i),100,false,178892.89999961853,178892.60000038147,177021.266,177135.6999988556,177037.9,178806.5,1,16,10,
sequence,flow.Sequence,4_9,2024-03-05T20:13:47.531Z,,,,,,,,,,,1854.7000003814755,completion,,,,,,,low,high,,,,,,,true,,,,,false,178893.60000038147,178892.60000038147,177021.266,177135.6999988556,177037.9,178806.5,1,16,,
trial,html.Screen,4_10_0,2024-03-05T20:13:54.509Z,,,,0,1.1181734135756094,-0.944560381774994,,,true,lh,7065.699998855591,response,-0.9235571765207048,1.2,-1.2,1.0008081653938232,1.2,-1.2,low,high,,ISIC_9688534.JPG,,ISIC_8796632.JPG,,27,true,0.42000000000000026,lh,keypress(e),100,false,185872.39999961853,185872.1999988556,178789.864,178893.79999923706,178806.5,185778.6,1,16,11,
sequence,flow.Sequence,4_10,2024-03-05T20:13:54.510Z,,,,,,,,,,,7065.699998855591,completion,,,,,,,low,high,,,,,,,true,,,,,false,185872.60000038147,185872.1999988556,178789.864,178893.6999988556,178806.5,185778.6,1,16,,
trial,html.Screen,4_11_0,2024-03-05T20:13:56.381Z,,,,0,1.0751036484083878,-1.143906455483852,,,true,lh,1964.099998855585,response,-0.7871162143493278,1.2,-1.2,0.8429329800778957,1.2,-1.2,low,high,,ISIC_0064406.JPG,,ISIC_3439215.JPG,,27,true,0.42000000000000026,lh,keypress(e),100,false,187742.79999923706,187742.6999988556,185762.198,185872.6999988556,185778.6,187646.1,1,16,12,
sequence,flow.Sequence,4_11,2024-03-05T20:13:56.381Z,,,,,,,,,,,1964.099998855585,completion,,,,,,,low,high,,,,,,,true,,,,,false,187743,187742.6999988556,185762.198,185872.6999988556,185778.6,187646.1,1,16,,
trial,html.Screen,4_12_0,2024-03-05T20:14:04.329Z,,,,0,-0.8655167308525522,0.9298580423306444,,,true,hl,8044.599998855585,response,0.8579451262594331,1.2,-1.2,-0.9633172970727744,1.2,-1.2,high,low,,ISIC_4603706.JPG,,ISIC_0067172.JPG,,26,true,0.3600000000000002,hl,keypress(j),100,false,195690.89999961853,195690.6999988556,187629.866,187743.10000038147,187646.1,195602.2,1,16,13,
sequence,flow.Sequence,4_12,2024-03-05T20:14:04.329Z,,,,,,,,,,,8044.599998855585,completion,,,,,,,high,low,,,,,,,true,,,,,false,195691,195690.6999988556,187629.866,187743.10000038147,187646.1,195602.2,1,16,,
trial,html.Screen,4_13_0,2024-03-05T20:14:06.369Z,,,,0,-0.8035152873995188,0.82868450251632,,,true,hl,2129.400000381458,response,0.8579451262594331,1.2,-1.2,-0.9633172970727744,1.2,-1.2,high,low,,ISIC_0010671.JPG,,ISIC_0067172.JPG,,33,true,0.42000000000000026,hl,keypress(j),100,false,197731.6999988556,197731.60000038147,195585.966,195691,195602.2,197637.5,1,16,14,
sequence,flow.Sequence,4_13,2024-03-05T20:14:06.370Z,,,,,,,,,,,2129.400000381458,completion,,,,,,,high,low,,,,,,,true,,,,,false,197731.89999961853,197731.60000038147,195585.966,195691,195602.2,197637.5,1,16,,
trial,html.Screen,4_14_0,2024-03-05T20:14:11.294Z,,,,0,-0.7833710010171356,0.9315588090336896,,,true,hl,5018.699998855591,response,1.011737552725394,1.2,-1.2,-0.8500530224490773,1.2,-1.2,high,low,,ISIC_3826102.JPG,,ISIC_2998367.JPG,,33,true,0.42000000000000026,hl,keypress(j),100,false,202656.39999961853,202656.1999988556,197620.966,197731.89999961853,197637.5,202558.1,1,16,15,
sequence,flow.Sequence,4_14,2024-03-05T20:14:11.294Z,,,,,,,,,,,5018.699998855591,completion,,,,,,,high,low,,,,,,,true,,,,,false,202656.60000038147,202656.1999988556,197620.966,197731.89999961853,197637.5,202558.1,1,16,,
trial,html.Screen,4_15_0,2024-03-05T20:14:15.978Z,,,,0,-0.8623414234919863,0.782830143980698,,,true,hl,4781.599998855585,response,0.7836356408583546,1.2,-1.2,-1.1197925594706428,1.2,-1.2,high,low,,ISIC_2727016.JPG,,ISIC_0024961.JPG,,33,true,0.42000000000000026,hl,keypress(j),100,false,207339.79999923706,207339.6999988556,202541.866,202656.6999988556,202558.1,207245.5,1,16,16,
sequence,flow.Sequence,4_15,2024-03-05T20:14:15.978Z,,,,,,,,,,,4781.599998855585,completion,,,,,,,high,low,,,,,,,true,,,,,false,207340.10000038147,207339.6999988556,202541.866,202656.60000038147,202558.1,207245.5,1,16,,
demonstration_loop,flow.Loop,4,2024-03-05T20:14:15.978Z,,,,,,,,,,,81411.9999988556,completion,,,,,,,,,,,,,,,true,,,,,false,207340.10000038147,207339.6999988556,125921.308,126038.19999885559,125927.7,207245.5,1,16,,
practice_instructions,html.Screen,5,2024-03-05T20:14:19.044Z,,,,,,,,,,,3160.3999996185303,response,,,,,,,,,,,,,,,,,continue,keypress(Space),,,210406.5,210405.89999961853,207228.932,207340.1999988556,207245.5,210297.6,,,,
trial,html.Screen,6_0_0,2024-03-05T20:14:31.231Z,,,,1,-0.8092423703106274,1.1870093485714288,,,false,hl,12291.199999237055,response,0.8979276789594874,1.2,-1.2,-0.925374811016654,1.2,-1.2,high,low,,ISIC_8592235.JPG,,ISIC_4208361.JPG,,26,true,0.3600000000000002,lh,keypress(e),0,false,222593.39999961853,222588.79999923706,210295.378,210406.79999923706,210297.6,222491.3,1,40,1,
sequence,flow.Sequence,6_0,2024-03-05T20:14:31.231Z,,,,,,,,,,,12291.199999237055,completion,,,,,,,high,low,,,,,,,true,,,,,false,222593.5,222588.79999923706,210295.378,210406.79999923706,210297.6,222491.3,1,40,,
trial,html.Screen,6_1_0,2024-03-05T20:14:35.828Z,,,,1,-1.242586748440878,-1.1207933200172129,,,true,hh,4699.200000000012,response,1.0859458972647518,1.2,-1.2,0.9241823104580792,1.2,-1.2,high,high,,ISIC_0013073.JPG,,ISIC_0011721.JPG,,253,true,0.42000000000000026,hh,keypress(i),0,false,227190.6999988556,227190.5,222474.2,222593.5,222491.3,227078,1,40,2,
sequence,flow.Sequence,6_1,2024-03-05T20:14:35.829Z,,,,,,,,,,,4699.200000000012,completion,,,,,,,high,high,,,,,,,true,,,,,false,227190.79999923706,227190.5,222474.2,222593.5,222491.3,227078,1,40,,
trial,html.Screen,6_2_0,2024-03-05T20:14:38.662Z,,,,1,-1.101214461533281,-1.1849883512428183,,,true,hh,2945.699998855591,response,1.2318069697449794,1.2,-1.2,1.1703576816778267,1.2,-1.2,high,high,,ISIC_0064943.JPG,,ISIC_2732573.JPG,,26,true,0.15000000000000002,hh,keypress(i),0,false,230024.10000038147,230023.6999988556,227061.7,227190.79999923706,227078,229931.3,1,40,3,
sequence,flow.Sequence,6_2,2024-03-05T20:14:38.662Z,,,,,,,,,,,2945.699998855591,completion,,,,,,,high,high,,,,,,,true,,,,,false,230024.6999988556,230023.6999988556,227061.7,227190.79999923706,227078,229931.3,1,40,,
trial,html.Screen,6_3_0,2024-03-05T20:14:44.885Z,,,,1,0.9579209317488,-1.0147487101263497,,,false,lh,6315.599999618542,response,-1.0264463986917702,1.2,-1.2,1.2804054832904397,1.2,-1.2,low,high,,ISIC_8124482.JPG,,ISIC_7889838.JPG,,27,true,0.42000000000000026,hh,keypress(i),0,false,236246.89999961853,236246.89999961853,229929.926,230025,229931.3,236135.5,1,40,4,
sequence,flow.Sequence,6_3,2024-03-05T20:14:44.885Z,,,,,,,,,,,6315.599999618542,completion,,,,,,,low,high,,,,,,,true,,,,,false,236247,236246.89999961853,229929.926,230024.79999923706,229931.3,236135.5,1,40,,
trial,html.Screen,6_4_0,2024-03-05T20:14:58.983Z,,,,1,-0.948927472020595,1.0660437155921598,,,false,hl,14208.79999923706,response,1.0026266089287914,1.2,-1.2,-1.0913275913920335,1.2,-1.2,high,low,,ISIC_5808758.JPG,,ISIC_0033520.JPG,,26,true,0.3600000000000002,lh,keypress(e),0,false,250344.6999988556,250344.29999923706,236131.826,236247,236135.5,250248,1,40,5,
sequence,flow.Sequence,6_4,2024-03-05T20:14:58.983Z,,,,,,,,,,,14208.79999923706,completion,,,,,,,high,low,,,,,,,true,,,,,false,250345.29999923706,250344.29999923706,236131.826,236247,236135.5,250248,1,40,,
trial,html.Screen,6_5_0,2024-03-05T20:15:07.078Z,,,,1,-0.8655167308525522,0.9298580423306444,,,false,hl,8192.19999885559,response,0.8179805381029407,1.2,-1.2,-0.8578467162767749,1.2,-1.2,high,low,,ISIC_4603706.JPG,,ISIC_0067253.JPG,,33,true,0.42000000000000026,ll,keypress(f),0,false,258440.60000038147,258440.1999988556,250237.276,250345.60000038147,250248,258338.2,1,40,6,
sequence,flow.Sequence,6_5,2024-03-05T20:15:07.079Z,,,,,,,,,,,8192.19999885559,completion,,,,,,,high,low,,,,,,,true,,,,,false,258441.10000038147,258440.1999988556,250237.276,250345.5,250248,258338.2,1,40,,
trial,html.Screen,6_6_0,2024-03-05T20:15:12.309Z,,,,1,1.0026266089287914,-1.0913275913920335,,,false,lh,5332.599999237049,response,-1.0115965332688306,1.2,-1.2,0.8282633603842442,1.2,-1.2,low,high,,ISIC_0033520.JPG,,ISIC_1069587.JPG,,27,true,0.42000000000000026,ll,keypress(f),0,false,263671,263670.79999923706,258332.45,258441.29999923706,258338.2,263558.4,1,40,7,
sequence,flow.Sequence,6_6,2024-03-05T20:15:12.309Z,,,,,,,,,,,5332.599999237049,completion,,,,,,,low,high,,,,,,,true,,,,,false,263671.39999961853,263670.79999923706,258332.45,258441.1999988556,258338.2,263558.4,1,40,,
trial,html.Screen,6_7_0,2024-03-05T20:15:15.731Z,,,,1,-1.156827121261563,-1.2544342720917778,,,true,hh,3535.2000003814464,response,1.056824784611021,1.2,-1.2,0.8736902702135552,1.2,-1.2,high,high,,ISIC_0060397.JPG,,ISIC_0014026.JPG,,179,true,0.3600000000000002,hh,keypress(i),0,false,267093.6999988556,267093.60000038147,263542.5,263671.60000038147,263558.4,266977.5,1,40,8,
sequence,flow.Sequence,6_7,2024-03-05T20:15:15.732Z,,,,,,,,,,,3535.2000003814464,completion,,,,,,,high,high,,,,,,,true,,,,,false,267093.6999988556,267093.60000038147,263542.5,263671.39999961853,263558.4,266977.5,1,40,,
trial,html.Screen,6_8_0,2024-03-05T20:15:21.270Z,,,,1,1.1181734135756094,-0.944560381774994,,,false,lh,5654.799999237061,response,-1.0164576835546473,1.2,-1.2,0.8120626538423016,1.2,-1.2,low,high,,ISIC_9688534.JPG,,ISIC_6002694.JPG,,27,true,0.42000000000000026,hh,keypress(i),0,false,272632.6999988556,272632.29999923706,266976.87,267093.6999988556,266977.5,272533.8,1,40,9,
sequence,flow.Sequence,6_8,2024-03-05T20:15:21.271Z,,,,,,,,,,,5654.799999237061,completion,,,,,,,low,high,,,,,,,true,,,,,false,272633.1999988556,272632.29999923706,266976.87,267093.6999988556,266977.5,272533.8,1,40,,
trial,html.Screen,6_9_0,2024-03-05T20:15:25.287Z,,,,1,-1.185875658992962,-1.2635548590325487,,,true,hh,4114.999999237072,response,0.8586909757509995,1.2,-1.2,1.0893508435831143,1.2,-1.2,high,high,,ISIC_0011703.JPG,,ISIC_0003111.JPG,,179,true,0.3600000000000002,hh,keypress(i),0,false,276649.29999923706,276648.79999923706,272511.642,272633.39999961853,272533.8,276553.1,1,40,10,
sequence,flow.Sequence,6_9,2024-03-05T20:15:25.288Z,,,,,,,,,,,4114.999999237072,completion,,,,,,,high,high,,,,,,,true,,,,,false,276649.79999923706,276648.79999923706,272511.642,272633.29999923706,272533.8,276553.1,1,40,,
trial,html.Screen,6_10_0,2024-03-05T20:15:29.924Z,,,,1,0.9433720631499012,-1.0582071940347648,,,false,lh,4732.799999618554,response,-1.0115965332688306,1.2,-1.2,0.8282633603842442,1.2,-1.2,low,high,,ISIC_4890201.JPG,,ISIC_1069587.JPG,,27,true,0.42000000000000026,ll,keypress(f),0,false,281285.89999961853,281285.89999961853,276550.712,276650.10000038147,276553.1,281172.6,1,40,11,
sequence,flow.Sequence,6_10,2024-03-05T20:15:29.924Z,,,,,,,,,,,4732.799999618554,completion,,,,,,,low,high,,,,,,,true,,,,,false,281286,281285.89999961853,276550.712,276650.10000038147,276553.1,281172.6,1,40,,
trial,html.Screen,6_11_0,2024-03-05T20:15:32.276Z,,,,1,1.131522954199764,1.1047184491749509,,,true,ll,2465.099998855614,response,-1.1775572882001233,1.2,-1.2,-0.9181044334713,1.2,-1.2,low,low,,ISIC_1868816.JPG,,ISIC_0014548.JPG,,245,true,0.3600000000000002,ll,keypress(f),0,false,283637.79999923706,283637.6999988556,281157.3,281286.10000038147,281172.6,283524.4,1,40,12,
sequence,flow.Sequence,6_11,2024-03-05T20:15:32.276Z,,,,,,,,,,,2465.099998855614,completion,,,,,,,low,low,,,,,,,true,,,,,false,283638,283637.6999988556,281157.3,281286.10000038147,281172.6,283524.4,1,40,,
trial,html.Screen,6_12_0,2024-03-05T20:15:35.189Z,,,,1,-0.8816288864119318,0.801867301188093,,,false,hl,3026.3999992370373,response,1.0026266089287914,1.2,-1.2,-1.0913275913920335,1.2,-1.2,high,low,,ISIC_9196783.JPG,,ISIC_0033520.JPG,,26,true,0.3600000000000002,hh,keypress(i),0,false,286551.10000038147,286550.79999923706,283523.346,283638,283524.4,286443.9,1,40,13,
sequence,flow.Sequence,6_12,2024-03-05T20:15:35.189Z,,,,,,,,,,,3026.3999992370373,completion,,,,,,,high,low,,,,,,,true,,,,,false,286551.39999961853,286550.79999923706,283523.346,283638,283524.4,286443.9,1,40,,
trial,html.Screen,6_13_0,2024-03-05T20:15:37.413Z,,,,1,1.131522954199764,1.1047184491749509,,,true,ll,2330.999999618507,response,-0.9545500235555924,1.2,-1.2,-1.2140255839622307,1.2,-1.2,low,low,,ISIC_1868816.JPG,,ISIC_8704257.JPG,,339,true,0.42000000000000026,ll,keypress(f),0,false,288775.10000038147,288774.89999961853,286427,286551.60000038147,286443.9,288662.718,1,40,14,
sequence,flow.Sequence,6_13,2024-03-05T20:15:37.413Z,,,,,,,,,,,2330.999999618507,completion,,,,,,,low,low,,,,,,,true,,,,,false,288775.1999988556,288774.89999961853,286427,286551.5,286443.9,288662.718,1,40,,
trial,html.Screen,6_14_0,2024-03-05T20:15:44.708Z,,,,1,-0.8947611078712571,0.8960964505004638,,,false,hl,7407.181999618537,response,0.869932994914832,1.2,-1.2,-0.8880533324432531,1.2,-1.2,high,low,,ISIC_6441128.JPG,,ISIC_8617084.JPG,,26,true,0.3600000000000002,hh,keypress(i),0,false,296069.89999961853,296069.89999961853,288662.718,288775.1999988556,288662.718,295968.6,1,40,15,
sequence,flow.Sequence,6_14,2024-03-05T20:15:44.708Z,,,,,,,,,,,7407.181999618537,completion,,,,,,,high,low,,,,,,,true,,,,,false,296070,296069.89999961853,288662.718,288775.1999988556,288662.718,295968.6,1,40,,
trial,html.Screen,6_15_0,2024-03-05T20:15:47.126Z,,,,1,1.131522954199764,1.1047184491749509,,,true,ll,2519.000000381493,response,-1.1346217981791904,1.2,-1.2,-1.1555132168806113,1.2,-1.2,low,low,,ISIC_1868816.JPG,,ISIC_0032771.JPG,,339,true,0.42000000000000026,ll,keypress(f),0,false,298487.79999923706,298487.60000038147,295951.3,296070,295968.6,298387.8,1,40,16,
sequence,flow.Sequence,6_15,2024-03-05T20:15:47.126Z,,,,,,,,,,,2519.000000381493,completion,,,,,,,low,low,,,,,,,true,,,,,false,298488.1999988556,298487.60000038147,295951.3,296070,295968.6,298387.8,1,40,,
trial,html.Screen,6_16_0,2024-03-05T20:15:51.540Z,,,,1,1.0865333402803938,-1.0542635307358266,,,false,lh,4514.200000000012,response,-1.0022829373011404,1.2,-1.2,0.8311726972863814,1.2,-1.2,low,high,,ISIC_0034006.JPG,,ISIC_0033287.JPG,,27,true,0.42000000000000026,hh,keypress(i),0,false,302902,302902,298386.476,298488.29999923706,298387.8,302790.4,1,40,17,
sequence,flow.Sequence,6_16,2024-03-05T20:15:51.540Z,,,,,,,,,,,4514.200000000012,completion,,,,,,,low,high,,,,,,,true,,,,,false,302902.10000038147,302902,298386.476,298488.29999923706,298387.8,302790.4,1,40,,
trial,html.Screen,6_17_0,2024-03-05T20:15:54.822Z,,,,1,0.991282840649944,-0.9397921099839784,,,false,lh,3393.3999992370373,response,-0.7871162143493278,1.2,-1.2,0.8429329800778957,1.2,-1.2,low,high,,ISIC_0000463.JPG,,ISIC_3439215.JPG,,27,true,0.42000000000000026,ll,keypress(f),0,false,306184.1999988556,306183.79999923706,302788.254,302902.10000038147,302790.4,306077.6,1,40,18,
sequence,flow.Sequence,6_17,2024-03-05T20:15:54.822Z,,,,,,,,,,,3393.3999992370373,completion,,,,,,,low,high,,,,,,,true,,,,,false,306184.79999923706,306183.79999923706,302788.254,302902.10000038147,302790.4,306077.6,1,40,,
trial,html.Screen,6_18_0,2024-03-05T20:15:57.094Z,,,,1,-1.2915523362516486,-1.1264977790562936,,,true,hh,2378.599998855614,response,1.0565911491759823,1.2,-1.2,1.0221582682700174,1.2,-1.2,high,high,,ISIC_0502582.JPG,,ISIC_6604862.JPG,,179,true,0.3600000000000002,hh,keypress(i),0,false,308456.5,308456.1999988556,306059.8,306184.89999961853,306077.6,308362.5,1,40,19,
sequence,flow.Sequence,6_18,2024-03-05T20:15:57.095Z,,,,,,,,,,,2378.599998855614,completion,,,,,,,high,high,,,,,,,true,,,,,false,308457.10000038147,308456.1999988556,306059.8,306184.89999961853,306077.6,308362.5,1,40,,
trial,html.Screen,6_19_0,2024-03-05T20:16:02.534Z,,,,1,-1.0264463986917702,1.2804054832904397,,,false,hl,5534,response,0.9454713230140772,1.2,-1.2,-0.9245167441969216,1.2,-1.2,high,low,,ISIC_7889838.JPG,,ISIC_9101055.JPG,,26,true,0.3600000000000002,ll,keypress(f),0,false,313897,313896.5,308361.638,308457.29999923706,308362.5,313783.4,1,40,20,
sequence,flow.Sequence,6_19,2024-03-05T20:16:02.535Z,,,,,,,,,,,5534,completion,,,,,,,high,low,,,,,,,true,,,,,false,313897.29999923706,313896.5,308361.638,308457.1999988556,308362.5,313783.4,1,40,,
trial,html.Screen,6_20_0,2024-03-05T20:16:06.486Z,,,,1,-1.247270138097585,-1.1704704713504994,,,true,hh,4064.7999988555675,response,0.964746248973834,1.2,-1.2,0.9069353065857808,1.2,-1.2,high,high,,ISIC_0065774.JPG,,ISIC_9896801.JPG,,253,true,0.42000000000000026,hh,keypress(i),0,false,317848.6999988556,317848.1999988556,313780.49,313897.29999923706,313783.4,317753.6,1,40,21,
sequence,flow.Sequence,6_20,2024-03-05T20:16:06.487Z,,,,,,,,,,,4064.7999988555675,completion,,,,,,,high,high,,,,,,,true,,,,,false,317849.1999988556,317848.1999988556,313780.49,313897.29999923706,313783.4,317753.6,1,40,,
trial,html.Screen,6_21_0,2024-03-05T20:16:10.675Z,,,,1,-1.276222161935671,0.9657780821973284,,,false,hl,4284.099998855614,response,1.2075172235545184,1.2,-1.2,-0.9116724966267612,1.2,-1.2,high,low,,ISIC_6710411.JPG,,ISIC_0024235.JPG,,26,true,0.3600000000000002,hh,keypress(i),0,false,322037.89999961853,322037.6999988556,317751.148,317849.39999961853,317753.6,321922.9,1,40,22,
sequence,flow.Sequence,6_21,2024-03-05T20:16:10.675Z,,,,,,,,,,,4284.099998855614,completion,,,,,,,high,low,,,,,,,true,,,,,false,322037.89999961853,322037.6999988556,317751.148,317849.29999923706,317753.6,321922.9,1,40,,
trial,html.Screen,6_22_0,2024-03-05T20:16:13.556Z,,,,1,-1.0164576835546473,0.8120626538423016,,,false,hl,2995.499999618507,response,1.2364994561934892,1.2,-1.2,-0.9174173651516624,1.2,-1.2,high,low,,ISIC_6002694.JPG,,ISIC_3481133.JPG,,33,true,0.42000000000000026,hh,keypress(i),0,false,324918.5,324918.39999961853,321921.574,322037.89999961853,321922.9,324808.5,1,40,23,
sequence,flow.Sequence,6_22,2024-03-05T20:16:13.556Z,,,,,,,,,,,2995.499999618507,completion,,,,,,,high,low,,,,,,,true,,,,,false,324918.5,324918.39999961853,321921.574,322037.89999961853,321922.9,324808.5,1,40,,
trial,html.Screen,6_23_0,2024-03-05T20:16:16.212Z,,,,1,-1.247270138097585,-1.1704704713504994,,,true,hh,2765.7999992370605,response,0.8689515664606163,1.2,-1.2,1.0538817435713148,1.2,-1.2,high,high,,ISIC_0065774.JPG,,ISIC_7333928.JPG,,253,true,0.42000000000000026,hh,keypress(i),0,false,327574.5,327574.29999923706,324791.9,324918.5,324808.5,327460.7,1,40,24,
sequence,flow.Sequence,6_23,2024-03-05T20:16:16.212Z,,,,,,,,,,,2765.7999992370605,completion,,,,,,,high,high,,,,,,,true,,,,,false,327574.5,327574.29999923706,324791.9,324918.5,324808.5,327460.7,1,40,,
trial,html.Screen,6_24_0,2024-03-05T20:16:22.644Z,,,,1,-0.9873794329144926,0.7991077882008257,,,true,hl,6545.499998855579,response,0.991282840649944,1.2,-1.2,-0.9397921099839784,1.2,-1.2,high,low,,ISIC_0013498.JPG,,ISIC_0000463.JPG,,26,true,0.3600000000000002,hl,keypress(j),0,false,334006.29999923706,334006.1999988556,327459.334,327574.60000038147,327460.7,333899.3,1,40,25,
sequence,flow.Sequence,6_24,2024-03-05T20:16:22.644Z,,,,,,,,,,,6545.499998855579,completion,,,,,,,high,low,,,,,,,true,,,,,false,334006.39999961853,334006.1999988556,327459.334,327574.60000038147,327460.7,333899.3,1,40,,
trial,html.Screen,6_25_0,2024-03-05T20:16:25.492Z,,,,1,1.1388430156686884,1.2700552354887775,,,true,ll,2954.8999988556025,response,-0.8471355550006346,1.2,-1.2,-0.8721011160837115,1.2,-1.2,low,low,,ISIC_9939653.JPG,,ISIC_0025744.JPG,,339,true,0.42000000000000026,ll,keypress(f),0,false,336854.29999923706,336854.1999988556,333882.5,334006.39999961853,333899.3,336751.8,1,40,26,
sequence,flow.Sequence,6_25,2024-03-05T20:16:25.492Z,,,,,,,,,,,2954.8999988556025,completion,,,,,,,low,low,,,,,,,true,,,,,false,336854.29999923706,336854.1999988556,333882.5,334006.39999961853,333899.3,336751.8,1,40,,
trial,html.Screen,6_26_0,2024-03-05T20:16:30.295Z,,,,1,-1.1164729501046406,-1.2978935747992253,,,true,hh,4904.8999988556025,response,1.2711018615747949,1.2,-1.2,1.1042234044781618,1.2,-1.2,high,high,,ISIC_0034166.JPG,,ISIC_8603734.JPG,,26,true,0.15000000000000002,hh,keypress(i),0,false,341657.1999988556,341656.6999988556,336735,336854.39999961853,336751.8,341557,1,40,27,
sequence,flow.Sequence,6_26,2024-03-05T20:16:30.295Z,,,,,,,,,,,4904.8999988556025,completion,,,,,,,high,high,,,,,,,true,,,,,false,341657.89999961853,341656.6999988556,336735,336854.29999923706,336751.8,341557,1,40,,
trial,html.Screen,6_27_0,2024-03-05T20:16:34.388Z,,,,1,-1.29026082950341,-1.144672688339213,,,true,hh,4193.60000038147,response,1.0959058628476686,1.2,-1.2,1.1684835186766898,1.2,-1.2,high,high,,ISIC_0054317.JPG,,ISIC_5920470.JPG,,26,true,0.15000000000000002,hh,keypress(i),0,false,345750.6999988556,345750.60000038147,341538.8,341658.10000038147,341557,345642.5,1,40,28,
sequence,flow.Sequence,6_27,2024-03-05T20:16:34.388Z,,,,,,,,,,,4193.60000038147,completion,,,,,,,high,high,,,,,,,true,,,,,false,345750.6999988556,345750.60000038147,341538.8,341658.10000038147,341557,345642.5,1,40,,
trial,html.Screen,6_28_0,2024-03-05T20:16:36.566Z,,,,1,-1.152619213055059,-1.1117876838408909,,,true,hh,2286.1000003814697,response,1.0959058628476686,1.2,-1.2,1.1684835186766898,1.2,-1.2,high,high,,ISIC_0061915.JPG,,ISIC_5920470.JPG,,26,true,0.15000000000000002,hh,keypress(i),0,false,347929,347928.60000038147,345627.1,345750.79999923706,345642.5,347828.5,1,40,29,
sequence,flow.Sequence,6_28,2024-03-05T20:16:36.567Z,,,,,,,,,,,2286.1000003814697,completion,,,,,,,high,high,,,,,,,true,,,,,false,347929.5,347928.60000038147,345627.1,345750.79999923706,345642.5,347828.5,1,40,,
trial,html.Screen,6_29_0,2024-03-05T20:16:39.333Z,,,,1,1.2012395086389958,1.0618985767073823,,,true,ll,2866.5,response,-1.255256820488545,1.2,-1.2,-1.1206426433062562,1.2,-1.2,low,low,,ISIC_9876004.JPG,,ISIC_0024652.JPG,,30,true,0.1,ll,keypress(f),0,false,350695,350695,347811.7,347929.6999988556,347828.5,350580.7,1,40,30,
sequence,flow.Sequence,6_29,2024-03-05T20:16:39.333Z,,,,,,,,,,,2866.5,completion,,,,,,,low,low,,,,,,,true,,,,,false,350695.10000038147,350695,347811.7,347929.6999988556,347828.5,350580.7,1,40,,
trial,html.Screen,6_30_0,2024-03-05T20:16:41.492Z,,,,1,1.2706447584800626,1.0903308007916603,,,true,ll,2273.2999999999884,response,-1.2493792664822851,1.2,-1.2,-1.1336008561684745,1.2,-1.2,low,low,,ISIC_9425937.JPG,,ISIC_0061475.JPG,,53,true,0.15000000000000002,ll,keypress(f),0,false,352854.10000038147,352854,350578.264,350695.29999923706,350580.7,352749.8,1,40,31,
sequence,flow.Sequence,6_30,2024-03-05T20:16:41.492Z,,,,,,,,,,,2273.2999999999884,completion,,,,,,,low,low,,,,,,,true,,,,,false,352854.29999923706,352854,350578.264,350695.29999923706,350580.7,352749.8,1,40,,
trial,html.Screen,6_31_0,2024-03-05T20:16:44.694Z,,,,1,1.3189473926989124,1.0770264364718942,,,true,ll,3306.2000000000116,response,-1.2181031651370575,1.2,-1.2,-1.2158573487067317,1.2,-1.2,low,low,,ISIC_6093728.JPG,,ISIC_7242312.JPG,,53,true,0.15000000000000002,ll,keypress(f),0,false,356056.29999923706,356056,352733,352854.29999923706,352749.8,355951.9,1,40,32,
sequence,flow.Sequence,6_31,2024-03-05T20:16:44.694Z,,,,,,,,,,,3306.2000000000116,completion,,,,,,,low,low,,,,,,,true,,,,,false,356056.79999923706,356056,352733,352854.29999923706,352749.8,355951.9,1,40,,
trial,html.Screen,6_32_0,2024-03-05T20:16:47.987Z,,,,1,1.2331439637486756,-0.9691143900156988,,,false,lh,3397.8999992370373,response,-1.0115965332688306,1.2,-1.2,0.8282633603842442,1.2,-1.2,low,high,,ISIC_7877488.JPG,,ISIC_1069587.JPG,,27,true,0.42000000000000026,ll,keypress(f),0,false,359349.89999961853,359349.79999923706,355950.068,356057.10000038147,355951.9,359236.6,1,40,33,
sequence,flow.Sequence,6_32,2024-03-05T20:16:47.987Z,,,,,,,,,,,3397.8999992370373,completion,,,,,,,low,high,,,,,,,true,,,,,false,359349.89999961853,359349.79999923706,355950.068,356057,355951.9,359236.6,1,40,,
trial,html.Screen,6_33_0,2024-03-05T20:16:52.774Z,,,,1,1.0858641668099058,1.1638942560200525,,,false,ll,4899.199999237084,response,-1.0698162624196283,1.2,-1.2,-1.219634566983089,1.2,-1.2,low,low,,ISIC_5439597.JPG,,ISIC_0030552.JPG,,245,true,0.3600000000000002,hl,keypress(j),0,false,364136.1999988556,364135.79999923706,359221.6,359349.89999961853,359236.6,364041.7,1,40,34,
sequence,flow.Sequence,6_33,2024-03-05T20:16:52.774Z,,,,,,,,,,,4899.199999237084,completion,,,,,,,low,low,,,,,,,true,,,,,false,364136.6999988556,364135.79999923706,359221.6,359349.89999961853,359236.6,364041.7,1,40,,
trial,html.Screen,6_34_0,2024-03-05T20:16:56.873Z,,,,1,-0.9388660854518424,0.79533948698576,,,false,hl,4398.400000381458,response,1.4747161152848791,1.2,-1.2,-0.847048591307387,1.2,-1.2,high,low,,ISIC_9291926.JPG,,ISIC_0016092.JPG,,26,true,0.3600000000000002,hh,keypress(i),0,false,368440.5,368440.10000038147,364039.048,364137,364041.7,368328.7,1,40,35,
sequence,flow.Sequence,6_34,2024-03-05T20:16:56.874Z,,,,,,,,,,,4398.400000381458,completion,,,,,,,high,low,,,,,,,true,,,,,false,368441.10000038147,368440.10000038147,364039.048,364136.89999961853,364041.7,368328.7,1,40,,
trial,html.Screen,6_35_0,2024-03-05T20:17:02.202Z,,,,1,1.0143509683988825,-1.3163955902021656,,,false,lh,5439.699999618519,response,-0.7911024675435955,1.2,-1.2,0.7975977016137676,1.2,-1.2,low,high,,ISIC_0062031.JPG,,ISIC_5813642.JPG,,27,true,0.42000000000000026,hh,keypress(i),0,false,373768.6999988556,373768.39999961853,368326.092,368441.29999923706,368328.7,373666.2,1,40,36,
sequence,flow.Sequence,6_35,2024-03-05T20:17:02.202Z,,,,,,,,,,,5439.699999618519,completion,,,,,,,low,high,,,,,,,true,,,,,false,373769.1999988556,373768.39999961853,368326.092,368441.29999923706,368328.7,373666.2,1,40,,
trial,html.Screen,6_36_0,2024-03-05T20:17:04.730Z,,,,1,1.2706447584800626,1.0903308007916603,,,true,ll,2630.099999237049,response,-1.0351900568634125,1.2,-1.2,-1.060448537312289,1.2,-1.2,low,low,,ISIC_9425937.JPG,,ISIC_4377208.JPG,,245,true,0.3600000000000002,ll,keypress(f),0,false,376296.6999988556,376296.29999923706,373650.1,373769.5,373666.2,376201.7,1,40,37,
sequence,flow.Sequence,6_36,2024-03-05T20:17:04.730Z,,,,,,,,,,,2630.099999237049,completion,,,,,,,low,low,,,,,,,true,,,,,false,376297.29999923706,376296.29999923706,373650.1,373769.5,373666.2,376201.7,1,40,,
trial,html.Screen,6_37_0,2024-03-05T20:17:08.615Z,,,,1,1.2075172235545184,-0.9116724966267612,,,false,lh,3980.099999237049,response,-0.9388660854518424,1.2,-1.2,0.79533948698576,1.2,-1.2,low,high,,ISIC_0024235.JPG,,ISIC_9291926.JPG,,27,true,0.42000000000000026,ll,keypress(f),0,false,380181.89999961853,380181.79999923706,376200.972,376297.60000038147,376201.7,380070.9,1,40,38,
sequence,flow.Sequence,6_37,2024-03-05T20:17:08.615Z,,,,,,,,,,,3980.099999237049,completion,,,,,,,low,high,,,,,,,true,,,,,false,380181.89999961853,380181.79999923706,376200.972,376297.5,376201.7,380070.9,1,40,,
trial,html.Screen,6_38_0,2024-03-05T20:17:15.386Z,,,,1,1.1210325063849345,1.1498648320956202,,,true,ll,6881.899999237037,response,-1.1682648288591504,1.2,-1.2,-1.004142980655507,1.2,-1.2,low,low,,ISIC_0032162.JPG,,ISIC_3936223.JPG,,245,true,0.3600000000000002,ll,keypress(f),0,false,386953.10000038147,386952.79999923706,380055.4,380181.89999961853,380070.9,386860.5,1,40,39,
sequence,flow.Sequence,6_38,2024-03-05T20:17:15.387Z,,,,,,,,,,,6881.899999237037,completion,,,,,,,low,low,,,,,,,true,,,,,false,386953.6999988556,386952.79999923706,380055.4,380181.89999961853,380070.9,386860.5,1,40,,
trial,html.Screen,6_39_0,2024-03-05T20:17:21.849Z,,,,1,0.8534691366511764,-1.03975580494588,,,false,lh,6555.699998855591,response,-0.7870237732709365,1.2,-1.2,0.9172955251119376,1.2,-1.2,low,high,,ISIC_0056788.JPG,,ISIC_0057716.JPG,,27,true,0.42000000000000026,hh,keypress(i),0,false,393416.60000038147,393416.1999988556,386856.202,386954,386860.5,393315.4,1,40,40,
sequence,flow.Sequence,6_39,2024-03-05T20:17:21.850Z,,,,,,,,,,,6555.699998855591,completion,,,,,,,low,high,,,,,,,true,,,,,false,393417.10000038147,393416.1999988556,386856.202,386953.89999961853,386860.5,393315.4,1,40,,
practice_loop,flow.Loop,6,2024-03-05T20:17:21.850Z,,,,,,,,,,,183118.59999885558,completion,,,,,,,,,,,,,,,true,,,,,false,393417.5,393416.1999988556,210295.378,210406.6999988556,210297.6,393315.4,1,40,,
stair_instructions,html.Screen,7,2024-03-05T20:17:29.802Z,,,,,,,,,,,8052.2999988555675,response,,,,,,,,,,,,,,,,,continue,keypress(Space),,,401368.89999961853,401367.6999988556,393298.6,393417.60000038147,393315.4,401255.8,,,,
trial,html.Screen,8_0_0,2024-03-05T20:17:38.176Z,,,,2,-0.0389988030702649,-0.0143212271490256,,0.05,true,ll,8487.200000000012,response,-1.4163985971516386,1.2,-1.2,-0.9179483069507334,1.2,-1.2,low,low,,ISIC_0064669.JPG,,ISIC_0032892.JPG,33,245,false,0.3600000000000002,ll,keypress(f),0,true,409743.10000038147,409743,401248.416,401369.39999961853,401255.8,409629.1,1,40,1,
sequence,flow.Sequence,8_0,2024-03-05T20:17:38.176Z,,,,,,,,,,,8487.200000000012,completion,,,,,,,low,low,,,,,,,false,,,,,true,409743.1999988556,409743,401248.416,401369.1999988556,401255.8,409629.1,1,40,,
trial,html.Screen,8_1_0,2024-03-05T20:17:43.992Z,,,,2,0.013431314305098,-0.0140597582944232,,0.05,false,hl,5930.199999237084,response,1.1181734135756094,1.15,-1.15,-0.944560381774994,1.15,-1.15,high,low,,ISIC_0069617.JPG,,ISIC_9688534.JPG,33,25,false,0.31000000000000016,hh,keypress(i),0,true,415559.60000038147,415559.29999923706,409623.572,409743.29999923706,409629.1,415450.7,1,40,2,
sequence,flow.Sequence,8_1,2024-03-05T20:17:43.993Z,,,,,,,,,,,5930.199999237084,completion,,,,,,,high,low,,,,,,,false,,,,,true,415559.79999923706,415559.29999923706,409623.572,409743.1999988556,409629.1,415450.7,1,40,,
trial,html.Screen,8_2_0,2024-03-05T20:17:47.434Z,,,,2,-0.007397293189458,-0.0174716772037504,,0.05,false,ll,3549.7999999999884,response,-1.101346104814838,1.15,-1.15,-1.1225813067473052,1.15,-1.15,low,low,,ISIC_0056226.JPG,,ISIC_8175453.JPG,33,27,false,0.1,hh,keypress(i),0,true,419000.79999923706,419000.5,415434.5,415559.79999923706,415450.7,418901.602,1,40,3,
sequence,flow.Sequence,8_2,2024-03-05T20:17:47.434Z,,,,,,,,,,,3549.7999999999884,completion,,,,,,,low,low,,,,,,,false,,,,,true,419001.39999961853,419000.5,415434.5,415559.79999923706,415450.7,418901.602,1,40,,
trial,html.Screen,8_3_0,2024-03-05T20:17:55.215Z,,,,2,-0.0085520978188085,0.0464691161264081,,0.05,true,hl,8124.3979999999865,response,0.869932994914832,1.15,-1.15,-0.8880533324432531,1.15,-1.15,high,low,,ISIC_0758797.JPG,,ISIC_8617084.JPG,33,25,false,0.31000000000000016,hl,keypress(j),0,true,427026.10000038147,427026,418901.602,419001.5,418901.602,426920.986,1,40,4,
sequence,flow.Sequence,8_3,2024-03-05T20:17:55.215Z,,,,,,,,,,,8124.3979999999865,completion,,,,,,,high,low,,,,,,,false,,,,,true,427026.29999923706,427026,418901.602,419001.5,418901.602,426920.986,1,40,,
trial,html.Screen,8_4_0,2024-03-05T20:18:00.070Z,,,,2,0.0112310719058792,-0.0469047359904117,,0.05,false,lh,4959.313999237085,response,-0.9235571765207048,1.0999999999999999,-1.15,1.0008081653938232,1.15,-1.15,low,high,,ISIC_0068184.JPG,,ISIC_8796632.JPG,33,27,false,0.3700000000000002,ll,keypress(f),0,true,431880.5,431880.29999923706,426920.986,427026.39999961853,426920.986,431781.4,1,40,5,
sequence,flow.Sequence,8_4,2024-03-05T20:18:00.070Z,,,,,,,,,,,4959.313999237085,completion,,,,,,,low,high,,,,,,,false,,,,,true,431881.10000038147,431880.29999923706,426920.986,427026.39999961853,426920.986,431781.4,1,40,,
trial,html.Screen,8_5_0,2024-03-05T20:18:06.294Z,,,,2,0.0113873532168551,0.0054999201556291,,0.05,true,hh,6323.399999237037,response,1.227935316040483,1.0999999999999999,-1.15,1.0211808747755002,1.15,-1.15,high,high,,ISIC_8812621.JPG,,ISIC_1211506.JPG,33,30,false,0.13,hh,keypress(i),0,true,438105.29999923706,438104.79999923706,431761.58,431881.29999923706,431781.4,438002.7,1,40,6,
sequence,flow.Sequence,8_5,2024-03-05T20:18:06.295Z,,,,,,,,,,,6323.399999237037,completion,,,,,,,high,high,,,,,,,false,,,,,true,438105.89999961853,438104.79999923706,431761.58,431881.1999988556,431781.4,438002.7,1,40,,
trial,html.Screen,8_6_0,2024-03-05T20:18:08.678Z,,,,2,-0.0450282431170921,0,,0.05,true,ll,2485.599999237049,response,-1.2254187569955004,1.0999999999999999,-1.15,-1.174555235109734,1.15,-1.15,low,low,,ISIC_1805163.JPG,,ISIC_0027187.JPG,33,27,false,0.1,ll,keypress(f),0,true,440488.6999988556,440488.29999923706,437986.1,438106.10000038147,438002.7,440388.6,1,40,7,
sequence,flow.Sequence,8_6,2024-03-05T20:18:08.678Z,,,,,,,,,,,2485.599999237049,completion,,,,,,,low,low,,,,,,,false,,,,,true,440489.1999988556,440488.29999923706,437986.1,438106,438002.7,440388.6,1,40,,
trial,html.Screen,8_7_0,2024-03-05T20:18:12.307Z,,,,2,-0.0070725527271049,-0.0049995141077508,,0.05,true,hh,3729.2999996185536,response,1.09666761087476,1.0999999999999999,-1.0999999999999999,1.1072126870290426,1.15,-1.0999999999999999,high,high,,ISIC_6124481.JPG,,ISIC_0071754.JPG,33,30,false,0.13,hh,keypress(i),0,true,444118.10000038147,444117.89999961853,440370.168,440489.39999961853,440388.6,444007.2,1,40,8,
sequence,flow.Sequence,8_7,2024-03-05T20:18:12.307Z,,,,,,,,,,,3729.2999996185536,completion,,,,,,,high,high,,,,,,,false,,,,,true,444118.1999988556,444117.89999961853,440370.168,440489.39999961853,440388.6,444007.2,1,40,,
trial,html.Screen,8_8_0,2024-03-05T20:18:15.875Z,,,,2,-0.0107854985447517,-0.0478010417136109,,0.05,true,hh,3678.599999237049,response,1.0270718265914571,1.0141967809022714,-1.0999999999999999,0.9536353804316964,1.0141967809022714,-1.0999999999999999,high,high,,ISIC_0010500.JPG,,ISIC_3431915.JPG,33,32,false,0.1,hh,keypress(i),0,true,447685.79999923706,447685.79999923706,443990.9,444118.29999923706,444007.2,447576.1,1,40,9,
sequence,flow.Sequence,8_8,2024-03-05T20:18:15.875Z,,,,,,,,,,,3678.599999237049,completion,,,,,,,high,high,,,,,,,false,,,,,true,447685.89999961853,447685.79999923706,443990.9,444118.1999988556,444007.2,447576.1,1,40,,
trial,html.Screen,8_9_0,2024-03-05T20:18:21.987Z,,,,2,0.0159061451859594,0.0296598845560212,,0.05,false,lh,6221.799999618554,response,-0.805240166523161,1.0141967809022714,-1.0999999999999999,0.705072989314616,1.0141967809022714,-1.0999999999999999,low,high,,ISIC_0072564.JPG,,ISIC_9161341.JPG,33,30,false,0.31000000000000016,ll,keypress(f),0,true,453797.89999961853,453797.89999961853,447561.1,447685.89999961853,447576.1,453681.2,1,40,10,
sequence,flow.Sequence,8_9,2024-03-05T20:18:21.987Z,,,,,,,,,,,6221.799999618554,completion,,,,,,,low,high,,,,,,,false,,,,,true,453797.89999961853,453797.89999961853,447561.1,447685.89999961853,447576.1,453681.2,1,40,,
trial,html.Screen,8_10_0,2024-03-05T20:18:25.045Z,,,,2,-0.0085520978188085,0.0464691161264081,,0.05,false,lh,3173.999998855579,response,-1.0213365328004047,1.0141967809022714,-1.0999999999999999,1.088524359911891,1.0641967809022714,-1.0999999999999999,low,high,,ISIC_0758797.JPG,,ISIC_5434229.JPG,33,29,false,0.3200000000000002,ll,keypress(f),0,true,456855.5,456855.1999988556,453676.896,453798,453681.2,456750.5,1,40,11,
sequence,flow.Sequence,8_10,2024-03-05T20:18:25.045Z,,,,,,,,,,,3173.999998855579,completion,,,,,,,low,high,,,,,,,false,,,,,true,456855.79999923706,456855.1999988556,453676.896,453798,453681.2,456750.5,1,40,,
trial,html.Screen,8_11_0,2024-03-05T20:18:27.654Z,,,,2,-0.039728379742806,0.0228701131373768,,0.05,true,hh,2714.1000003814697,response,1.1137763092539212,1.0141967809022714,-0.8632883496617828,1.1599906701455132,1.1141967809022715,-1.0999999999999999,high,high,,ISIC_0054073.JPG,,ISIC_5413788.JPG,33,33,false,0.11,hh,keypress(i),0,true,459464.89999961853,459464.60000038147,456733.8,456856,456750.5,459353.6,1,40,12,
sequence,flow.Sequence,8_11,2024-03-05T20:18:27.655Z,,,,,,,,,,,2714.1000003814697,completion,,,,,,,high,high,,,,,,,false,,,,,true,459465.5,459464.60000038147,456733.8,456855.89999961853,456750.5,459353.6,1,40,,
trial,html.Screen,8_12_0,2024-03-05T20:18:37.574Z,,,,2,0.0113873532168551,0.0054999201556291,,0.05,false,ll,10031.199999237084,response,-0.9476874253010668,1.0868834896997173,-0.8632883496617828,-1.0189744362243829,1.1141967809022715,-1.0999999999999999,low,low,,ISIC_8812621.JPG,,ISIC_0033878.JPG,33,37,false,0.1,lh,keypress(e),0,true,469385.10000038147,469384.79999923706,459337,459465.6999988556,459353.6,469278.5,1,40,13,
sequence,flow.Sequence,8_12,2024-03-05T20:18:37.575Z,,,,,,,,,,,10031.199999237084,completion,,,,,,,low,low,,,,,,,false,,,,,true,469385.60000038147,469384.79999923706,459337,459465.60000038147,459353.6,469278.5,1,40,,
trial,html.Screen,8_13_0,2024-03-05T20:18:46.595Z,,,,2,-0.0450282431170921,0,,0.05,false,hl,9127.39999961853,response,1.011737552725394,1.0868834896997173,-0.8632883496617828,-0.8500530224490773,1.1141967809022715,-1.15,high,low,,ISIC_1805163.JPG,,ISIC_2998367.JPG,33,26,false,0.30000000000000016,ll,keypress(f),0,true,478405.89999961853,478405.89999961853,469271.21,469385.89999961853,469278.5,478301.6,1,40,14,
sequence,flow.Sequence,8_13,2024-03-05T20:18:46.595Z,,,,,,,,,,,9127.39999961853,completion,,,,,,,high,low,,,,,,,false,,,,,true,478406,478405.89999961853,469271.21,469385.89999961853,469278.5,478301.6,1,40,,
trial,html.Screen,8_14_0,2024-03-05T20:18:50.964Z,,,,2,0.013431314305098,-0.0140597582944232,,0.05,false,lh,4473.699999237084,response,-0.6629163102028129,1.1368834896997173,-0.8632883496617828,1.2268098550740514,1.1141967809022715,-1.15,low,high,,ISIC_0069617.JPG,,ISIC_9562157.JPG,33,26,false,0.2300000000000001,hh,keypress(i),0,true,482775.39999961853,482775.29999923706,478286.4,478406.10000038147,478301.6,482673.2,1,40,15,
sequence,flow.Sequence,8_14,2024-03-05T20:18:50.965Z,,,,,,,,,,,4473.699999237084,completion,,,,,,,low,high,,,,,,,false,,,,,true,482775.60000038147,482775.29999923706,478286.4,478406.10000038147,478301.6,482673.2,1,40,,
trial,html.Screen,8_15_0,2024-03-05T20:18:55.890Z,,,,2,0.0348234368746005,-0.0236866303880924,,0.05,true,hh,5270.999998855579,response,1.131522954199764,1.1368834896997173,-0.9132883496617829,1.1047184491749509,1.0641967809022714,-1.15,high,high,,ISIC_0011099.JPG,,ISIC_1868816.JPG,33,25,false,0.1,hh,keypress(i),0,true,487944.60000038147,487944.1999988556,482656.7,482775.6999988556,482673.2,487844,1,40,16,
sequence,flow.Sequence,8_15,2024-03-05T20:18:55.890Z,,,,,,,,,,,5270.999998855579,completion,,,,,,,high,high,,,,,,,false,,,,,true,487945.10000038147,487944.1999988556,482656.7,482775.6999988556,482673.2,487844,1,40,,
trial,html.Screen,8_16_0,2024-03-05T20:18:59.312Z,,,,2,-0.0050679133050021,0.0009714874637896,,0.05,true,hh,3522.5,response,1.2148140264214349,1.1368834896997173,-0.9132883496617829,1.0436713726380966,1.0641967809022714,-1.15,high,high,,ISIC_9848743.JPG,,ISIC_7277310.JPG,33,25,false,0.1,hh,keypress(i),0,true,491366.60000038147,491366.5,487827.4,487945.5,487844,491262.9,1,40,17,
sequence,flow.Sequence,8_16,2024-03-05T20:18:59.312Z,,,,,,,,,,,3522.5,completion,,,,,,,high,high,,,,,,,false,,,,,true,491366.6999988556,491366.5,487827.4,487945.39999961853,487844,491262.9,1,40,,
trial,html.Screen,8_17_0,2024-03-05T20:19:02.818Z,,,,2,0.0134764727102299,0.0033499036460912,,0.05,false,lh,3609.8999992370373,response,-0.7197989269080959,1.0241949109065238,-0.9132883496617829,0.9410141415297968,1.0241949109065238,-1.15,low,high,,ISIC_0009998.JPG,,ISIC_2635051.JPG,33,25,false,0.22000000000000008,ll,keypress(f),0,true,494873.10000038147,494872.79999923706,491246.6,491366.79999923706,491262.9,494766.1,1,40,18,
sequence,flow.Sequence,8_17,2024-03-05T20:19:02.819Z,,,,,,,,,,,3609.8999992370373,completion,,,,,,,low,high,,,,,,,false,,,,,true,494873.5,494872.79999923706,491246.6,491366.79999923706,491262.9,494766.1,1,40,,
trial,html.Screen,8_18_0,2024-03-05T20:19:08.690Z,,,,2,0.0097091270150747,-0.0417921315885292,,0.05,false,lh,5978.500000381493,response,-1.0264463986917702,1.0241949109065238,-0.9132883496617829,1.2804054832904397,1.0741949109065239,-1.15,low,high,,ISIC_3967213.JPG,,ISIC_7889838.JPG,33,25,false,0.2500000000000001,hl,keypress(j),0,true,500745,500744.60000038147,494764,494873.6999988556,494766.1,500637.9,1,40,19,
sequence,flow.Sequence,8_18,2024-03-05T20:19:08.691Z,,,,,,,,,,,5978.500000381493,completion,,,,,,,low,high,,,,,,,false,,,,,true,500745.5,500744.60000038147,494764,494873.60000038147,494766.1,500637.9,1,40,,
trial,html.Screen,8_19_0,2024-03-05T20:19:14.499Z,,,,2,0.000047919190197942736,0.0462652940855003,,0.05,false,hh,5915.399999237037,response,1.0717785279820962,1.0241949109065238,-0.9632883496617829,1.1267239445830604,1.124194910906524,-1.15,high,high,,ISIC_0011507.JPG,,ISIC_9948815.JPG,33,26,false,0.11,hl,keypress(j),0,true,506553.6999988556,506553.29999923706,500621.4,500745.89999961853,500637.9,506442.5,1,40,20,
sequence,flow.Sequence,8_19,2024-03-05T20:19:14.499Z,,,,,,,,,,,5915.399999237037,completion,,,,,,,high,high,,,,,,,false,,,,,true,506554.1999988556,506553.29999923706,500621.4,500745.79999923706,500637.9,506442.5,1,40,,
trial,html.Screen,8_20_0,2024-03-05T20:19:26.882Z,,,,2,-0.0070725527271049,-0.0049995141077508,,0.05,false,ll,12494.39999961853,response,-0.958609763811768,1.0241949109065238,-0.9632883496617829,-1.0650939066726144,1.174194910906524,-1.15,low,low,,ISIC_6124481.JPG,,ISIC_0070163.JPG,33,28,false,0.1,lh,keypress(e),0,true,518937.29999923706,518936.89999961853,506438.808,506554.5,506442.5,518835.9,1,40,21,
sequence,flow.Sequence,8_20,2024-03-05T20:19:26.883Z,,,,,,,,,,,12494.39999961853,completion,,,,,,,low,low,,,,,,,false,,,,,true,518937.79999923706,518936.89999961853,506438.808,506554.39999961853,506442.5,518835.9,1,40,,
trial,html.Screen,8_21_0,2024-03-05T20:19:31.615Z,,,,2,0.0051189696037511,-0.0396625911332438,,0.05,false,lh,4834.2999988555675,response,-0.9235571765207048,1.0241949109065238,-0.9632883496617829,1.0008081653938232,1.174194910906524,-1.15,low,high,,ISIC_9742891.JPG,,ISIC_8796632.JPG,33,26,false,0.3200000000000002,ll,keypress(f),0,true,523670.1999988556,523670.1999988556,518826.278,518938,518835.9,523555.4,1,40,22,
sequence,flow.Sequence,8_21,2024-03-05T20:19:31.615Z,,,,,,,,,,,4834.2999988555675,completion,,,,,,,low,high,,,,,,,false,,,,,true,523670.29999923706,523670.1999988556,518826.278,518938,518835.9,523555.4,1,40,,
trial,html.Screen,8_22_0,2024-03-05T20:19:34.783Z,,,,2,-0.0456515796420274,0.0273567130070961,,0.05,true,hh,3282.3999992370373,response,0.9071602543711612,1.0241949109065238,-0.8910834701662363,1.073798502866343,1.174194910906524,-1.15,high,high,,ISIC_0068610.JPG,,ISIC_6676776.JPG,33,27,false,0.12,hh,keypress(i),0,true,526837.8999996185,526837.7999992371,523553.218,523670.29999923706,523555.4,526724.8,1,40,23,
sequence,flow.Sequence,8_22,2024-03-05T20:19:34.783Z,,,,,,,,,,,3282.3999992370373,completion,,,,,,,high,high,,,,,,,false,,,,,true,526837.8999996185,526837.7999992371,523553.218,523670.29999923706,523555.4,526724.8,1,40,,
trial,html.Screen,8_23_0,2024-03-05T20:19:46.530Z,,,,2,-0.0329095507339554,0.0382899749693245,,0.05,false,hl,11859.599999618484,response,1.0751036484083878,0.9404793786187521,-0.8910834701662363,-1.143906455483852,1.174194910906524,-1.15,high,low,,ISIC_8812781.JPG,,ISIC_0064406.JPG,33,25,false,0.2300000000000001,ll,keypress(f),0,true,538584.3999996185,538584.3999996185,526722.78,526837.8999996185,526724.8,538468.8,1,40,24,
sequence,flow.Sequence,8_23,2024-03-05T20:19:46.530Z,,,,,,,,,,,11859.599999618484,completion,,,,,,,high,low,,,,,,,false,,,,,true,538584.6000003815,538584.3999996185,526722.78,526837.8999996185,526724.8,538468.8,1,40,,
trial,html.Screen,8_24_0,2024-03-05T20:19:49.618Z,,,,2,0.0277178575053843,-0.0395587463147856,,0.05,false,hl,3203.6999999999534,response,0.7622914383475332,0.9904793786187521,-0.8910834701662363,-1.2637655821850098,1.174194910906524,-1.15,high,low,,ISIC_0010807.JPG,,ISIC_0032005.JPG,33,26,false,0.2600000000000001,hh,keypress(i),0,true,541672.8999996185,541672.5,538458.404,538584.6000003815,538468.8,541571,1,40,25,
sequence,flow.Sequence,8_24,2024-03-05T20:19:49.619Z,,,,,,,,,,,3203.6999999999534,completion,,,,,,,high,low,,,,,,,false,,,,,true,541673.3999996185,541672.5,538458.404,538584.6000003815,538468.8,541571,1,40,,
trial,html.Screen,8_25_0,2024-03-05T20:19:53.091Z,,,,2,-0.0324770283903853,-0.0249968632204382,,0.05,false,hh,3574.3999996185303,response,1.0717785279820962,0.9904793786187521,-0.8910834701662363,1.1267239445830604,1.174194910906524,-1.15,high,high,,ISIC_7266462.JPG,,ISIC_9948815.JPG,33,28,false,0.11,ll,keypress(f),0,true,545145.8999996185,545145.3999996185,541553.5,541673.6999988556,541571,545040.6,1,40,26,
sequence,flow.Sequence,8_25,2024-03-05T20:19:53.092Z,,,,,,,,,,,3574.3999996185303,completion,,,,,,,high,high,,,,,,,false,,,,,true,545146.5,545145.3999996185,541553.5,541673.6999988556,541571,545040.6,1,40,,
trial,html.Screen,8_26_0,2024-03-05T20:19:58.126Z,,,,2,-0.039728379742806,0.0228701131373768,,0.05,true,ll,5383.900000000023,response,-0.9777849718157332,1.040479378618752,-0.8910834701662363,-1.117811430082889,1.174194910906524,-1.15,low,low,,ISIC_0054073.JPG,,ISIC_3256887.JPG,33,33,false,0.1,ll,keypress(f),0,true,550425,550424.5,545024.5,545146.6000003815,545040.6,550311.9,1,40,27,
sequence,flow.Sequence,8_26,2024-03-05T20:19:58.127Z,,,,,,,,,,,5383.900000000023,completion,,,,,,,low,low,,,,,,,false,,,,,true,550425.3999996185,550424.5,545024.5,545146.5,545040.6,550311.9,1,40,,
trial,html.Screen,8_27_0,2024-03-05T20:20:04.094Z,,,,2,-0.0329095507339554,0.0382899749693245,,0.05,true,ll,6080.7999988555675,response,-0.9357713502691224,1.040479378618752,-0.8910834701662363,-1.0696934992096478,1.174194910906524,-1.15,low,low,,ISIC_8812781.JPG,,ISIC_0009886.JPG,33,33,false,0.1,ll,keypress(f),0,true,556393.1000003815,556392.6999988556,550308.372,550425.6000003815,550311.9,556283.5,1,40,28,
sequence,flow.Sequence,8_27,2024-03-05T20:20:04.095Z,,,,,,,,,,,6080.7999988555675,completion,,,,,,,low,low,,,,,,,false,,,,,true,556393.5,556392.6999988556,550308.372,550425.6000003815,550311.9,556283.5,1,40,,
trial,html.Screen,8_28_0,2024-03-05T20:20:07.003Z,,,,2,-0.0116094682222121,0.0258434522530318,,0.05,false,hl,3018.3999996185303,response,1.2695509547992938,1.040479378618752,-1.0437524646462684,-0.9641099676945492,1.174194910906524,-1.0437524646462684,high,low,,ISIC_9239632.JPG,,ISIC_0025841.JPG,33,27,false,0.2400000000000001,hh,keypress(i),0,true,559302,559301.8999996185,556279.268,556393.7999992371,556283.5,559185,1,40,29,
sequence,flow.Sequence,8_28,2024-03-05T20:20:07.003Z,,,,,,,,,,,3018.3999996185303,completion,,,,,,,high,low,,,,,,,false,,,,,true,559302.1000003815,559301.8999996185,556279.268,556393.7999992371,556283.5,559185,1,40,,
trial,html.Screen,8_29_0,2024-03-05T20:20:10.351Z,,,,2,0.013431314305098,-0.0140597582944232,,0.05,false,hl,3463.8999996185303,response,1.2364994561934892,1.040479378618752,-1.0437524646462684,-0.9174173651516624,1.174194910906524,-1.0937524646462684,high,low,,ISIC_0069617.JPG,,ISIC_3481133.JPG,33,25,false,0.2500000000000001,hh,keypress(i),0,true,562649.2999992371,562648.8999996185,559184.414,559302.1000003815,559185,562538.5,1,40,30,
sequence,flow.Sequence,8_29,2024-03-05T20:20:10.351Z,,,,,,,,,,,3463.8999996185303,completion,,,,,,,high,low,,,,,,,false,,,,,true,562649.8999996185,562648.8999996185,559184.414,559302.1000003815,559185,562538.5,1,40,,
trial,html.Screen,8_30_0,2024-03-05T20:20:13.259Z,,,,2,0.0112310719058792,-0.0469047359904117,,0.05,true,ll,3019.6000003814697,response,-1.0491289899026992,1.1530252054963914,-1.0437524646462684,-1.058683139801412,1.174194910906524,-1.1437524646462685,low,low,,ISIC_0068184.JPG,,ISIC_0010866.JPG,33,28,false,0.1,ll,keypress(f),0,true,565558.1000003815,565558.1000003815,562522.3,562650.1999988556,562538.5,565457.7,1,40,31,
sequence,flow.Sequence,8_30,2024-03-05T20:20:13.260Z,,,,,,,,,,,3019.6000003814697,completion,,,,,,,low,low,,,,,,,false,,,,,true,565558.2999992371,565558.1000003815,562522.3,562650,562538.5,565457.7,1,40,,
trial,html.Screen,8_31_0,2024-03-05T20:20:18.332Z,,,,2,-0.007397293189458,-0.0174716772037504,,0.05,false,hl,5172.499998855637,response,0.8979276789594874,1.1530252054963914,-1.0437524646462684,-0.925374811016654,1.174194910906524,-1.1437524646462685,high,low,,ISIC_0056226.JPG,,ISIC_4208361.JPG,33,25,false,0.31000000000000016,hh,keypress(i),0,true,570630.1999988556,570630.1999988556,565439.724,565558.3999996185,565457.7,570527.5,1,40,32,
sequence,flow.Sequence,8_31,2024-03-05T20:20:18.332Z,,,,,,,,,,,5172.499998855637,completion,,,,,,,high,low,,,,,,,false,,,,,true,570630.2999992371,570630.1999988556,565439.724,565558.3999996185,565457.7,570527.5,1,40,,
trial,html.Screen,8_32_0,2024-03-05T20:20:25.199Z,,,,2,0.0277178575053843,-0.0395587463147856,,0.05,true,ll,6969.5,response,-1.0698162624196283,1.1530252054963914,-1.0437524646462684,-1.219634566983089,1.174194910906524,-1.1937524646462685,low,low,,ISIC_0010807.JPG,,ISIC_0030552.JPG,33,28,false,0.1,ll,keypress(f),0,true,577497.3999996185,577497,570508.904,570630.3999996185,570527.5,577400.7,1,40,33,
sequence,flow.Sequence,8_32,2024-03-05T20:20:25.199Z,,,,,,,,,,,6969.5,completion,,,,,,,low,low,,,,,,,false,,,,,true,577498,577497,570508.904,570630.2999992371,570527.5,577400.7,1,40,,
trial,html.Screen,8_33_0,2024-03-05T20:20:27.550Z,,,,2,-0.0069555338059566,0.0310100918136373,,0.05,false,lh,2447.9999988556374,response,-0.8092423703106274,1.1530252054963914,-1.0947254147013588,1.1870093485714288,1.174194910906524,-1.1937524646462685,low,high,,ISIC_0011177.JPG,,ISIC_8592235.JPG,33,28,false,0.3800000000000002,ll,keypress(f),0,true,579849.1999988556,579848.6999988556,577394.598,577498.2999992371,577400.7,579736.2,1,40,34,
sequence,flow.Sequence,8_33,2024-03-05T20:20:27.551Z,,,,,,,,,,,2447.9999988556374,completion,,,,,,,low,high,,,,,,,false,,,,,true,579849.6999988556,579848.6999988556,577394.598,577498.1999988556,577400.7,579736.2,1,40,,
trial,html.Screen,8_34_0,2024-03-05T20:20:31.246Z,,,,2,0.0188047466661863,-0.0288346930436979,,0.05,false,hl,3808.4000003815163,response,0.9696118525781644,1.1530252054963914,-1.0947254147013588,-0.9244148283103414,1.174194910906524,-1.1937524646462685,high,low,,ISIC_0014157.JPG,,ISIC_7927525.JPG,33,25,false,0.3400000000000002,hh,keypress(i),0,true,583545.1000003815,583544.6000003815,579734.88,579849.8999996185,579736.2,583438.8,1,40,35,
sequence,flow.Sequence,8_34,2024-03-05T20:20:31.247Z,,,,,,,,,,,3808.4000003815163,completion,,,,,,,high,low,,,,,,,false,,,,,true,583545.6000003815,583544.6000003815,579734.88,579849.8999996185,579736.2,583438.8,1,40,,
trial,html.Screen,8_35_0,2024-03-05T20:20:38.925Z,,,,2,0.0277178575053843,-0.0395587463147856,,0.05,false,ll,7784.699999999953,response,-1.1164729501046406,1.1030252054963914,-1.0947254147013588,-1.2978935747992253,1.174194910906524,-1.1937524646462685,low,low,,ISIC_0010807.JPG,,ISIC_0034166.JPG,33,27,false,0.11,hl,keypress(j),0,true,591223.6999988556,591223.5,583422.8,583545.7999992371,583438.8,591112.1,1,40,36,
sequence,flow.Sequence,8_35,2024-03-05T20:20:38.925Z,,,,,,,,,,,7784.699999999953,completion,,,,,,,low,low,,,,,,,false,,,,,true,591224,591223.5,583422.8,583545.6999988556,583438.8,591112.1,1,40,,
trial,html.Screen,8_36_0,2024-03-05T20:20:41.004Z,,,,2,0.0188047466661863,-0.0288346930436979,,0.05,false,lh,2190.000000381493,response,-0.809764442462202,1.1030252054963914,-1.1447254147013588,1.005337148078696,1.174194910906524,-1.1937524646462685,low,high,,ISIC_0014157.JPG,,ISIC_2379379.JPG,33,26,false,0.3800000000000002,hh,keypress(i),0,true,593302.2999992371,593302.1000003815,591106.8,591224,591112.1,593196.1,1,40,37,
sequence,flow.Sequence,8_36,2024-03-05T20:20:41.004Z,,,,,,,,,,,2190.000000381493,completion,,,,,,,low,high,,,,,,,false,,,,,true,593302.5,593302.1000003815,591106.8,591224,591112.1,593196.1,1,40,,
trial,html.Screen,8_37_0,2024-03-05T20:20:43.375Z,,,,2,-0.0329095507339554,0.0382899749693245,,0.05,false,hl,2476.7999996185536,response,0.8579451262594331,1.1030252054963914,-1.1947254147013588,-0.9633172970727744,1.174194910906524,-1.1937524646462685,high,low,,ISIC_8812781.JPG,,ISIC_0067172.JPG,33,25,false,0.3200000000000002,hh,keypress(i),0,true,595673.2999992371,595672.8999996185,593181.1,593302.6000003815,593196.1,595565.7,1,40,38,
sequence,flow.Sequence,8_37,2024-03-05T20:20:43.375Z,,,,,,,,,,,2476.7999996185536,completion,,,,,,,high,low,,,,,,,false,,,,,true,595674,595672.8999996185,593181.1,593302.5,593196.1,595565.7,1,40,,
trial,html.Screen,8_38_0,2024-03-05T20:20:45.870Z,,,,2,0.0134764727102299,0.0033499036460912,,0.05,true,hh,2602.9000003815163,response,0.9786457729523576,1.1030252054963914,-1.1947254147013588,1.1189056385517386,1.174194910906524,-1.1937524646462685,high,high,,ISIC_0009998.JPG,,ISIC_3926019.JPG,33,26,false,0.13,hh,keypress(i),0,true,598169,598168.6000003815,595549.7,595674.1999988556,595565.7,598067.8,1,40,39,
sequence,flow.Sequence,8_38,2024-03-05T20:20:45.871Z,,,,,,,,,,,2602.9000003815163,completion,,,,,,,high,high,,,,,,,false,,,,,true,598169.5,598168.6000003815,595549.7,595674.1999988556,595565.7,598067.8,1,40,,
trial,html.Screen,8_39_0,2024-03-05T20:21:01.530Z,,,,2,0.0113873532168551,0.0054999201556291,,0.05,false,lh,16004.899998855544,response,-1.0213365328004047,0.9384253824055858,-1.1947254147013588,1.088524359911891,0.9384253824055858,-1.1937524646462685,low,high,,ISIC_8812621.JPG,,ISIC_5434229.JPG,33,25,false,0.31000000000000016,ll,keypress(f),0,true,614073.1000003815,614072.6999988556,598050.6,598169.7999992371,598067.8,613981.4,1,40,40,
sequence,flow.Sequence,8_39,2024-03-05T20:21:01.531Z,,,,,,,,,,,16004.899998855544,completion,,,,,,,low,high,,,,,,,false,,,,,true,614073.6000003815,614072.6999988556,598050.6,598169.6000003815,598067.8,613981.4,1,40,,
stair_loop,flow.Loop,8,2024-03-05T20:21:01.531Z,,,,,,,,,,,212816.8999988556,completion,,,,,,,,,,,,,,,false,,,,,true,614074,614072.6999988556,401248.416,401369.1999988556,401255.8,613981.4,1,40,,
exp_instructions,html.Screen,9,2024-03-05T20:21:19.131Z,,,,,,,,,,,17690.700000381446,response,,,,,,,,,,,,,,,,,continue,keypress(Space),,,631673.2999992371,631672.1000003815,613964.7,614074.1000003815,613981.4,631576.256,,,,
trial,html.Screen,10_0_0,2024-03-05T20:21:28.515Z,,,,1,0.0097091270150747,-0.0417921315885292,,0.05,false,lh,9480.643999618478,response,-0.7118141631588264,1.0635796307461969,-1.0252458873230919,1.0369885917487718,1.1624064344814773,-1.1587514787877615,low,high,,ISIC_3967213.JPG,9,ISIC_6917681.JPG,33,25,false,0.3400000000000002,hh,keypress(i),0,false,641057.2999992371,641056.8999996185,631576.256,631673.7999992371,631576.256,640953.4,5,600,1,
break,html.Screen,10_0_1,2024-03-05T20:21:28.516Z,,,,,,,,,,,NaN,,,,,,,,low,high,,,,,,,false,,,,,false,641058.5,641058.1999988556,,641057.5,,640953.4,5,600,,
break_continue,html.Screen,10_0_2,2024-03-05T20:21:28.517Z,,,,,,,,,,,NaN,,,,,,,,low,high,,,,,,,false,,,,,false,641059.2999992371,641059,,641058.6000003815,,640953.4,5,600,,
sequence,flow.Sequence,10_0,2024-03-05T20:21:28.517Z,,,,,,,,,,,9482.743999999948,completion,,,,,,,low,high,,,,,,,false,,,,,false,641059.5,641059,631576.256,631673.6999988556,631576.256,640953.4,5,600,,
trial,html.Screen,10_1_0,2024-03-05T20:21:32.570Z,,,,1,0.0097091270150747,-0.0417921315885292,,0.05,false,ll,4159.2999988555675,response,-1.0700930503975157,1.0635796307461969,-1.0252458873230919,-1.2020012168275056,1.1624064344814773,-1.1587514787877615,low,low,,ISIC_3967213.JPG,9,ISIC_0000022.JPG,33,26,false,0.1,hh,keypress(i),0,false,645113.1000003815,645112.6999988556,640945.932,641059.6000003815,640953.4,645006,5,600,2,
break,html.Screen,10_1_1,2024-03-05T20:21:32.572Z,,,,,,,,,,,NaN,,,,,,,,low,low,,,,,,,false,,,,,false,645114.6000003815,645114.1999988556,,645113.5,,645006,5,600,,
break_continue,html.Screen,10_1_2,2024-03-05T20:21:32.573Z,,,,,,,,,,,NaN,,,,,,,,low,low,,,,,,,false,,,,,false,645115.3999996185,645115.1000003815,,645114.7999992371,,645006,5,600,,
sequence,flow.Sequence,10_1,2024-03-05T20:21:32.573Z,,,,,,,,,,,4161.700000381446,completion,,,,,,,low,low,,,,,,,false,,,,,false,645115.6999988556,645115.1000003815,640945.932,641059.6000003815,640953.4,645006,5,600,,
trial,html.Screen,10_2_0,2024-03-05T20:21:37.259Z,,,,1,-0.039728379742806,0.0228701131373768,,0.05,true,hh,4794.799999237061,response,0.9517665083259332,1.0635796307461969,-1.0252458873230919,1.2717175116510189,1.1624064344814773,-1.1587514787877615,high,high,,ISIC_0054073.JPG,9,ISIC_2421696.JPG,33,25,false,0.12,hh,keypress(i),0,false,649801.2999992371,649800.7999992371,644990.1,645115.7999992371,645006,649693.5,5,600,3,
break,html.Screen,10_2_1,2024-03-05T20:21:37.261Z,,,,,,,,,,,NaN,,,,,,,,high,high,,,,,,,false,,,,,false,649803.2999992371,649803,,649802,,649693.5,5,600,,
break_continue,html.Screen,10_2_2,2024-03-05T20:21:37.261Z,,,,,,,,,,,NaN,,,,,,,,high,high,,,,,,,false,,,,,false,649803.5,649803.5,,649803.3999996185,,649693.5,5,600,,
sequence,flow.Sequence,10_2,2024-03-05T20:21:37.261Z,,,,,,,,,,,4797.5,completion,,,,,,,high,high,,,,,,,false,,,,,false,649803.6000003815,649803.5,644990.1,645115.7999992371,645006,649693.5,5,600,,
trial,html.Screen,10_3_0,2024-03-05T20:21:39.657Z,,,,1,0,0.0264544974620926,,0.05,true,hh,2506.199998855591,response,1.1137763092539212,1.0635796307461969,-1.0252458873230919,1.1599906701455132,1.1624064344814773,-1.1587514787877615,high,high,,ISIC_0056991.JPG,9,ISIC_5413788.JPG,33,25,false,0.12,hh,keypress(i),0,false,652199.7999992371,652199.6999988556,649677.3,649803.6000003815,649693.5,652095.8,5,600,4,
break,html.Screen,10_3_1,2024-03-05T20:21:39.658Z,,,,,,,,,,,NaN,,,,,,,,high,high,,,,,,,false,,,,,false,652200.1999988556,652200.1000003815,,652200,,652095.8,5,600,,
break_continue,html.Screen,10_3_2,2024-03-05T20:21:39.658Z,,,,,,,,,,,NaN,,,,,,,,high,high,,,,,,,false,,,,,false,652200.7999992371,652200.5,,652200.2999992371,,652095.8,5,600,,
sequence,flow.Sequence,10_3,2024-03-05T20:21:39.658Z,,,,,,,,,,,2507,completion,,,,,,,high,high,,,,,,,false,,,,,false,652200.8999996185,652200.5,649677.3,649803.6000003815,649693.5,652095.8,5,600,,
trial,html.Screen,10_4_0,2024-03-05T20:21:44.809Z,,,,1,-0.0116094682222121,0.0258434522530318,,0.05,false,ll,5255.899998855544,response,-0.9612373733144064,1.0635796307461969,-1.0252458873230919,-1.2155105349277993,1.1624064344814773,-1.1587514787877615,low,low,,ISIC_9239632.JPG,10,ISIC_0014883.JPG,33,26,false,0.1,lh,keypress(e),0,false,657351.8999996185,657351.6999988556,652079.1,652201.1000003815,652095.8,657249.9,5,600,5,
break,html.Screen,10_4_1,2024-03-05T20:21:44.810Z,,,,,,,,,,,NaN,,,,,,,,low,low,,,,,,,false,,,,,false,657352.6000003815,657352.3999996185,,657352.1000003815,,657249.9,5,600,,
break_continue,html.Screen,10_4_2,2024-03-05T20:21:44.810Z,,,,,,,,,,,NaN,,,,,,,,low,low,,,,,,,false,,,,,false,657352.8999996185,657352.7999992371,,657352.6999988556,,657249.9,5,600,,
sequence,flow.Sequence,10_4,2024-03-05T20:21:44.810Z,,,,,,,,,,,5256.999999237014,completion,,,,,,,low,low,,,,,,,false,,,,,false,657353,657352.7999992371,652079.1,652201.1000003815,652095.8,657249.9,5,600,,
trial,html.Screen,10_5_0,2024-03-05T20:21:51.914Z,,,,1,0.013431314305098,-0.0140597582944232,,0.05,false,lh,7206.899999237037,response,-0.8947611078712571,1.0635796307461969,-1.0252458873230919,0.8960964505004638,1.1624064344814773,-1.1587514787877615,low,high,,ISIC_0069617.JPG,9,ISIC_6441128.JPG,33,25,false,0.3400000000000002,hl,keypress(j),0,false,664457.1999988556,664456.7999992371,657247.976,657353.1000003815,657249.9,664355.7,5,600,6,
break,html.Screen,10_5_1,2024-03-05T20:21:51.916Z,,,,,,,,,,,NaN,,,,,,,,low,high,,,,,,,false,,,,,false,664458.7999992371,664458.2999992371,,664457.6000003815,,664355.7,5,600,,
break_continue,html.Screen,10_5_2,2024-03-05T20:21:51.917Z,,,,,,,,,,,NaN,,,,,,,,low,high,,,,,,,false,,,,,false,664459.8999996185,664459.5,,664459.1999988556,,664355.7,5,600,,
sequence,flow.Sequence,10_5,2024-03-05T20:21:51.918Z,,,,,,,,,,,7209.599999999977,completion,,,,,,,low,high,,,,,,,false,,,,,false,664460.2999992371,664459.5,657247.976,657353.1000003815,657249.9,664355.7,5,600,,
trial,html.Screen,10_6_0,2024-03-05T20:22:02.068Z,,,,1,0.0102460616775615,-0.0309670599545429,,0.05,true,hl,10293.499998855637,response,0.8979276789594874,1.0635796307461969,-1.0252458873230919,-0.925374811016654,1.1624064344814773,-1.1587514787877615,high,low,,ISIC_0072041.JPG,9,ISIC_4208361.JPG,33,26,false,0.29000000000000015,hl,keypress(j),0,false,674649.5,674649.1999988556,664353.876,664460.5,664355.7,674547.6,5,600,7,
break,html.Screen,10_6_1,2024-03-05T20:22:02.069Z,,,,,,,,,,,NaN,,,,,,,,high,low,,,,,,,false,,,,,false,674651.1000003815,674650.6000003815,,674650,,674547.6,5,600,,
break_continue,html.Screen,10_6_2,2024-03-05T20:22:02.070Z,,,,,,,,,,,NaN,,,,,,,,high,low,,,,,,,false,,,,,false,674652,674651.6999988556,,674651.2999992371,,674547.6,5,600,,
sequence,flow.Sequence,10_6,2024-03-05T20:22:02.071Z,,,,,,,,,,,10295.999998855637,completion,,,,,,,high,low,,,,,,,false,,,,,false,674652.2999992371,674651.6999988556,664353.876,664460.3999996185,664355.7,674547.6,5,600,,
trial,html.Screen,10_7_0,2024-03-05T20:22:04.467Z,,,,1,0.0134764727102299,0.0033499036460912,,0.05,true,hh,2501.099998855614,response,1.0316392011945703,1.0635796307461969,-1.0252458873230919,1.1580619988377847,1.1624064344814773,-1.1587514787877615,high,high,,ISIC_0009998.JPG,9,ISIC_0054206.JPG,33,25,false,0.12,hh,keypress(i),0,false,677049,677048.6999988556,674531.192,674652.6000003815,674547.6,676949.6,5,600,8,
break,html.Screen,10_7_1,2024-03-05T20:22:04.469Z,,,,,,,,,,,NaN,,,,,,,,high,high,,,,,,,false,,,,,false,677050.3999996185,677050.1000003815,,677049.5,,676949.6,5,600,,
break_continue,html.Screen,10_7_2,2024-03-05T20:22:04.470Z,,,,,,,,,,,NaN,,,,,,,,high,high,,,,,,,false,,,,,false,677051.1999988556,677050.8999996185,,677050.6000003815,,676949.6,5,600,,
sequence,flow.Sequence,10_7,2024-03-05T20:22:04.470Z,,,,,,,,,,,2503.2999996185536,completion,,,,,,,high,high,,,,,,,false,,,,,false,677051.3999996185,677050.8999996185,674531.192,674652.5,674547.6,676949.6,5,600,,
trial,html.Screen,10_8_0,2024-03-05T20:22:10.483Z,,,,1,-0.0057914759495055,-0.0074667911845194,,0.05,false,lh,6114.799999618554,response,-0.7870237732709365,1.0635796307461969,-1.0252458873230919,0.9172955251119376,1.1624064344814773,-1.1587514787877615,low,high,,ISIC_0058723.JPG,9,ISIC_0057716.JPG,33,25,false,0.3400000000000002,hl,keypress(j),0,false,683064.7999992371,683064.3999996185,676931.878,677051.6000003815,676949.6,682954.5,5,600,9,
break,html.Screen,10_8_1,2024-03-05T20:22:10.485Z,,,,,,,,,,,NaN,,,,,,,,low,high,,,,,,,false,,,,,false,683066.1999988556,683065.8999996185,,683065.1999988556,,682954.5,5,600,,
break_continue,html.Screen,10_8_2,2024-03-05T20:22:10.485Z,,,,,,,,,,,NaN,,,,,,,,low,high,,,,,,,false,,,,,false,683067.1000003815,683066.7999992371,,683066.5,,682954.5,5,600,,
sequence,flow.Sequence,10_8,2024-03-05T20:22:10.486Z,,,,,,,,,,,6117.199999237084,completion,,,,,,,low,high,,,,,,,false,,,,,false,683067.3999996185,683066.7999992371,676931.878,677051.6000003815,676949.6,682954.5,5,600,,
trial,html.Screen,10_9_0,2024-03-05T20:22:15.970Z,,,,1,-0.0450282431170921,0,,0.05,true,ll,5596.89999961853,response,-1.0130095662293503,1.0635796307461969,-1.0252458873230919,-1.098939882801048,1.1624064344814773,-1.1587514787877615,low,low,,ISIC_1805163.JPG,9,ISIC_0059897.JPG,33,26,false,0.1,ll,keypress(f),0,false,688551.6000003815,688551.3999996185,682950.5,683067.6000003815,682954.5,688442.2,5,600,10,
break,html.Screen,10_9_1,2024-03-05T20:22:15.970Z,,,,,,,,,,,NaN,,,,,,,,low,low,,,,,,,false,,,,,false,688552,688552,,688551.6999988556,,688442.2,5,600,,
break_continue,html.Screen,10_9_2,2024-03-05T20:22:15.971Z,,,,,,,,,,,NaN,,,,,,,,low,low,,,,,,,false,,,,,false,688552.3999996185,688552.2999992371,,688552.1999988556,,688442.2,5,600,,
sequence,flow.Sequence,10_9,2024-03-05T20:22:15.971Z,,,,,,,,,,,5597.799999237061,completion,,,,,,,low,low,,,,,,,false,,,,,false,688552.5,688552.2999992371,682950.5,683067.6000003815,682954.5,688442.2,5,600,,
trial,html.Screen,10_10_0,2024-03-05T20:22:19.380Z,,,,1,0.0113873532168551,0.0054999201556291,,0.05,true,lh,3519.099999237107,response,-0.7871162143493278,1.0635796307461969,-1.0252458873230919,0.8429329800778957,1.1624064344814773,-1.1587514787877615,low,high,,ISIC_8812621.JPG,9,ISIC_3439215.JPG,33,25,false,0.3400000000000002,lh,keypress(e),0,false,691961.7999992371,691961.2999992371,688441.04,688552.5,688442.2,691862.1,5,600,11,
break,html.Screen,10_10_1,2024-03-05T20:22:19.382Z,,,,,,,,,,,NaN,,,,,,,,low,high,,,,,,,false,,,,,false,691963.3999996185,691962.8999996185,,691962.2999992371,,691862.1,5,600,,
break_continue,html.Screen,10_10_2,2024-03-05T20:22:19.382Z,,,,,,,,,,,NaN,,,,,,,,low,high,,,,,,,false,,,,,false,691963.6999988556,691963.6000003815,,691963.5,,691862.1,5,600,,
sequence,flow.Sequence,10_10,2024-03-05T20:22:19.382Z,,,,,,,,,,,3521.4000003815163,completion,,,,,,,low,high,,,,,,,false,,,,,false,691963.6999988556,691963.6000003815,688441.04,688552.5,688442.2,691862.1,5,600,,
trial,html.Screen,10_11_0,2024-03-05T20:22:23.652Z,,,,1,-0.0107854985447517,-0.0478010417136109,,0.05,true,hh,4371.000000381493,response,0.9525123994269484,1.0635796307461969,-1.0252458873230919,1.0779941204178511,1.1624064344814773,-1.1587514787877615,high,high,,ISIC_0010500.JPG,10,ISIC_0009642.JPG,33,25,false,0.12,hh,keypress(i),0,false,696233.5,696233.1000003815,691843.404,691963.6999988556,691862.1,696132.5,5,600,12,
break,html.Screen,10_11_1,2024-03-05T20:22:23.653Z,,,,,,,,,,,NaN,,,,,,,,high,high,,,,,,,false,,,,,false,696234.7999992371,696234.5,,696233.8999996185,,696132.5,5,600,,
break_continue,html.Screen,10_11_2,2024-03-05T20:22:23.654Z,,,,,,,,,,,NaN,,,,,,,,high,high,,,,,,,false,,,,,false,696235.6999988556,696235.3999996185,,696235.1000003815,,696132.5,5,600,,
sequence,flow.Sequence,10_11,2024-03-05T20:22:23.654Z,,,,,,,,,,,4373.299999618554,completion,,,,,,,high,high,,,,,,,false,,,,,false,696236,696235.3999996185,691843.404,691963.6999988556,691862.1,696132.5,5,600,,
trial,html.Screen,10_12_0,2024-03-05T20:22:27.652Z,,,,1,-0.0069555338059566,0.0310100918136373,,0.05,false,hh,4100.299999237061,response,0.9525123994269484,1.0635796307461969,-1.0252458873230919,1.0779941204178511,1.1624064344814773,-1.1587514787877615,high,high,,ISIC_0011177.JPG,9,ISIC_0009642.JPG,33,25,false,0.12,ll,keypress(f),0,false,700233.1999988556,700232.7999992371,696115.7,696236.1999988556,696132.5,700118.6,5,600,13,
break,html.Screen,10_12_1,2024-03-05T20:22:27.653Z,,,,,,,,,,,NaN,,,,,,,,high,high,,,,,,,false,,,,,false,700234.5,700234.1999988556,,700233.6000003815,,700118.6,5,600,,
break_continue,html.Screen,10_12_2,2024-03-05T20:22:27.654Z,,,,,,,,,,,NaN,,,,,,,,high,high,,,,,,,false,,,,,false,700235.2999992371,700235.1000003815,,700234.7999992371,,700118.6,5,600,,
sequence,flow.Sequence,10_12,2024-03-05T20:22:27.654Z,,,,,,,,,,,4102.60000038147,completion,,,,,,,high,high,,,,,,,false,,,,,false,700235.5,700235.1000003815,696115.7,696236.1999988556,696132.5,700118.6,5,600,,
trial,html.Screen,10_13_0,2024-03-05T20:22:31.041Z,,,,1,-0.0107854985447517,-0.0478010417136109,,0.05,false,hl,3504.000000381493,response,1.020990671779317,1.0635796307461969,-1.0252458873230919,-1.0116513850520903,1.1624064344814773,-1.1587514787877615,high,low,,ISIC_0010500.JPG,8,ISIC_0011995.JPG,33,26,false,0.29000000000000015,hh,keypress(i),0,false,703622.7999992371,703622.6000003815,700117.132,700235.7999992371,700118.6,703520.6,5,600,14,
break,html.Screen,10_13_1,2024-03-05T20:22:31.041Z,,,,,,,,,,,NaN,,,,,,,,high,low,,,,,,,false,,,,,false,703623,703623,,703622.8999996185,,703520.6,5,600,,
break_continue,html.Screen,10_13_2,2024-03-05T20:22:31.042Z,,,,,,,,,,,NaN,,,,,,,,high,low,,,,,,,false,,,,,false,703623.1999988556,703623.1999988556,,703623,,703520.6,5,600,,
sequence,flow.Sequence,10_13,2024-03-05T20:22:31.042Z,,,,,,,,,,,3504.599998855614,completion,,,,,,,high,low,,,,,,,false,,,,,false,703623.1999988556,703623.1999988556,700117.132,700235.7999992371,700118.6,703520.6,5,600,,
trial,html.Screen,10_14_0,2024-03-05T20:22:34.980Z,,,,1,-0.0116094682222121,0.0258434522530318,,0.05,false,hh,4040.199999237084,response,0.9821381220613687,1.0635796307461969,-1.0252458873230919,1.1931254848796,1.1624064344814773,-1.1587514787877615,high,high,,ISIC_9239632.JPG,9,ISIC_4107717.JPG,33,25,false,0.12,ll,keypress(f),0,false,707561.1000003815,707560.7999992371,703503.8,703623.2999992371,703520.6,707457.9,5,600,15,
break,html.Screen,10_14_1,2024-03-05T20:22:34.981Z,,,,,,,,,,,NaN,,,,,,,,high,high,,,,,,,false,,,,,false,707562.6000003815,707562.1999988556,,707561.6000003815,,707457.9,5,600,,
break_continue,html.Screen,10_14_2,2024-03-05T20:22:34.982Z,,,,,,,,,,,NaN,,,,,,,,high,high,,,,,,,false,,,,,false,707563.1999988556,707563,,707562.6999988556,,707457.9,5,600,,
sequence,flow.Sequence,10_14,2024-03-05T20:22:34.982Z,,,,,,,,,,,4042.4000000000233,completion,,,,,,,high,high,,,,,,,false,,,,,false,707563.6000003815,707563,703503.8,703623.1999988556,703520.6,707457.9,5,600,,
trial,html.Screen,10_15_0,2024-03-05T20:22:37.348Z,,,,1,0.0277178575053843,-0.0395587463147856,,0.05,true,hh,2470.999999618507,response,0.9821381220613687,1.0635796307461969,-1.0252458873230919,1.1931254848796,1.1624064344814773,-1.1587514787877615,high,high,,ISIC_0010807.JPG,9,ISIC_4107717.JPG,33,25,false,0.12,hh,keypress(i),0,false,709929.2999992371,709928.8999996185,707441.7,707563.6999988556,707457.9,709826.5,5,600,16,
break,html.Screen,10_15_1,2024-03-05T20:22:37.349Z,,,,,,,,,,,NaN,,,,,,,,high,high,,,,,,,false,,,,,false,709930.8999996185,709930.5,,709929.7999992371,,709826.5,5,600,,
break_continue,html.Screen,10_15_2,2024-03-05T20:22:37.350Z,,,,,,,,,,,NaN,,,,,,,,high,high,,,,,,,false,,,,,false,709931.6999988556,709931.5,,709931.1999988556,,709826.5,5,600,,
sequence,flow.Sequence,10_15,2024-03-05T20:22:37.350Z,,,,,,,,,,,2473.5999999999767,completion,,,,,,,high,high,,,,,,,false,,,,,false,709932,709931.5,707441.7,707563.6999988556,707457.9,709826.5,5,600,,
trial,html.Screen,10_16_0,2024-03-05T20:22:41.460Z,,,,1,0,0.0264544974620926,,0.05,false,lh,4214.60000038147,response,-0.8655167308525522,1.0635796307461969,-1.0252458873230919,0.9298580423306444,1.1624064344814773,-1.1587514787877615,low,high,,ISIC_0056991.JPG,9,ISIC_4603706.JPG,33,25,false,0.3400000000000002,ll,keypress(f),0,false,714041.5,714041.1000003815,709825.712,709932.2999992371,709826.5,713929.9,5,600,17,
break,html.Screen,10_16_1,2024-03-05T20:22:41.461Z,,,,,,,,,,,NaN,,,,,,,,low,high,,,,,,,false,,,,,false,714042.8999996185,714042.6000003815,,714042,,713929.9,5,600,,
break_continue,html.Screen,10_16_2,2024-03-05T20:22:41.462Z,,,,,,,,,,,NaN,,,,,,,,low,high,,,,,,,false,,,,,false,714043.7999992371,714043.3999996185,,714043.1000003815,,713929.9,5,600,,
sequence,flow.Sequence,10_16,2024-03-05T20:22:41.462Z,,,,,,,,,,,4216.89999961853,completion,,,,,,,low,high,,,,,,,false,,,,,false,714044.1000003815,714043.3999996185,709825.712,709932.1999988556,709826.5,713929.9,5,600,,
trial,html.Screen,10_17_0,2024-03-05T20:22:44.227Z,,,,1,0.0159061451859594,0.0296598845560212,,0.05,false,lh,2878.5999999999767,response,-0.948927472020595,1.0635796307461969,-1.0252458873230919,1.0660437155921598,1.1624064344814773,-1.1587514787877615,low,high,,ISIC_0072564.JPG,9,ISIC_5808758.JPG,33,25,false,0.3400000000000002,ll,keypress(f),0,false,716808.6999988556,716808.5,713929.45,714044.2999992371,713929.9,716697.9,5,600,18,
break,html.Screen,10_17_1,2024-03-05T20:22:44.228Z,,,,,,,,,,,NaN,,,,,,,,low,high,,,,,,,false,,,,,false,716809.3999996185,716809.2999992371,,716809,,716697.9,5,600,,
break_continue,html.Screen,10_17_2,2024-03-05T20:22:44.228Z,,,,,,,,,,,NaN,,,,,,,,low,high,,,,,,,false,,,,,false,716809.7999992371,716809.6999988556,,716809.5,,716697.9,5,600,,
sequence,flow.Sequence,10_17,2024-03-05T20:22:44.228Z,,,,,,,,,,,2879.7999988555675,completion,,,,,,,low,high,,,,,,,false,,,,,false,716809.8999996185,716809.6999988556,713929.45,714044.1999988556,713929.9,716697.9,5,600,,
trial,html.Screen,10_18_0,2024-03-05T20:22:49.443Z,,,,1,0.0113873532168551,0.0054999201556291,,0.05,false,ll,5326.599999999977,response,-1.0351900568634125,1.0635796307461969,-1.0252458873230919,-1.060448537312289,1.1624064344814773,-1.1587514787877615,low,low,,ISIC_8812621.JPG,9,ISIC_4377208.JPG,33,26,false,0.1,lh,keypress(e),0,false,722024.6999988556,722024.5,716682.7,716810,716697.9,721920.4,5,600,19,
break,html.Screen,10_18_1,2024-03-05T20:22:49.443Z,,,,,,,,,,,NaN,,,,,,,,low,low,,,,,,,false,,,,,false,722024.8999996185,722024.7999992371,,722024.6999988556,,721920.4,5,600,,
break_continue,html.Screen,10_18_2,2024-03-05T20:22:49.444Z,,,,,,,,,,,NaN,,,,,,,,low,low,,,,,,,false,,,,,false,722025.1000003815,722025.1000003815,,722025,,721920.4,5,600,,
sequence,flow.Sequence,10_18,2024-03-05T20:22:49.444Z,,,,,,,,,,,5327.200000381446,completion,,,,,,,low,low,,,,,,,false,,,,,false,722025.1999988556,722025.1000003815,716682.7,716810,716697.9,721920.4,5,600,,
trial,html.Screen,10_19_0,2024-03-05T20:22:53.316Z,,,,1,-0.0389988030702649,-0.0143212271490256,,0.05,true,ll,3977.2000003814464,response,-0.958609763811768,1.0635796307461969,-1.0252458873230919,-1.0650939066726144,1.1624064344814773,-1.1587514787877615,low,low,,ISIC_0064669.JPG,9,ISIC_0070163.JPG,33,26,false,0.1,ll,keypress(f),0,false,725898.1000003815,725897.6000003815,721903.2,722025.1999988556,721920.4,725789.7,5,600,20,
break,html.Screen,10_19_1,2024-03-05T20:22:53.318Z,,,,,,,,,,,NaN,,,,,,,,low,low,,,,,,,false,,,,,false,725899.6999988556,725899.1999988556,,725898.6000003815,,725789.7,5,600,,
break_continue,html.Screen,10_19_2,2024-03-05T20:22:53.319Z,,,,,,,,,,,NaN,,,,,,,,low,low,,,,,,,false,,,,,false,725900.6000003815,725900.3999996185,,725900,,725789.7,5,600,,
sequence,flow.Sequence,10_19,2024-03-05T20:22:53.319Z,,,,,,,,,,,3979.999999618507,completion,,,,,,,low,low,,,,,,,false,,,,,false,725901,725900.3999996185,721903.2,722025.1999988556,721920.4,725789.7,5,600,,
trial,html.Screen,10_20_0,2024-03-05T20:22:57.876Z,,,,1,-0.0057914759495055,-0.0074667911845194,,0.05,true,ll,4667.099999237107,response,-1.1033977063872138,1.0635796307461969,-1.0252458873230919,-1.2513071571733083,1.1624064344814773,-1.1587514787877615,low,low,,ISIC_0058723.JPG,9,ISIC_0025472.JPG,33,26,false,0.1,ll,keypress(f),0,false,730457.1999988556,730456.7999992371,725787.992,725901.1999988556,725789.7,730343.5,5,600,21,
break,html.Screen,10_20_1,2024-03-05T20:22:57.877Z,,,,,,,,,,,NaN,,,,,,,,low,low,,,,,,,false,,,,,false,730458.6000003815,730458.1999988556,,730457.6000003815,,730343.5,5,600,,
break_continue,html.Screen,10_20_2,2024-03-05T20:22:57.878Z,,,,,,,,,,,NaN,,,,,,,,low,low,,,,,,,false,,,,,false,730459.3999996185,730459.1999988556,,730458.8999996185,,730343.5,5,600,,
sequence,flow.Sequence,10_20,2024-03-05T20:22:57.878Z,,,,,,,,,,,4669.499998855637,completion,,,,,,,low,low,,,,,,,false,,,,,false,730459.7999992371,730459.1999988556,725787.992,725901.1000003815,725789.7,730343.5,5,600,,
trial,html.Screen,10_21_0,2024-03-05T20:23:00.611Z,,,,1,-0.0389988030702649,-0.0143212271490256,,0.05,true,ll,2849,response,-0.9562051868665176,1.0635796307461969,-1.0252458873230919,-1.110797661774712,1.1624064344814773,-1.1587514787877615,low,low,,ISIC_0064669.JPG,9,ISIC_0061199.JPG,33,26,false,0.1,ll,keypress(f),0,false,733192.8999996185,733192.5,730340.458,730460,730343.5,733079.1,5,600,22,
break,html.Screen,10_21_1,2024-03-05T20:23:00.613Z,,,,,,,,,,,NaN,,,,,,,,low,low,,,,,,,false,,,,,false,733194.5,733194,,733193.3999996185,,733079.1,5,600,,
break_continue,html.Screen,10_21_2,2024-03-05T20:23:00.614Z,,,,,,,,,,,NaN,,,,,,,,low,low,,,,,,,false,,,,,false,733195.1999988556,733195,,733194.6000003815,,733079.1,5,600,,
sequence,flow.Sequence,10_21,2024-03-05T20:23:00.614Z,,,,,,,,,,,2851.5,completion,,,,,,,low,low,,,,,,,false,,,,,false,733195.6000003815,733195,730340.458,730460,730343.5,733079.1,5,600,,
trial,html.Screen,10_22_0,2024-03-05T20:23:02.836Z,,,,1,-0.0456515796420274,0.0273567130070961,,0.05,true,hh,2337.7999996185536,response,1.09666761087476,1.0635796307461969,-1.0252458873230919,1.1072126870290426,1.1624064344814773,-1.1587514787877615,high,high,,ISIC_0068610.JPG,9,ISIC_0071754.JPG,33,25,false,0.12,hh,keypress(i),0,false,735417.2999992371,735416.8999996185,733078.12,733195.7999992371,733079.1,735314,5,600,23,
break,html.Screen,10_22_1,2024-03-05T20:23:02.839Z,,,,,,,,,,,NaN,,,,,,,,high,high,,,,,,,false,,,,,false,735420.7999992371,735420.3999996185,,735418,,735314,5,600,,
break_continue,html.Screen,10_22_2,2024-03-05T20:23:02.840Z,,,,,,,,,,,NaN,,,,,,,,high,high,,,,,,,false,,,,,false,735421.5,735421.2999992371,,735420.8999996185,,735314,5,600,,
sequence,flow.Sequence,10_22,2024-03-05T20:23:02.840Z,,,,,,,,,,,2342.199999237084,completion,,,,,,,high,high,,,,,,,false,,,,,false,735421.7999992371,735421.2999992371,733078.12,733195.6999988556,733079.1,735314,5,600,,
trial,html.Screen,10_23_0,2024-03-05T20:23:06.001Z,,,,1,0.0188047466661863,-0.0288346930436979,,0.05,false,lh,3268.8999996185303,response,-0.7118141631588264,1.0635796307461969,-1.0252458873230919,1.0369885917487718,1.1624064344814773,-1.1587514787877615,low,high,,ISIC_0014157.JPG,9,ISIC_6917681.JPG,33,25,false,0.3400000000000002,hh,keypress(i),0,false,738583,738582.8999996185,735312.984,735422,735314,738483.9,5,600,24,
break,html.Screen,10_23_1,2024-03-05T20:23:06.002Z,,,,,,,,,,,NaN,,,,,,,,low,high,,,,,,,false,,,,,false,738583.5,738583.2999992371,,738583.1999988556,,738483.9,5,600,,
break_continue,html.Screen,10_23_2,2024-03-05T20:23:06.002Z,,,,,,,,,,,NaN,,,,,,,,low,high,,,,,,,false,,,,,false,738583.6999988556,738583.6999988556,,738583.5,,738483.9,5,600,,
sequence,flow.Sequence,10_23,2024-03-05T20:23:06.002Z,,,,,,,,,,,3269.699998855591,completion,,,,,,,low,high,,,,,,,false,,,,,false,738583.7999992371,738583.6999988556,735312.984,735421.8999996185,735314,738483.9,5,600,,
trial,html.Screen,10_24_0,2024-03-05T20:23:11.748Z,,,,1,-0.0069555338059566,0.0310100918136373,,0.05,true,ll,5845.499999618507,response,-0.9357713502691224,1.0635796307461969,-1.0252458873230919,-1.0696934992096478,1.1624064344814773,-1.1587514787877615,low,low,,ISIC_0011177.JPG,9,ISIC_0009886.JPG,33,26,false,0.1,ll,keypress(f),0,false,744329.7999992371,744329.3999996185,738465.314,738583.7999992371,738483.9,744221.5,5,600,25,
break,html.Screen,10_24_1,2024-03-05T20:23:11.750Z,,,,,,,,,,,NaN,,,,,,,,low,low,,,,,,,false,,,,,false,744331.2999992371,744331,,744330.2999992371,,744221.5,5,600,,
break_continue,html.Screen,10_24_2,2024-03-05T20:23:11.751Z,,,,,,,,,,,NaN,,,,,,,,low,low,,,,,,,false,,,,,false,744332.1999988556,744331.8999996185,,744331.5,,744221.5,5,600,,
sequence,flow.Sequence,10_24,2024-03-05T20:23:11.751Z,,,,,,,,,,,5847.999999618507,completion,,,,,,,low,low,,,,,,,false,,,,,false,744332.5,744331.8999996185,738465.314,738583.7999992371,738483.9,744221.5,5,600,,
trial,html.Screen,10_25_0,2024-03-05T20:23:15.267Z,,,,1,0.013431314305098,-0.0140597582944232,,0.05,false,hl,3627.199998855591,response,1.0751036484083878,1.0635796307461969,-1.0252458873230919,-1.143906455483852,1.1624064344814773,-1.1587514787877615,high,low,,ISIC_0069617.JPG,10,ISIC_0064406.JPG,33,26,false,0.29000000000000015,ll,keypress(f),0,false,747849,747848.6999988556,744220.954,744332.6999988556,744221.5,747741.1,5,600,26,
break,html.Screen,10_25_1,2024-03-05T20:23:15.269Z,,,,,,,,,,,NaN,,,,,,,,high,low,,,,,,,false,,,,,false,747850.2999992371,747850.1000003815,,747849.5,,747741.1,5,600,,
break_continue,html.Screen,10_25_2,2024-03-05T20:23:15.270Z,,,,,,,,,,,NaN,,,,,,,,high,low,,,,,,,false,,,,,false,747851.1999988556,747850.8999996185,,747850.6000003815,,747741.1,5,600,,
sequence,flow.Sequence,10_25,2024-03-05T20:23:15.270Z,,,,,,,,,,,3629.3999996185303,completion,,,,,,,high,low,,,,,,,false,,,,,false,747851.5,747850.8999996185,744220.954,744332.6000003815,744221.5,747741.1,5,600,,
trial,html.Screen,10_26_0,2024-03-05T20:23:19.831Z,,,,1,-0.0217698886732706,0.0410870915161425,,0.05,false,lh,4671.099998855614,response,-0.7998855902596425,1.0635796307461969,-1.0252458873230919,1.1518579145663017,1.1624064344814773,-1.1587514787877615,low,high,,ISIC_0072173.JPG,10,ISIC_0025061.JPG,33,25,false,0.3400000000000002,hh,keypress(i),0,false,752412.6000003815,752412.1999988556,747739.436,747851.6999988556,747741.1,752311.6,5,600,27,
break,html.Screen,10_26_1,2024-03-05T20:23:19.832Z,,,,,,,,,,,NaN,,,,,,,,low,high,,,,,,,false,,,,,false,752413.6999988556,752413.6000003815,,752413.1000003815,,752311.6,5,600,,
break_continue,html.Screen,10_26_2,2024-03-05T20:23:19.832Z,,,,,,,,,,,NaN,,,,,,,,low,high,,,,,,,false,,,,,false,752414,752413.7999992371,,752413.7999992371,,752311.6,5,600,,
sequence,flow.Sequence,10_26,2024-03-05T20:23:19.832Z,,,,,,,,,,,4672.699999237084,completion,,,,,,,low,high,,,,,,,false,,,,,false,752414.1000003815,752413.7999992371,747739.436,747851.6000003815,747741.1,752311.6,5,600,,
trial,html.Screen,10_27_0,2024-03-05T20:23:22.771Z,,,,1,-0.0217698886732706,0.0410870915161425,,0.05,true,hh,3041.000000381493,response,1.0959058628476686,1.0635796307461969,-1.0252458873230919,1.1684835186766898,1.1624064344814773,-1.1587514787877615,high,high,,ISIC_0072173.JPG,9,ISIC_5920470.JPG,33,25,false,0.12,hh,keypress(i),0,false,755353,755352.6000003815,752294.7,752414.1000003815,752311.6,755247.2,5,600,28,
break,html.Screen,10_27_1,2024-03-05T20:23:22.773Z,,,,,,,,,,,NaN,,,,,,,,high,high,,,,,,,false,,,,,false,755354.1999988556,755353.8999996185,,755353.1999988556,,755247.2,5,600,,
break_continue,html.Screen,10_27_2,2024-03-05T20:23:22.773Z,,,,,,,,,,,NaN,,,,,,,,high,high,,,,,,,false,,,,,false,755354.7999992371,755354.6000003815,,755354.2999992371,,755247.2,5,600,,
sequence,flow.Sequence,10_27,2024-03-05T20:23:22.773Z,,,,,,,,,,,3043.000000381493,completion,,,,,,,high,high,,,,,,,false,,,,,false,755355,755354.6000003815,752294.7,752414.1000003815,752311.6,755247.2,5,600,,
trial,html.Screen,10_28_0,2024-03-05T20:23:25.252Z,,,,1,-0.0450282431170921,0,,0.05,false,hl,2586.3000000000466,response,0.9579209317488,1.0635796307461969,-1.0252458873230919,-1.0147487101263497,1.1624064344814773,-1.1587514787877615,high,low,,ISIC_1805163.JPG,8,ISIC_8124482.JPG,33,26,false,0.29000000000000015,hh,keypress(i),0,false,757834.1000003815,757833.5,755246.392,755355.1999988556,755247.2,757732.8,5,600,29,
break,html.Screen,10_28_1,2024-03-05T20:23:25.254Z,,,,,,,,,,,NaN,,,,,,,,high,low,,,,,,,false,,,,,false,757835.5,757835.1999988556,,757834.5,,757732.8,5,600,,
break_continue,html.Screen,10_28_2,2024-03-05T20:23:25.254Z,,,,,,,,,,,NaN,,,,,,,,high,low,,,,,,,false,,,,,false,757835.7999992371,757835.7999992371,,757835.6000003815,,757732.8,5,600,,
sequence,flow.Sequence,10_28,2024-03-05T20:23:25.254Z,,,,,,,,,,,2588.599999237107,completion,,,,,,,high,low,,,,,,,false,,,,,false,757835.8999996185,757835.7999992371,755246.392,755355.1000003815,755247.2,757732.8,5,600,,
trial,html.Screen,10_29_0,2024-03-05T20:23:27.539Z,,,,1,0.0362376068089956,0.047825070846155,,0.05,false,hl,2387.800000381423,response,0.869932994914832,1.0635796307461969,-1.0252458873230919,-0.8880533324432531,1.1624064344814773,-1.1587514787877615,high,low,,ISIC_6985114.JPG,9,ISIC_8617084.JPG,33,26,false,0.29000000000000015,hh,keypress(i),0,false,760120.8999996185,760120.6000003815,757715.9,757835.8999996185,757732.8,760017.8,5,600,30,
break,html.Screen,10_29_1,2024-03-05T20:23:27.541Z,,,,,,,,,,,NaN,,,,,,,,high,low,,,,,,,false,,,,,false,760122.6999988556,760122.1999988556,,760121.3999996185,,760017.8,5,600,,
break_continue,html.Screen,10_29_2,2024-03-05T20:23:27.542Z,,,,,,,,,,,NaN,,,,,,,,high,low,,,,,,,false,,,,,false,760123.3999996185,760123.1999988556,,760123,,760017.8,5,600,,
sequence,flow.Sequence,10_29,2024-03-05T20:23:27.542Z,,,,,,,,,,,2390.3999988555443,completion,,,,,,,high,low,,,,,,,false,,,,,false,760123.3999996185,760123.1999988556,757715.9,757835.8999996185,757732.8,760017.8,5,600,,
trial,html.Screen,10_30_0,2024-03-05T20:23:29.827Z,,,,1,-0.0069555338059566,0.0310100918136373,,0.05,false,lh,2390.800000381423,response,-0.7998855902596425,1.0635796307461969,-1.0252458873230919,1.1518579145663017,1.1624064344814773,-1.1587514787877615,low,high,,ISIC_0011177.JPG,9,ISIC_0025061.JPG,33,25,false,0.3400000000000002,hh,keypress(i),0,false,762409,762408.6000003815,760001.7,760123.5,760017.8,762319.7,5,600,31,
break,html.Screen,10_30_1,2024-03-05T20:23:29.828Z,,,,,,,,,,,NaN,,,,,,,,low,high,,,,,,,false,,,,,false,762409.5,762409.3999996185,,762409.2999992371,,762319.7,5,600,,
break_continue,html.Screen,10_30_2,2024-03-05T20:23:29.828Z,,,,,,,,,,,NaN,,,,,,,,low,high,,,,,,,false,,,,,false,762409.6000003815,762409.6000003815,,762409.5,,762319.7,5,600,,
sequence,flow.Sequence,10_30,2024-03-05T20:23:29.828Z,,,,,,,,,,,2391.800000381423,completion,,,,,,,low,high,,,,,,,false,,,,,false,762409.6000003815,762409.6000003815,760001.7,760123.5,760017.8,762319.7,5,600,,
trial,html.Screen,10_31_0,2024-03-05T20:23:32.277Z,,,,1,-0.0456515796420274,0.0273567130070961,,0.05,true,ll,2537.9999988556374,response,-0.9545500235555924,1.0635796307461969,-1.0252458873230919,-1.2140255839622307,1.1624064344814773,-1.1587514787877615,low,low,,ISIC_0068610.JPG,8,ISIC_8704257.JPG,33,26,false,0.1,ll,keypress(f),0,false,764858.1999988556,764857.6999988556,762303.5,762409.6999988556,762319.7,764755.2,5,600,32,
break,html.Screen,10_31_1,2024-03-05T20:23:32.279Z,,,,,,,,,,,NaN,,,,,,,,low,low,,,,,,,false,,,,,false,764860.1000003815,764859.6999988556,,764858.7999992371,,764755.2,5,600,,
break_continue,html.Screen,10_31_2,2024-03-05T20:23:32.280Z,,,,,,,,,,,NaN,,,,,,,,low,low,,,,,,,false,,,,,false,764861.1999988556,764860.8999996185,,764860.3999996185,,764755.2,5,600,,
sequence,flow.Sequence,10_31,2024-03-05T20:23:32.280Z,,,,,,,,,,,2541.199999618577,completion,,,,,,,low,low,,,,,,,false,,,,,false,764861.6000003815,764860.8999996185,762303.5,762409.6999988556,762319.7,764755.2,5,600,,
trial,html.Screen,10_32_0,2024-03-05T20:23:34.452Z,,,,1,-0.0324770283903853,-0.0249968632204382,,0.05,true,hh,2278.099999237107,response,1.0959058628476686,1.0635796307461969,-1.0252458873230919,1.1684835186766898,1.1624064344814773,-1.1587514787877615,high,high,,ISIC_7266462.JPG,9,ISIC_5920470.JPG,33,25,false,0.12,hh,keypress(i),0,false,767033.6000003815,767033.2999992371,764737.742,764861.7999992371,764755.2,766923.7,5,600,33,
break,html.Screen,10_32_1,2024-03-05T20:23:34.454Z,,,,,,,,,,,NaN,,,,,,,,high,high,,,,,,,false,,,,,false,767035.1000003815,767034.6000003815,,767034,,766923.7,5,600,,
break_continue,html.Screen,10_32_2,2024-03-05T20:23:34.454Z,,,,,,,,,,,NaN,,,,,,,,high,high,,,,,,,false,,,,,false,767036,767035.7999992371,,767035.3999996185,,766923.7,5,600,,
sequence,flow.Sequence,10_32,2024-03-05T20:23:34.455Z,,,,,,,,,,,2280.599999237107,completion,,,,,,,high,high,,,,,,,false,,,,,false,767036.2999992371,767035.7999992371,764737.742,764861.6999988556,764755.2,766923.7,5,600,,
trial,html.Screen,10_33_0,2024-03-05T20:23:36.644Z,,,,1,0.013431314305098,-0.0140597582944232,,0.05,false,lh,2301.199999618577,response,-0.7723849213858904,1.0635796307461969,-1.0252458873230919,0.888372424147899,1.1624064344814773,-1.1587514787877615,low,high,,ISIC_0069617.JPG,9,ISIC_3884221.JPG,33,25,false,0.3400000000000002,ll,keypress(f),0,false,769225.3999996185,769224.8999996185,766922.71,767036.6000003815,766923.7,769125.6,5,600,34,
break,html.Screen,10_33_1,2024-03-05T20:23:36.645Z,,,,,,,,,,,NaN,,,,,,,,low,high,,,,,,,false,,,,,false,769226.8999996185,769226.6999988556,,769225.8999996185,,769125.6,5,600,,
break_continue,html.Screen,10_33_2,2024-03-05T20:23:36.646Z,,,,,,,,,,,NaN,,,,,,,,low,high,,,,,,,false,,,,,false,769227,769227,,769226.8999996185,,769125.6,5,600,,
sequence,flow.Sequence,10_33,2024-03-05T20:23:36.646Z,,,,,,,,,,,2303.3000000000466,completion,,,,,,,low,high,,,,,,,false,,,,,false,769227.1999988556,769227,766922.71,767036.5,766923.7,769125.6,5,600,,
trial,html.Screen,10_34_0,2024-03-05T20:23:39.204Z,,,,1,-0.0389988030702649,-0.0143212271490256,,0.05,true,ll,2659.599998855614,response,-0.9588812385345452,1.0635796307461969,-1.0252458873230919,-1.21949255303104,1.1624064344814773,-1.1587514787877615,low,low,,ISIC_0064669.JPG,9,ISIC_0069986.JPG,33,26,false,0.1,ll,keypress(f),0,false,771785.6000003815,771785.1999988556,769107.72,769227.2999992371,769125.6,771677.5,5,600,35,
break,html.Screen,10_34_1,2024-03-05T20:23:39.206Z,,,,,,,,,,,NaN,,,,,,,,low,low,,,,,,,false,,,,,false,771787.1000003815,771786.6999988556,,771786,,771677.5,5,600,,
break_continue,html.Screen,10_34_2,2024-03-05T20:23:39.206Z,,,,,,,,,,,NaN,,,,,,,,low,low,,,,,,,false,,,,,false,771788,771787.6999988556,,771787.3999996185,,771677.5,5,600,,
sequence,flow.Sequence,10_34,2024-03-05T20:23:39.207Z,,,,,,,,,,,2662.099998855614,completion,,,,,,,low,low,,,,,,,false,,,,,false,771788.2999992371,771787.6999988556,769107.72,769227.2999992371,769125.6,771677.5,5,600,,
trial,html.Screen,10_35_0,2024-03-05T20:23:41.301Z,,,,1,0,0.0264544974620926,,0.05,true,ll,2204.1000003814697,response,-0.9342143229318964,1.0635796307461969,-1.0252458873230919,-1.195482218669593,1.1624064344814773,-1.1587514787877615,low,low,,ISIC_0056991.JPG,9,ISIC_8073555.JPG,33,26,false,0.1,ll,keypress(f),0,false,773882.1000003815,773881.6000003815,771676.104,771788.5,771677.5,773779.2,5,600,36,
break,html.Screen,10_35_1,2024-03-05T20:23:41.302Z,,,,,,,,,,,NaN,,,,,,,,low,low,,,,,,,false,,,,,false,773883.7999992371,773883.2999992371,,773882.6000003815,,773779.2,5,600,,
break_continue,html.Screen,10_35_2,2024-03-05T20:23:41.303Z,,,,,,,,,,,NaN,,,,,,,,low,low,,,,,,,false,,,,,false,773884.7999992371,773884.5,,773884,,773779.2,5,600,,
sequence,flow.Sequence,10_35,2024-03-05T20:23:41.304Z,,,,,,,,,,,2207,completion,,,,,,,low,low,,,,,,,false,,,,,false,773885.1999988556,773884.5,771676.104,771788.5,771677.5,773779.2,5,600,,
trial,html.Screen,10_36_0,2024-03-05T20:23:44.228Z,,,,1,-0.0389988030702649,-0.0143212271490256,,0.05,true,ll,3029.8000000000466,response,-1.0130095662293503,1.0635796307461969,-1.0252458873230919,-1.098939882801048,1.1624064344814773,-1.1587514787877615,low,low,,ISIC_0064669.JPG,8,ISIC_0059897.JPG,33,26,false,0.1,ll,keypress(f),0,false,776809.3999996185,776809,773762.5,773885.5,773779.2,776698.764,5,600,37,
break,html.Screen,10_36_1,2024-03-05T20:23:44.229Z,,,,,,,,,,,NaN,,,,,,,,low,low,,,,,,,false,,,,,false,776810.8999996185,776810.3999996185,,776809.8999996185,,776698.764,5,600,,
break_continue,html.Screen,10_36_2,2024-03-05T20:23:44.230Z,,,,,,,,,,,NaN,,,,,,,,low,low,,,,,,,false,,,,,false,776811.7999992371,776811.5,,776811.1000003815,,776698.764,5,600,,
sequence,flow.Sequence,10_36,2024-03-05T20:23:44.231Z,,,,,,,,,,,3032.3000000000466,completion,,,,,,,low,low,,,,,,,false,,,,,false,776812.1000003815,776811.5,773762.5,773885.3999996185,773779.2,776698.764,5,600,,
trial,html.Screen,10_37_0,2024-03-05T20:23:47.394Z,,,,1,-0.0107854985447517,-0.0478010417136109,,0.05,true,ll,3276.3360003815033,response,-0.9545500235555924,1.0635796307461969,-1.0252458873230919,-1.2140255839622307,1.1624064344814773,-1.1587514787877615,low,low,,ISIC_0010500.JPG,9,ISIC_8704257.JPG,33,26,false,0.1,ll,keypress(f),0,false,779975.2999992371,779975.1000003815,776698.764,776812.2999992371,776698.764,779867.8,5,600,38,
break,html.Screen,10_37_1,2024-03-05T20:23:47.394Z,,,,,,,,,,,NaN,,,,,,,,low,low,,,,,,,false,,,,,false,779975.6000003815,779975.6000003815,,779975.3999996185,,779867.8,5,600,,
break_continue,html.Screen,10_37_2,2024-03-05T20:23:47.394Z,,,,,,,,,,,NaN,,,,,,,,low,low,,,,,,,false,,,,,false,779975.8999996185,779975.7999992371,,779975.7999992371,,779867.8,5,600,,
sequence,flow.Sequence,10_37,2024-03-05T20:23:47.394Z,,,,,,,,,,,3277.035999237094,completion,,,,,,,low,low,,,,,,,false,,,,,false,779975.8999996185,779975.7999992371,776698.764,776812.2999992371,776698.764,779867.8,5,600,,
trial,html.Screen,10_38_0,2024-03-05T20:23:51.556Z,,,,1,0.013431314305098,-0.0140597582944232,,0.05,true,hh,4269.399998855544,response,1.1642596483638106,1.0635796307461969,-1.0252458873230919,1.109799097093339,1.1624064344814773,-1.1587514787877615,high,high,,ISIC_0069617.JPG,9,ISIC_0765584.JPG,33,25,false,0.12,hh,keypress(i),0,false,784137.6000003815,784137.1999988556,779851.5,779976,779867.8,784037.6,5,600,39,
break,html.Screen,10_38_1,2024-03-05T20:23:51.558Z,,,,,,,,,,,NaN,,,,,,,,high,high,,,,,,,false,,,,,false,784139,784138.6000003815,,784138,,784037.6,5,600,,
break_continue,html.Screen,10_38_2,2024-03-05T20:23:51.558Z,,,,,,,,,,,NaN,,,,,,,,high,high,,,,,,,false,,,,,false,784140,784139.6999988556,,784139.2999992371,,784037.6,5,600,,
sequence,flow.Sequence,10_38,2024-03-05T20:23:51.559Z,,,,,,,,,,,4271.899998855544,completion,,,,,,,high,high,,,,,,,false,,,,,false,784140.3999996185,784139.6999988556,779851.5,779976,779867.8,784037.6,5,600,,
trial,html.Screen,10_39_0,2024-03-05T20:23:55.141Z,,,,1,0.0188047466661863,-0.0288346930436979,,0.05,false,lh,3684.2999996185536,response,-1.0115965332688306,1.0635796307461969,-1.0252458873230919,0.8282633603842442,1.1624064344814773,-1.1587514787877615,low,high,,ISIC_0014157.JPG,9,ISIC_1069587.JPG,33,25,false,0.3400000000000002,hh,keypress(i),0,false,787722.2999992371,787721.8999996185,784020.79,784140.6000003815,784037.6,787607.3,5,600,40,
break,html.Screen,10_39_1,2024-03-05T20:23:55.142Z,,,,,,,,,,,NaN,,,,,,,,low,high,,,,,,,false,,,,,false,787723.8999996185,787723.3999996185,,787722.6999988556,,787607.3,5,600,,
break_continue,html.Screen,10_39_2,2024-03-05T20:23:55.143Z,,,,,,,,,,,NaN,,,,,,,,low,high,,,,,,,false,,,,,false,787724.7999992371,787724.5,,787724.1999988556,,787607.3,5,600,,
